seq,id,block,videoFile,condition,video,speaker,callSign,colour,number,exp.thisRepN,exp.thisTrialN,exp.thisN,exp.thisIndex,training.thisRepN,training.thisTrialN,training.thisN,training.thisIndex,firstHalf.thisRepN,firstHalf.thisTrialN,firstHalf.thisN,firstHalf.thisIndex,secondHalf.thisRepN,secondHalf.thisTrialN,secondHalf.thisN,secondHalf.thisIndex,blocksB.thisRepN,blocksB.thisTrialN,blocksB.thisN,blocksB.thisIndex,mouseClickOnCall.x,mouseClickOnCall.y,mouseClickOnCall.leftButton,mouseClickOnCall.midButton,mouseClickOnCall.rightButton,mouseClickOnCall.time,mouseClickOnCall.clicked_name,mouseClickOnColour.x,mouseClickOnColour.y,mouseClickOnColour.leftButton,mouseClickOnColour.midButton,mouseClickOnColour.rightButton,mouseClickOnColour.time,mouseClickOnColour.clicked_name,mouseClickOnNumber.x,mouseClickOnNumber.y,mouseClickOnNumber.leftButton,mouseClickOnNumber.midButton,mouseClickOnNumber.rightButton,mouseClickOnNumber.time,mouseClickOnNumber.clicked_name,callSignCorrect,colourCorrect,numberCorrect,participant,order,date,expName,psychopyVersion,frameRate,
2,1,flow/blocks/NVocInAudio_GlobalThetaInVideo_B.csv,video/Experiment/zh_sp01_Un_Ge_3_NVocInAudio_GlobalThetaInVideo.avi,vocoded,plusVideo,sp01,Un,Ge,3,,,,,,,,,,,,,0,0,0,0,0,0,0,18,-0.3625,0.2601851851851852,1,0,0,5.605520500001148,call1,0.001388888888888889,0.30185185185185187,1,0,0,6.128145899998344,colour1,0.4263888888888889,-0.2759259259259259,1,0,0,6.804646299999149,number4,False,True,False,111,2,2019_Nov_08_1528,MA_Theta_Exp,3.0.7,60.16810969849727,
2,1,flow/blocks/NVocInAudio_GlobalThetaInVideo_B.csv,video/Experiment/zh_sp01_Ti_Ro_4_NVocInAudio_GlobalThetaInVideo.avi,vocoded,plusVideo,sp01,Ti,Ro,4,,,,,,,,,,,,,0,0,0,0,0,1,1,11,-0.4013888888888889,-0.1175925925925926,1,0,0,5.299611300000834,call3,-0.018055555555555554,-0.09675925925925925,1,0,0,6.121081900000718,colour3,0.4152777777777778,-0.33425925925925926,1,0,0,7.00554960000045,number4,True,True,True,111,2,2019_Nov_08_1528,MA_Theta_Exp,3.0.7,60.16810969849727,
2,1,flow/blocks/NVocInAudio_GlobalThetaInVideo_B.csv,video/Experiment/zh_sp07_Un_We_2_NVocInAudio_GlobalThetaInVideo.avi,vocoded,plusVideo,sp07,Un,We,2,,,,,,,,,,,,,0,0,0,0,0,2,2,29,-0.42916666666666664,-0.09259259259259259,1,0,0,5.014810200000284,call3,0.027777777777777776,-0.3300925925925926,1,0,0,5.951298800000586,colour4,0.37777777777777777,0.07268518518518519,1,0,0,6.513874600001145,number2,False,True,True,111,2,2019_Nov_08_1528,MA_Theta_Exp,3.0.7,60.16810969849727,
2,1,flow/blocks/NVocInAudio_GlobalThetaInVideo_B.csv,video/Experiment/zh_sp01_Un_Ge_4_NVocInAudio_GlobalThetaInVideo.avi,vocoded,plusVideo,sp01,Un,Ge,4,,,,,,,,,,,,,0,0,0,0,0,3,3,19,-0.4125,-0.31203703703703706,1,0,0,5.576653399999486,call4,0.0375,0.31712962962962965,1,0,0,6.234963700000662,colour1,0.4125,-0.32731481481481484,1,0,0,6.89082849999977,number4,True,True,True,111,2,2019_Nov_08_1528,MA_Theta_Exp,3.0.7,60.16810969849727,
2,1,flow/blocks/NVocInAudio_GlobalThetaInVideo_B.csv,video/Experiment/zh_sp01_Un_Ro_3_NVocInAudio_GlobalThetaInVideo.avi,vocoded,plusVideo,sp01,Un,Ro,3,,,,,,,,,,,,,0,0,0,0,0,4,4,26,-0.3763888888888889,-0.3148148148148148,1,0,0,5.236596399998234,call4,0.009722222222222222,-0.12731481481481483,1,0,0,6.079422199998589,colour3,0.4097222222222222,-0.12314814814814815,1,0,0,7.007680499998969,number3,True,True,True,111,2,2019_Nov_08_1528,MA_Theta_Exp,3.0.7,60.16810969849727,
2,1,flow/blocks/NVocInAudio_GlobalThetaInVideo_B.csv,video/Experiment/zh_sp07_Un_Gr_4_NVocInAudio_GlobalThetaInVideo.avi,vocoded,plusVideo,sp07,Un,Gr,4,,,,,,,,,,,,,0,0,0,0,0,5,5,23,-0.40694444444444444,-0.3175925925925926,1,0,0,4.738478100000066,call4,0.03333333333333333,-0.15787037037037038,1,0,0,6.005225900000369,colour3,0.4444444444444444,-0.32731481481481484,1,0,0,6.4420199999985925,number4,True,False,True,111,2,2019_Nov_08_1528,MA_Theta_Exp,3.0.7,60.16810969849727,
2,1,flow/blocks/NVocInAudio_GlobalThetaInVideo_B.csv,video/Experiment/zh_sp07_Ti_Ro_2_NVocInAudio_GlobalThetaInVideo.avi,vocoded,plusVideo,sp07,Ti,Ro,2,,,,,,,,,,,,,0,0,0,0,0,6,6,9,-0.3611111111111111,-0.11203703703703703,1,0,0,4.994356999999582,call3,0.0375,0.3060185185185185,1,0,0,7.010457700000188,colour1,0.4513888888888889,0.06574074074074074,1,0,0,7.835976800000935,number2,True,False,True,111,2,2019_Nov_08_1528,MA_Theta_Exp,3.0.7,60.16810969849727,
2,1,flow/blocks/NVocInAudio_GlobalThetaInVideo_B.csv,video/Experiment/zh_sp01_Ti_Ro_3_NVocInAudio_GlobalThetaInVideo.avi,vocoded,plusVideo,sp01,Ti,Ro,3,,,,,,,,,,,,,0,0,0,0,0,7,7,10,-0.37222222222222223,-0.14953703703703702,1,0,0,5.104384799999025,call3,0.015277777777777777,-0.09953703703703703,1,0,0,5.6002343999989534,colour3,0.4791666666666667,-0.11203703703703703,1,0,0,5.9883564000010665,number3,True,True,True,111,2,2019_Nov_08_1528,MA_Theta_Exp,3.0.7,60.16810969849727,
2,1,flow/blocks/NVocInAudio_GlobalThetaInVideo_B.csv,video/Experiment/zh_sp01_Un_We_3_NVocInAudio_GlobalThetaInVideo.avi,vocoded,plusVideo,sp01,Un,We,3,,,,,,,,,,,,,0,0,0,0,0,8,8,30,-0.4486111111111111,-0.10092592592592593,1,0,0,5.092244199999186,call3,0.018055555555555554,-0.28703703703703703,1,0,0,5.535921199998484,colour4,0.4222222222222222,-0.1537037037037037,1,0,0,6.184370200000558,number3,False,True,True,111,2,2019_Nov_08_1528,MA_Theta_Exp,3.0.7,60.16810969849727,
2,1,flow/blocks/NVocInAudio_GlobalThetaInVideo_B.csv,video/Experiment/zh_sp07_Un_Ro_1_NVocInAudio_GlobalThetaInVideo.avi,vocoded,plusVideo,sp07,Un,Ro,1,,,,,,,,,,,,,0,0,0,0,0,9,9,24,-0.4125,-0.3384259259259259,1,0,0,4.513987399999678,call4,0.008333333333333333,-0.0912037037037037,1,0,0,4.978882199999134,colour3,0.49444444444444446,0.3212962962962963,1,0,0,5.453839699999662,number1,True,True,True,111,2,2019_Nov_08_1528,MA_Theta_Exp,3.0.7,60.16810969849727,
2,1,flow/blocks/NVocInAudio_GlobalThetaInVideo_B.csv,video/Experiment/zh_sp07_Ti_We_3_NVocInAudio_GlobalThetaInVideo.avi,vocoded,plusVideo,sp07,Ti,We,3,,,,,,,,,,,,,0,0,0,0,0,10,10,14,-0.3638888888888889,-0.1037037037037037,1,0,0,4.964763300000413,call3,0.04861111111111111,-0.3509259259259259,1,0,0,5.7498432000011235,colour4,0.4166666666666667,-0.13703703703703704,1,0,0,6.430712200000926,number3,True,True,True,111,2,2019_Nov_08_1528,MA_Theta_Exp,3.0.7,60.16810969849727,
2,1,flow/blocks/NVocInAudio_GlobalThetaInVideo_B.csv,video/Experiment/zh_sp07_Ti_Gr_2_NVocInAudio_GlobalThetaInVideo.avi,vocoded,plusVideo,sp07,Ti,Gr,2,,,,,,,,,,,,,0,0,0,0,0,11,11,5,-0.4166666666666667,-0.11898148148148148,1,0,0,4.673996100000295,call3,0.018055555555555554,0.09351851851851851,1,0,0,5.3709505000006175,colour2,0.4597222222222222,0.0962962962962963,1,0,0,5.809138399999938,number2,True,True,True,111,2,2019_Nov_08_1528,MA_Theta_Exp,3.0.7,60.16810969849727,
2,1,flow/blocks/NVocInAudio_GlobalThetaInVideo_B.csv,video/Experiment/zh_sp01_Ti_Ro_1_NVocInAudio_GlobalThetaInVideo.avi,vocoded,plusVideo,sp01,Ti,Ro,1,,,,,,,,,,,,,0,0,0,0,0,12,12,8,-0.3541666666666667,-0.11898148148148148,1,0,0,5.270769400000063,call3,-0.016666666666666666,-0.08703703703703704,1,0,0,5.666787199999817,colour3,0.44027777777777777,0.2810185185185185,1,0,0,6.2715090999990935,number1,True,True,True,111,2,2019_Nov_08_1528,MA_Theta_Exp,3.0.7,60.16810969849727,
2,1,flow/blocks/NVocInAudio_GlobalThetaInVideo_B.csv,video/Experiment/zh_sp01_Ti_Ge_1_NVocInAudio_GlobalThetaInVideo.avi,vocoded,plusVideo,sp01,Ti,Ge,1,,,,,,,,,,,,,0,0,0,0,0,13,13,0,-0.41388888888888886,-0.1037037037037037,1,0,0,6.574537899999996,call3,0.05694444444444444,0.32407407407407407,1,0,0,7.563465700000961,colour1,0.4666666666666667,0.32546296296296295,1,0,0,8.011597200000324,number1,True,True,True,111,2,2019_Nov_08_1528,MA_Theta_Exp,3.0.7,60.16810969849727,
2,1,flow/blocks/NVocInAudio_GlobalThetaInVideo_B.csv,video/Experiment/zh_sp07_Ti_Gr_3_NVocInAudio_GlobalThetaInVideo.avi,vocoded,plusVideo,sp07,Ti,Gr,3,,,,,,,,,,,,,0,0,0,0,0,14,14,6,-0.38055555555555554,-0.11203703703703703,1,0,0,5.017013399999996,call3,0.08611111111111111,0.10740740740740741,1,0,0,5.8919002000002365,colour2,0.4388888888888889,-0.1162037037037037,1,0,0,6.652578200000789,number3,True,True,True,111,2,2019_Nov_08_1528,MA_Theta_Exp,3.0.7,60.16810969849727,
2,1,flow/blocks/NVocInAudio_GlobalThetaInVideo_B.csv,video/Experiment/zh_sp07_Ti_Ge_4_NVocInAudio_GlobalThetaInVideo.avi,vocoded,plusVideo,sp07,Ti,Ge,4,,,,,,,,,,,,,0,0,0,0,0,15,15,3,-0.3888888888888889,-0.09398148148148149,1,0,0,4.544781799999328,call3,0.011111111111111112,0.38796296296296295,1,0,0,5.301412200000414,colour1,0.46805555555555556,-0.13425925925925927,1,0,0,5.970558199998777,number3,True,True,False,111,2,2019_Nov_08_1528,MA_Theta_Exp,3.0.7,60.16810969849727,
2,1,flow/blocks/NVocInAudio_GlobalThetaInVideo_B.csv,video/Experiment/zh_sp01_Un_We_1_NVocInAudio_GlobalThetaInVideo.avi,vocoded,plusVideo,sp01,Un,We,1,,,,,,,,,,,,,0,0,0,0,0,16,16,28,-0.425,-0.3384259259259259,1,0,0,5.197599799999807,call4,0.019444444444444445,-0.29814814814814816,1,0,0,5.737660499999038,colour4,0.3875,0.25601851851851853,1,0,0,6.408760799999072,number1,True,True,True,111,2,2019_Nov_08_1528,MA_Theta_Exp,3.0.7,60.16810969849727,
2,1,flow/blocks/NVocInAudio_GlobalThetaInVideo_B.csv,video/Experiment/zh_sp07_Un_Ge_1_NVocInAudio_GlobalThetaInVideo.avi,vocoded,plusVideo,sp07,Un,Ge,1,,,,,,,,,,,,,0,0,0,0,0,17,17,16,-0.40694444444444444,-0.3162037037037037,1,0,0,5.890375400000266,call4,-0.013888888888888888,0.38935185185185184,1,0,0,6.865029000000504,colour1,0.39166666666666666,0.29768518518518516,1,0,0,7.270981000001484,number1,True,True,True,111,2,2019_Nov_08_1528,MA_Theta_Exp,3.0.7,60.16810969849727,
2,1,flow/blocks/NVocInAudio_GlobalThetaInVideo_B.csv,video/Experiment/zh_sp07_Un_Ge_2_NVocInAudio_GlobalThetaInVideo.avi,vocoded,plusVideo,sp07,Un,Ge,2,,,,,,,,,,,,,0,0,0,0,0,18,18,17,-0.3888888888888889,-0.32037037037037036,1,0,0,4.631940699999177,call4,0.04583333333333333,0.33101851851851855,1,0,0,5.437173899999834,colour1,0.4152777777777778,0.07268518518518519,1,0,0,5.918386700001065,number2,True,True,True,111,2,2019_Nov_08_1528,MA_Theta_Exp,3.0.7,60.16810969849727,
2,1,flow/blocks/NVocInAudio_GlobalThetaInVideo_B.csv,video/Experiment/zh_sp07_Ti_Ge_3_NVocInAudio_GlobalThetaInVideo.avi,vocoded,plusVideo,sp07,Ti,Ge,3,,,,,,,,,,,,,0,0,0,0,0,19,19,2,-0.38472222222222224,-0.15092592592592594,1,0,0,4.640092099998583,call3,0.020833333333333332,0.3851851851851852,1,0,0,5.223181899998963,colour1,0.4111111111111111,-0.13425925925925927,1,0,0,5.824727100000018,number3,True,True,True,111,2,2019_Nov_08_1528,MA_Theta_Exp,3.0.7,60.16810969849727,
2,1,flow/blocks/NVocInAudio_GlobalThetaInVideo_B.csv,video/Experiment/zh_sp01_Ti_Ge_2_NVocInAudio_GlobalThetaInVideo.avi,vocoded,plusVideo,sp01,Ti,Ge,2,,,,,,,,,,,,,0,0,0,0,0,20,20,1,-0.4222222222222222,-0.14675925925925926,1,0,0,5.510075500000312,call3,0.03611111111111111,0.362962962962963,1,0,0,6.062402200001088,colour1,0.43472222222222223,0.12129629629629629,1,0,0,6.5569230999990396,number2,True,True,True,111,2,2019_Nov_08_1528,MA_Theta_Exp,3.0.7,60.16810969849727,
2,1,flow/blocks/NVocInAudio_GlobalThetaInVideo_B.csv,video/Experiment/zh_sp07_Un_Gr_3_NVocInAudio_GlobalThetaInVideo.avi,vocoded,plusVideo,sp07,Un,Gr,3,,,,,,,,,,,,,0,0,0,0,0,21,21,22,-0.4152777777777778,-0.11064814814814815,1,0,0,4.677254000000175,call3,-0.044444444444444446,0.14074074074074075,1,0,0,5.0522191999989445,colour2,0.5055555555555555,-0.2300925925925926,1,0,0,5.48827429999983,number3,False,True,True,111,2,2019_Nov_08_1528,MA_Theta_Exp,3.0.7,60.16810969849727,
2,1,flow/blocks/NVocInAudio_GlobalThetaInVideo_B.csv,video/Experiment/zh_sp01_Un_We_4_NVocInAudio_GlobalThetaInVideo.avi,vocoded,plusVideo,sp01,Un,We,4,,,,,,,,,,,,,0,0,0,0,0,22,22,31,-0.35694444444444445,-0.08981481481481482,1,0,0,9.989460099999633,call3,0.03888888888888889,-0.31342592592592594,1,0,0,10.457278199999564,colour4,0.4625,-0.4050925925925926,1,0,0,11.011949699999604,number4,False,True,True,111,2,2019_Nov_08_1528,MA_Theta_Exp,3.0.7,60.16810969849727,
2,1,flow/blocks/NVocInAudio_GlobalThetaInVideo_B.csv,video/Experiment/zh_sp07_Ti_We_4_NVocInAudio_GlobalThetaInVideo.avi,vocoded,plusVideo,sp07,Ti,We,4,,,,,,,,,,,,,0,0,0,0,0,23,23,15,-0.4152777777777778,-0.13703703703703704,1,0,0,4.858638899999278,call3,0.06388888888888888,-0.32037037037037036,1,0,0,5.609012099999745,colour4,0.43472222222222223,-0.38842592592592595,1,0,0,6.207167099999424,number4,True,True,True,111,2,2019_Nov_08_1528,MA_Theta_Exp,3.0.7,60.16810969849727,
2,1,flow/blocks/NVocInAudio_GlobalThetaInVideo_B.csv,video/Experiment/zh_sp01_Ti_Gr_1_NVocInAudio_GlobalThetaInVideo.avi,vocoded,plusVideo,sp01,Ti,Gr,1,,,,,,,,,,,,,0,0,0,0,0,24,24,4,-0.3902777777777778,-0.13287037037037036,1,0,0,5.272687999999107,call3,0.005555555555555556,0.09212962962962963,1,0,0,6.1240156999992905,colour2,0.42916666666666664,0.2962962962962963,1,0,0,6.865455600000132,number1,True,True,True,111,2,2019_Nov_08_1528,MA_Theta_Exp,3.0.7,60.16810969849727,
2,1,flow/blocks/NVocInAudio_GlobalThetaInVideo_B.csv,video/Experiment/zh_sp07_Ti_We_1_NVocInAudio_GlobalThetaInVideo.avi,vocoded,plusVideo,sp07,Ti,We,1,,,,,,,,,,,,,0,0,0,0,0,25,25,12,-0.40555555555555556,-0.1259259259259259,1,0,0,4.298225000000457,call3,-0.018055555555555554,-0.34120370370370373,1,0,0,4.952029500000208,colour4,0.3416666666666667,0.19768518518518519,1,0,0,5.414314999999988,number1,True,True,True,111,2,2019_Nov_08_1528,MA_Theta_Exp,3.0.7,60.16810969849727,
2,1,flow/blocks/NVocInAudio_GlobalThetaInVideo_B.csv,video/Experiment/zh_sp01_Un_Gr_1_NVocInAudio_GlobalThetaInVideo.avi,vocoded,plusVideo,sp01,Un,Gr,1,,,,,,,,,,,,,0,0,0,0,0,26,26,20,-0.3861111111111111,-0.3509259259259259,1,0,0,6.0396866999999475,call4,0.043055555555555555,0.0699074074074074,1,0,0,7.271923100001004,colour2,0.46805555555555556,0.33240740740740743,1,0,0,7.686769300000378,number1,True,True,True,111,2,2019_Nov_08_1528,MA_Theta_Exp,3.0.7,60.16810969849727,
2,1,flow/blocks/NVocInAudio_GlobalThetaInVideo_B.csv,video/Experiment/zh_sp01_Un_Ro_2_NVocInAudio_GlobalThetaInVideo.avi,vocoded,plusVideo,sp01,Un,Ro,2,,,,,,,,,,,,,0,0,0,0,0,27,27,25,-0.4222222222222222,-0.37592592592592594,1,0,0,5.145773099999133,call4,-0.041666666666666664,-0.13287037037037036,1,0,0,5.8346384999986185,colour3,0.3541666666666667,0.0824074074074074,1,0,0,6.630933400001595,number2,True,True,True,111,2,2019_Nov_08_1528,MA_Theta_Exp,3.0.7,60.16810969849727,
2,1,flow/blocks/NVocInAudio_GlobalThetaInVideo_B.csv,video/Experiment/zh_sp07_Un_Gr_2_NVocInAudio_GlobalThetaInVideo.avi,vocoded,plusVideo,sp07,Un,Gr,2,,,,,,,,,,,,,0,0,0,0,0,28,28,21,-0.4388888888888889,-0.34120370370370373,1,0,0,5.359022599999662,call4,0.019444444444444445,0.3435185185185185,1,0,0,6.079496199999994,colour1,0.39444444444444443,0.07685185185185185,1,0,0,6.631313799998679,number2,True,False,True,111,2,2019_Nov_08_1528,MA_Theta_Exp,3.0.7,60.16810969849727,
2,1,flow/blocks/NVocInAudio_GlobalThetaInVideo_B.csv,video/Experiment/zh_sp01_Ti_We_2_NVocInAudio_GlobalThetaInVideo.avi,vocoded,plusVideo,sp01,Ti,We,2,,,,,,,,,,,,,0,0,0,0,0,29,29,13,-0.5083333333333333,0.350462962962963,1,0,0,13.186254799999006,,,,,,,,,,,,,,,,NO_ANSW,NO_ANSW,NO_ANSW,111,2,2019_Nov_08_1528,MA_Theta_Exp,3.0.7,60.16810969849727,
2,1,flow/blocks/NVocInAudio_GlobalThetaInVideo_B.csv,video/Experiment/zh_sp01_Un_Ro_4_NVocInAudio_GlobalThetaInVideo.avi,vocoded,plusVideo,sp01,Un,Ro,4,,,,,,,,,,,,,0,0,0,0,0,30,30,27,-0.3763888888888889,-0.10787037037037037,1,0,0,6.086455999999089,call3,0.059722222222222225,-0.04675925925925926,1,0,0,6.426704200001041,colour3,0.4361111111111111,-0.36064814814814816,1,0,0,7.1724549999999,number4,False,True,True,111,2,2019_Nov_08_1528,MA_Theta_Exp,3.0.7,60.16810969849727,
2,1,flow/blocks/NVocInAudio_GlobalThetaInVideo_B.csv,video/Experiment/zh_sp07_Ti_Gr_4_NVocInAudio_GlobalThetaInVideo.avi,vocoded,plusVideo,sp07,Ti,Gr,4,,,,,,,,,,,,,0,0,0,0,0,31,31,7,-0.3611111111111111,0.11296296296296296,1,0,0,5.543331599999874,call2,0.004166666666666667,0.10740740740740741,1,0,0,5.951208999998926,colour2,0.4513888888888889,-0.3398148148148148,1,0,0,6.692796499999531,number4,False,True,True,111,2,2019_Nov_08_1528,MA_Theta_Exp,3.0.7,60.16810969849727,
3,4,flow/blocks/NoThetaInAudio_NoVideo_B.csv,video/Experiment/zh_sp01_Un_Ro_2_NoThetaInAudio_NoVideo.avi,noTheta,noVideo,sp01,Un,Ro,2,,,,,,,,,,,,,0,1,1,1,0,0,0,25,-0.39861111111111114,0.3199074074074074,1,0,0,5.934460500000569,call1,0.0125,0.11157407407407408,1,0,0,9.945786899999803,colour2,0.5,-0.1439814814814815,1,0,0,10.42743949999931,number3,False,False,False,111,2,2019_Nov_08_1528,MA_Theta_Exp,3.0.7,60.16810969849727,
3,4,flow/blocks/NoThetaInAudio_NoVideo_B.csv,video/Experiment/zh_sp07_Ti_Gr_4_NoThetaInAudio_NoVideo.avi,noTheta,noVideo,sp07,Ti,Gr,4,,,,,,,,,,,,,0,1,1,1,0,1,1,7,-0.45,0.07962962962962963,1,0,0,4.898114599998735,call2,0.008333333333333333,0.11990740740740741,1,0,0,5.382677199999307,colour2,0.40555555555555556,0.0824074074074074,1,0,0,5.795117199999368,number2,False,True,False,111,2,2019_Nov_08_1528,MA_Theta_Exp,3.0.7,60.16810969849727,
3,4,flow/blocks/NoThetaInAudio_NoVideo_B.csv,video/Experiment/zh_sp01_Ti_Ge_2_NoThetaInAudio_NoVideo.avi,noTheta,noVideo,sp01,Ti,Ge,2,,,,,,,,,,,,,0,1,1,1,0,2,2,1,-0.44305555555555554,0.09351851851851851,1,0,0,5.422447099999772,call2,-0.006944444444444444,0.08518518518518518,1,0,0,5.863852799999222,colour2,0.3888888888888889,0.11157407407407408,1,0,0,6.641182500001378,number2,False,False,True,111,2,2019_Nov_08_1528,MA_Theta_Exp,3.0.7,60.16810969849727,
3,4,flow/blocks/NoThetaInAudio_NoVideo_B.csv,video/Experiment/zh_sp01_Ti_We_1_NoThetaInAudio_NoVideo.avi,noTheta,noVideo,sp01,Ti,We,1,,,,,,,,,,,,,0,1,1,1,0,3,3,12,-0.44583333333333336,0.0837962962962963,1,0,0,8.51298510000015,call2,-0.018055555555555554,0.12824074074074074,1,0,0,9.077660200000537,colour2,0.4041666666666667,0.06296296296296296,1,0,0,9.51639029999933,number2,False,False,False,111,2,2019_Nov_08_1528,MA_Theta_Exp,3.0.7,60.16810969849727,
3,4,flow/blocks/NoThetaInAudio_NoVideo_B.csv,video/Experiment/zh_sp01_Ti_Gr_3_NoThetaInAudio_NoVideo.avi,noTheta,noVideo,sp01,Ti,Gr,3,,,,,,,,,,,,,0,1,1,1,0,4,4,6,-0.425,-0.17592592592592593,1,0,0,5.103566300000239,call3,-0.044444444444444446,0.13518518518518519,1,0,0,5.538557699999728,colour2,0.37083333333333335,-0.14537037037037037,1,0,0,5.986499500000718,number3,True,True,True,111,2,2019_Nov_08_1528,MA_Theta_Exp,3.0.7,60.16810969849727,
3,4,flow/blocks/NoThetaInAudio_NoVideo_B.csv,video/Experiment/zh_sp07_Ti_We_2_NoThetaInAudio_NoVideo.avi,noTheta,noVideo,sp07,Ti,We,2,,,,,,,,,,,,,0,1,1,1,0,5,5,13,-0.45416666666666666,-0.04537037037037037,1,0,0,4.8215356999990036,call3,-0.10694444444444444,-0.11342592592592593,1,0,0,5.271258599999783,colour3,0.45,-0.16342592592592592,1,0,0,5.919224100000065,number3,True,False,False,111,2,2019_Nov_08_1528,MA_Theta_Exp,3.0.7,60.16810969849727,
3,4,flow/blocks/NoThetaInAudio_NoVideo_B.csv,video/Experiment/zh_sp07_Un_Gr_1_NoThetaInAudio_NoVideo.avi,noTheta,noVideo,sp07,Un,Gr,1,,,,,,,,,,,,,0,1,1,1,0,6,6,20,-0.44722222222222224,-0.1162037037037037,1,0,0,4.5902931000000535,call3,-0.08611111111111111,0.1310185185185185,1,0,0,4.9643825000002835,colour2,0.4152777777777778,0.3560185185185185,1,0,0,5.521666800001185,number1,False,True,True,111,2,2019_Nov_08_1528,MA_Theta_Exp,3.0.7,60.16810969849727,
3,4,flow/blocks/NoThetaInAudio_NoVideo_B.csv,video/Experiment/zh_sp01_Ti_Ro_1_NoThetaInAudio_NoVideo.avi,noTheta,noVideo,sp01,Ti,Ro,1,,,,,,,,,,,,,0,1,1,1,0,7,7,8,-0.4305555555555556,0.31157407407407406,1,0,0,5.329309299999295,call1,-0.016666666666666666,0.30185185185185187,1,0,0,5.7011197000010725,colour1,0.40555555555555556,0.31157407407407406,1,0,0,6.062211399999796,number1,False,False,True,111,2,2019_Nov_08_1528,MA_Theta_Exp,3.0.7,60.16810969849727,
3,4,flow/blocks/NoThetaInAudio_NoVideo_B.csv,video/Experiment/zh_sp07_Un_Gr_4_NoThetaInAudio_NoVideo.avi,noTheta,noVideo,sp07,Un,Gr,4,,,,,,,,,,,,,0,1,1,1,0,8,8,23,-0.4013888888888889,0.1087962962962963,1,0,0,4.878089499999987,call2,0.005555555555555556,0.1337962962962963,1,0,0,5.248160600000119,colour2,0.44027777777777777,-0.33287037037037037,1,0,0,5.9959266999994725,number4,False,True,True,111,2,2019_Nov_08_1528,MA_Theta_Exp,3.0.7,60.16810969849727,
3,4,flow/blocks/NoThetaInAudio_NoVideo_B.csv,video/Experiment/zh_sp01_Un_Ge_1_NoThetaInAudio_NoVideo.avi,noTheta,noVideo,sp01,Un,Ge,1,,,,,,,,,,,,,0,1,1,1,0,9,9,16,-0.4736111111111111,0.1310185185185185,1,0,0,5.332822899999883,call2,-0.005555555555555556,0.14074074074074075,1,0,0,5.745123500000773,colour2,0.425,0.3143518518518518,1,0,0,6.485584899999594,number1,False,False,True,111,2,2019_Nov_08_1528,MA_Theta_Exp,3.0.7,60.16810969849727,
3,4,flow/blocks/NoThetaInAudio_NoVideo_B.csv,video/Experiment/zh_sp01_Ti_We_3_NoThetaInAudio_NoVideo.avi,noTheta,noVideo,sp01,Ti,We,3,,,,,,,,,,,,,0,1,1,1,0,10,10,14,-0.3958333333333333,0.11018518518518519,1,0,0,4.954989800000476,call2,0.03194444444444444,0.32407407407407407,1,0,0,5.389394300000276,colour1,0.425,0.3435185185185185,1,0,0,5.771432999999888,number1,False,False,False,111,2,2019_Nov_08_1528,MA_Theta_Exp,3.0.7,60.16810969849727,
3,4,flow/blocks/NoThetaInAudio_NoVideo_B.csv,video/Experiment/zh_sp07_Un_We_1_NoThetaInAudio_NoVideo.avi,noTheta,noVideo,sp07,Un,We,1,,,,,,,,,,,,,0,1,1,1,0,11,11,28,-0.40555555555555556,0.3351851851851852,1,0,0,5.057232700000895,call1,0.06111111111111111,0.2865740740740741,1,0,0,5.451207500000237,colour1,0.34305555555555556,0.32407407407407407,1,0,0,5.950068199999805,number1,False,False,True,111,2,2019_Nov_08_1528,MA_Theta_Exp,3.0.7,60.16810969849727,
3,4,flow/blocks/NoThetaInAudio_NoVideo_B.csv,video/Experiment/zh_sp07_Un_We_3_NoThetaInAudio_NoVideo.avi,noTheta,noVideo,sp07,Un,We,3,,,,,,,,,,,,,0,1,1,1,0,12,12,30,,,,,,,,,,,,,,,,,,,,,,NO_ANSW,NO_ANSW,NO_ANSW,111,2,2019_Nov_08_1528,MA_Theta_Exp,3.0.7,60.16810969849727,
3,4,flow/blocks/NoThetaInAudio_NoVideo_B.csv,video/Experiment/zh_sp01_Ti_Ge_1_NoThetaInAudio_NoVideo.avi,noTheta,noVideo,sp01,Ti,Ge,1,,,,,,,,,,,,,0,1,1,1,0,13,13,0,,,,,,,,,,,,,,,,,,,,,,NO_ANSW,NO_ANSW,NO_ANSW,111,2,2019_Nov_08_1528,MA_Theta_Exp,3.0.7,60.16810969849727,
3,4,flow/blocks/NoThetaInAudio_NoVideo_B.csv,video/Experiment/zh_sp07_Un_Gr_2_NoThetaInAudio_NoVideo.avi,noTheta,noVideo,sp07,Un,Gr,2,,,,,,,,,,,,,0,1,1,1,0,14,14,21,,,,,,,,,,,,,,,,,,,,,,NO_ANSW,NO_ANSW,NO_ANSW,111,2,2019_Nov_08_1528,MA_Theta_Exp,3.0.7,60.16810969849727,
3,4,flow/blocks/NoThetaInAudio_NoVideo_B.csv,video/Experiment/zh_sp07_Un_Ro_1_NoThetaInAudio_NoVideo.avi,noTheta,noVideo,sp07,Un,Ro,1,,,,,,,,,,,,,0,1,1,1,0,15,15,24,,,,,,,,,,,,,,,,,,,,,,NO_ANSW,NO_ANSW,NO_ANSW,111,2,2019_Nov_08_1528,MA_Theta_Exp,3.0.7,60.16810969849727,
3,4,flow/blocks/NoThetaInAudio_NoVideo_B.csv,video/Experiment/zh_sp07_Un_Ge_4_NoThetaInAudio_NoVideo.avi,noTheta,noVideo,sp07,Un,Ge,4,,,,,,,,,,,,,0,1,1,1,0,16,16,19,,,,,,,,,,,,,,,,,,,,,,NO_ANSW,NO_ANSW,NO_ANSW,111,2,2019_Nov_08_1528,MA_Theta_Exp,3.0.7,60.16810969849727,
3,4,flow/blocks/NoThetaInAudio_NoVideo_B.csv,video/Experiment/zh_sp07_Un_Gr_3_NoThetaInAudio_NoVideo.avi,noTheta,noVideo,sp07,Un,Gr,3,,,,,,,,,,,,,0,1,1,1,0,17,17,22,,,,,,,,,,,,,,,,,,,,,,NO_ANSW,NO_ANSW,NO_ANSW,111,2,2019_Nov_08_1528,MA_Theta_Exp,3.0.7,60.16810969849727,
3,4,flow/blocks/NoThetaInAudio_NoVideo_B.csv,video/Experiment/zh_sp07_Ti_Ro_3_NoThetaInAudio_NoVideo.avi,noTheta,noVideo,sp07,Ti,Ro,3,,,,,,,,,,,,,0,1,1,1,0,18,18,10,-0.3333333333333333,0.31712962962962965,1,0,0,4.616452700000082,call1,0.10694444444444444,0.3143518518518518,1,0,0,4.97657640000034,colour1,0.4125,0.31574074074074077,1,0,0,5.887768000000506,number1,False,False,False,111,2,2019_Nov_08_1528,MA_Theta_Exp,3.0.7,60.16810969849727,
3,4,flow/blocks/NoThetaInAudio_NoVideo_B.csv,video/Experiment/zh_sp07_Un_Ro_3_NoThetaInAudio_NoVideo.avi,noTheta,noVideo,sp07,Un,Ro,3,,,,,,,,,,,,,0,1,1,1,0,19,19,26,-0.4111111111111111,0.2796296296296296,1,0,0,5.14494840000043,call1,0.05416666666666667,0.2962962962962963,1,0,0,5.556949599998916,colour1,0.42777777777777776,0.3101851851851852,1,0,0,5.942956299999423,number1,False,False,False,111,2,2019_Nov_08_1528,MA_Theta_Exp,3.0.7,60.16810969849727,
3,4,flow/blocks/NoThetaInAudio_NoVideo_B.csv,video/Experiment/zh_sp01_Un_Ge_3_NoThetaInAudio_NoVideo.avi,noTheta,noVideo,sp01,Un,Ge,3,,,,,,,,,,,,,0,1,1,1,0,20,20,18,-0.4083333333333333,0.3212962962962963,1,0,0,5.111382000000958,call1,0.05277777777777778,0.33935185185185185,1,0,0,5.506209799999851,colour1,0.4083333333333333,0.08518518518518518,1,0,0,5.87960159999966,number2,False,True,False,111,2,2019_Nov_08_1528,MA_Theta_Exp,3.0.7,60.16810969849727,
3,4,flow/blocks/NoThetaInAudio_NoVideo_B.csv,video/Experiment/zh_sp07_Ti_We_4_NoThetaInAudio_NoVideo.avi,noTheta,noVideo,sp07,Ti,We,4,,,,,,,,,,,,,0,1,1,1,0,21,21,15,-0.4013888888888889,0.11851851851851852,1,0,0,5.541978400000517,call2,0.058333333333333334,0.11990740740740741,1,0,0,5.950422500000059,colour2,0.5097222222222222,0.09907407407407408,1,0,0,6.260760799999844,number2,False,False,False,111,2,2019_Nov_08_1528,MA_Theta_Exp,3.0.7,60.16810969849727,
3,4,flow/blocks/NoThetaInAudio_NoVideo_B.csv,video/Experiment/zh_sp07_Ti_Gr_2_NoThetaInAudio_NoVideo.avi,noTheta,noVideo,sp07,Ti,Gr,2,,,,,,,,,,,,,0,1,1,1,0,22,22,5,-0.5222222222222223,0.1449074074074074,1,0,0,5.020219199999701,call2,0.15,0.10324074074074074,1,0,0,5.639581499999622,colour2,0.4125,0.12407407407407407,1,0,0,6.285584799999924,number2,False,True,True,111,2,2019_Nov_08_1528,MA_Theta_Exp,3.0.7,60.16810969849727,
3,4,flow/blocks/NoThetaInAudio_NoVideo_B.csv,video/Experiment/zh_sp07_Un_Ge_2_NoThetaInAudio_NoVideo.avi,noTheta,noVideo,sp07,Un,Ge,2,,,,,,,,,,,,,0,1,1,1,0,23,23,17,-0.43472222222222223,0.11574074074074074,1,0,0,4.430115400000432,call2,-0.019444444444444445,0.08796296296296297,1,0,0,4.773315700000239,colour2,0.4263888888888889,0.0824074074074074,1,0,0,5.124964599999657,number2,False,False,True,111,2,2019_Nov_08_1528,MA_Theta_Exp,3.0.7,60.16810969849727,
3,4,flow/blocks/NoThetaInAudio_NoVideo_B.csv,video/Experiment/zh_sp01_Ti_Ro_4_NoThetaInAudio_NoVideo.avi,noTheta,noVideo,sp01,Ti,Ro,4,,,,,,,,,,,,,0,1,1,1,0,24,24,11,-0.4236111111111111,0.10601851851851851,1,0,0,5.3024745999991865,call2,0.08472222222222223,0.10462962962962963,1,0,0,5.761312399999952,colour2,0.425,0.10185185185185185,1,0,0,6.159924300000057,number2,False,False,False,111,2,2019_Nov_08_1528,MA_Theta_Exp,3.0.7,60.16810969849727,
3,4,flow/blocks/NoThetaInAudio_NoVideo_B.csv,video/Experiment/zh_sp01_Ti_Ro_2_NoThetaInAudio_NoVideo.avi,noTheta,noVideo,sp01,Ti,Ro,2,,,,,,,,,,,,,0,1,1,1,0,25,25,9,-0.3375,-0.11342592592592593,1,0,0,5.242983000000095,call3,0.06527777777777778,-0.11203703703703703,1,0,0,5.585262299999158,colour3,0.45416666666666666,-0.10787037037037037,1,0,0,5.861261500000182,number3,True,True,False,111,2,2019_Nov_08_1528,MA_Theta_Exp,3.0.7,60.16810969849727,
3,4,flow/blocks/NoThetaInAudio_NoVideo_B.csv,video/Experiment/zh_sp01_Ti_Gr_1_NoThetaInAudio_NoVideo.avi,noTheta,noVideo,sp01,Ti,Gr,1,,,,,,,,,,,,,0,1,1,1,0,26,26,4,-0.49166666666666664,-0.0912037037037037,1,0,0,5.113182000000961,call3,0.05277777777777778,-0.09953703703703703,1,0,0,6.072330599999987,colour3,0.44027777777777777,-0.09953703703703703,1,0,0,6.342415799999799,number3,True,False,False,111,2,2019_Nov_08_1528,MA_Theta_Exp,3.0.7,60.16810969849727,
3,4,flow/blocks/NoThetaInAudio_NoVideo_B.csv,video/Experiment/zh_sp01_Ti_Ge_3_NoThetaInAudio_NoVideo.avi,noTheta,noVideo,sp01,Ti,Ge,3,,,,,,,,,,,,,0,1,1,1,0,27,27,2,-0.4986111111111111,0.10601851851851851,1,0,0,5.203395999998975,call2,0.03888888888888889,0.06435185185185185,1,0,0,5.871413400000165,colour2,0.4222222222222222,0.06574074074074074,1,0,0,6.190698899999916,number2,False,False,False,111,2,2019_Nov_08_1528,MA_Theta_Exp,3.0.7,60.16810969849727,
3,4,flow/blocks/NoThetaInAudio_NoVideo_B.csv,video/Experiment/zh_sp01_Un_Ro_4_NoThetaInAudio_NoVideo.avi,noTheta,noVideo,sp01,Un,Ro,4,,,,,,,,,,,,,0,1,1,1,0,28,28,27,-0.3472222222222222,-0.10231481481481482,1,0,0,5.364541399998416,call3,-0.008333333333333333,-0.07314814814814814,1,0,0,5.775650999999925,colour3,0.4527777777777778,-0.09398148148148149,1,0,0,6.141742999998314,number3,False,True,False,111,2,2019_Nov_08_1528,MA_Theta_Exp,3.0.7,60.16810969849727,
3,4,flow/blocks/NoThetaInAudio_NoVideo_B.csv,video/Experiment/zh_sp01_Un_We_4_NoThetaInAudio_NoVideo.avi,noTheta,noVideo,sp01,Un,We,4,,,,,,,,,,,,,0,1,1,1,0,29,29,31,-0.40555555555555556,-0.11342592592592593,1,0,0,5.262096000000383,call3,0.011111111111111112,-0.10231481481481482,1,0,0,5.619467099999383,colour3,0.4666666666666667,-0.10092592592592593,1,0,0,5.964452100000926,number3,False,False,False,111,2,2019_Nov_08_1528,MA_Theta_Exp,3.0.7,60.16810969849727,
3,4,flow/blocks/NoThetaInAudio_NoVideo_B.csv,video/Experiment/zh_sp07_Un_We_2_NoThetaInAudio_NoVideo.avi,noTheta,noVideo,sp07,Un,We,2,,,,,,,,,,,,,0,1,1,1,0,30,30,29,,,,,,,,,,,,,,,,,,,,,,NO_ANSW,NO_ANSW,NO_ANSW,111,2,2019_Nov_08_1528,MA_Theta_Exp,3.0.7,60.16810969849727,
3,4,flow/blocks/NoThetaInAudio_NoVideo_B.csv,video/Experiment/zh_sp01_Ti_Ge_4_NoThetaInAudio_NoVideo.avi,noTheta,noVideo,sp01,Ti,Ge,4,,,,,,,,,,,,,0,1,1,1,0,31,31,3,-0.4546296296296296,0.2777777777777778,1,0,0,12.746581100000185,call1,0.07314814814814814,0.30694444444444446,1,0,0,13.176625400001285,colour1,,,,,,,,False,True,NO_ANSW,111,2,2019_Nov_08_1528,MA_Theta_Exp,3.0.7,60.16810969849727,
