videoFile,condition,video,speaker,callSign,colour,number,seq,id,block,exp.thisRepN,exp.thisTrialN,exp.thisN,exp.thisIndex,training.thisRepN,training.thisTrialN,training.thisN,training.thisIndex,firstHalf.thisRepN,firstHalf.thisTrialN,firstHalf.thisN,firstHalf.thisIndex,blocksA.thisRepN,blocksA.thisTrialN,blocksA.thisN,blocksA.thisIndex,mouseClickOnCall.x,mouseClickOnCall.y,mouseClickOnCall.leftButton,mouseClickOnCall.midButton,mouseClickOnCall.rightButton,mouseClickOnCall.time,mouseClickOnCall.clicked_name,mouseClickOnColour.x,mouseClickOnColour.y,mouseClickOnColour.leftButton,mouseClickOnColour.midButton,mouseClickOnColour.rightButton,mouseClickOnColour.time,mouseClickOnColour.clicked_name,mouseClickOnNumber.x,mouseClickOnNumber.y,mouseClickOnNumber.leftButton,mouseClickOnNumber.midButton,mouseClickOnNumber.rightButton,mouseClickOnNumber.time,mouseClickOnNumber.clicked_name,callSignCorrect,colourCorrect,numberCorrect,participant,order,date,expName,psychopyVersion,frameRate,
video/Training/zh_sp01_Ad_We_4_NVocInAudio_NoVideo.avi,vocoded,noVideo,sp01,Ad,We,4,,,,,,,,0,0,0,0,,,,,,,,,-0.37407407407407406,0.3453703703703704,1,0,0,9.102023800000097,call1,0.043055555555555555,0.10648148148148148,1,0,0,9.903268200000639,colour2,0.3527777777777778,0.08796296296296297,1,0,0,10.47527269999955,number2,True,False,False,111,2,2019_Nov_08_1354,MA_Theta_Exp,3.0.7,60.144768457674516,
video/Training/zh_sp07_Ad_Ge_3_NVocInAudio_NoVideo.avi,vocoded,noVideo,sp07,Ad,Ge,3,,,,,,,,0,1,1,1,,,,,,,,,-0.3199074074074074,0.09444444444444444,1,0,0,5.0200143000001844,call2,-0.03564814814814815,0.10416666666666667,1,0,0,5.604116100000283,colour2,0.4462962962962963,0.07546296296296297,1,0,0,6.516744099999414,number2,False,False,False,111,2,2019_Nov_08_1354,MA_Theta_Exp,3.0.7,60.144768457674516,
video/Training/zh_sp01_Dr_Ro_3_NVocInAudio_GlobalThetaInVideo.avi,vocoded,plusVideo,sp01,Dr,Ro,3,,,,,,,,0,2,2,2,,,,,,,,,,,,,,,,,,,,,,,,,,,,,,NO_ANSW,NO_ANSW,NO_ANSW,111,2,2019_Nov_08_1354,MA_Theta_Exp,3.0.7,60.144768457674516,
video/Training/zh_sp07_Dr_Gr_4_NVocInAudio_GlobalThetaInVideo.avi,vocoded,plusVideo,sp07,Dr,Gr,4,,,,,,,,0,3,3,3,,,,,,,,,,,,,,,,,,,,,,,,,,,,,,NO_ANSW,NO_ANSW,NO_ANSW,111,2,2019_Nov_08_1354,MA_Theta_Exp,3.0.7,60.144768457674516,
video/Training/zh_sp01_Ti_Gr_2_NoThetaInAudio_NoVideo.avi,noTheta,noVideo,sp01,Ti,Gr,2,,,,,,,,0,4,4,4,,,,,,,,,,,,,,,,,,,,,,,,,,,,,,NO_ANSW,NO_ANSW,NO_ANSW,111,2,2019_Nov_08_1354,MA_Theta_Exp,3.0.7,60.144768457674516,
video/Training/zh_sp07_Ti_Ro_1_NoThetaInAudio_NoVideo.avi,noTheta,noVideo,sp07,Ti,Ro,1,,,,,,,,0,5,5,5,,,,,,,,,,,,,,,,,,,,,,,,,,,,,,NO_ANSW,NO_ANSW,NO_ANSW,111,2,2019_Nov_08_1354,MA_Theta_Exp,3.0.7,60.144768457674516,
video/Training/zh_sp01_Un_Ge_1_NoThetaInAudio_GlobalThetaInVideo.avi,noTheta,plusVideo,sp01,Un,Ge,1,,,,,,,,0,6,6,6,,,,,,,,,,,,,,,,,,,,,,,,,,,,,,NO_ANSW,NO_ANSW,NO_ANSW,111,2,2019_Nov_08_1354,MA_Theta_Exp,3.0.7,60.144768457674516,
video/Training/zh_sp07_Un_We_2_NoThetaInAudio_GlobalThetaInVideo.avi,noTheta,plusVideo,sp07,Un,We,2,,,,,,,,0,7,7,7,,,,,,,,,,,,,,,,,,,,,,,,,,,,,,NO_ANSW,NO_ANSW,NO_ANSW,111,2,2019_Nov_08_1354,MA_Theta_Exp,3.0.7,60.144768457674516,
video/Training/zh_sp01_Ad_Ge_1_GlobalTheta_NoVideo.avi,globalTheta,noVideo,sp01,Ad,Ge,1,,,,,,,,0,8,8,8,,,,,,,,,-0.4009259259259259,0.27824074074074073,1,0,0,11.797356000000036,call1,-0.03981481481481482,0.29305555555555557,1,0,0,12.734293999999863,colour1,0.39305555555555555,0.08148148148148149,1,0,0,13.43085549999978,number2,True,True,False,111,2,2019_Nov_08_1354,MA_Theta_Exp,3.0.7,60.144768457674516,
video/Training/zh_sp07_Ad_Ro_3_GlobalTheta_NoVideo.avi,globalTheta,noVideo,sp07,Ad,Ro,3,,,,,,,,0,9,9,9,,,,,,,,,-0.38333333333333336,0.12268518518518519,1,0,0,5.526177599999755,call2,0.0,0.09861111111111111,1,0,0,6.16112880000037,colour2,0.35833333333333334,0.09675925925925925,1,0,0,6.716341800000009,number2,False,False,False,111,2,2019_Nov_08_1354,MA_Theta_Exp,3.0.7,60.144768457674516,
video/Experiment/zh_sp01_Ad_Ro_4_NoThetaInAudio_GlobalThetaInVideo.avi,noTheta,plusVideo,sp01,Ad,Ro,4,0,3,flow/blocks/NoThetaInAudio_GlobalThetaInVideo_A.csv,,,,,,,,,0,0,0,0,0,0,0,11,0.35833333333333334,0.09675925925925925,1,0,0,4.8310788999997385,call2,0.006481481481481481,0.09398148148148149,1,0,0,6.737818700000389,colour2,0.39305555555555555,0.08518518518518518,1,0,0,7.2884328999998615,number2,False,False,False,111,2,2019_Nov_08_1354,MA_Theta_Exp,3.0.7,60.144768457674516,
video/Experiment/zh_sp07_Dr_Gr_1_NoThetaInAudio_GlobalThetaInVideo.avi,noTheta,plusVideo,sp07,Dr,Gr,1,0,3,flow/blocks/NoThetaInAudio_GlobalThetaInVideo_A.csv,,,,,,,,,0,0,0,0,0,1,1,20,0.39305555555555555,0.08518518518518518,1,0,0,4.103448099999696,call3,0.001851851851851852,-0.12638888888888888,1,0,0,6.911584699999366,colour3,0.3800925925925926,-0.15833333333333333,1,0,0,7.438122900000053,number3,False,False,False,111,2,2019_Nov_08_1354,MA_Theta_Exp,3.0.7,60.144768457674516,
video/Experiment/zh_sp01_Dr_Ge_2_NoThetaInAudio_GlobalThetaInVideo.avi,noTheta,plusVideo,sp01,Dr,Ge,2,0,3,flow/blocks/NoThetaInAudio_GlobalThetaInVideo_A.csv,,,,,,,,,0,0,0,0,0,2,2,17,-0.3375,-0.1175925925925926,1,0,0,6.129316500000641,call3,-0.020833333333333332,-0.11712962962962963,1,0,0,6.816092699999899,colour3,0.41712962962962963,-0.12916666666666668,1,0,0,7.3492035999997825,number3,False,False,False,111,2,2019_Nov_08_1354,MA_Theta_Exp,3.0.7,60.144768457674516,
video/Experiment/zh_sp07_Ad_Ge_1_NoThetaInAudio_GlobalThetaInVideo.avi,noTheta,plusVideo,sp07,Ad,Ge,1,0,3,flow/blocks/NoThetaInAudio_GlobalThetaInVideo_A.csv,,,,,,,,,0,0,0,0,0,3,3,0,-0.4824074074074074,-0.1675925925925926,1,0,0,4.489903200000299,call3,0.047685185185185185,-0.11064814814814815,1,0,0,5.283796800000346,colour3,0.4097222222222222,-0.08935185185185185,1,0,0,5.999786399999721,number3,False,False,False,111,2,2019_Nov_08_1354,MA_Theta_Exp,3.0.7,60.144768457674516,
video/Experiment/zh_sp07_Dr_We_1_NoThetaInAudio_GlobalThetaInVideo.avi,noTheta,plusVideo,sp07,Dr,We,1,0,3,flow/blocks/NoThetaInAudio_GlobalThetaInVideo_A.csv,,,,,,,,,0,0,0,0,0,4,4,28,-0.38333333333333336,-0.14444444444444443,1,0,0,5.124829200000022,call3,0.01574074074074074,-0.10185185185185185,1,0,0,5.735786000000189,colour3,0.3824074074074074,-0.14444444444444443,1,0,0,6.213461299999835,number3,False,False,False,111,2,2019_Nov_08_1354,MA_Theta_Exp,3.0.7,60.144768457674516,
video/Experiment/zh_sp01_Ad_Ro_2_NoThetaInAudio_GlobalThetaInVideo.avi,noTheta,plusVideo,sp01,Ad,Ro,2,0,3,flow/blocks/NoThetaInAudio_GlobalThetaInVideo_A.csv,,,,,,,,,0,0,0,0,0,5,5,9,-0.42916666666666664,-0.07175925925925926,1,0,0,5.138479799999914,call3,-0.03425925925925926,-0.09212962962962963,1,0,0,5.824728300000061,colour3,0.4546296296296296,-0.17222222222222222,1,0,0,6.317772200000036,number3,False,True,False,111,2,2019_Nov_08_1354,MA_Theta_Exp,3.0.7,60.144768457674516,
video/Experiment/zh_sp01_Ad_Ge_3_NoThetaInAudio_GlobalThetaInVideo.avi,noTheta,plusVideo,sp01,Ad,Ge,3,0,3,flow/blocks/NoThetaInAudio_GlobalThetaInVideo_A.csv,,,,,,,,,0,0,0,0,0,6,6,2,-0.28888888888888886,-0.09212962962962963,1,0,0,4.872174999999515,call3,0.013425925925925926,-0.09166666666666666,1,0,0,5.755359200000385,colour3,0.4083333333333333,-0.13935185185185187,1,0,0,6.513001700000132,number3,False,False,True,111,2,2019_Nov_08_1354,MA_Theta_Exp,3.0.7,60.144768457674516,
video/Experiment/zh_sp01_Dr_We_4_NoThetaInAudio_GlobalThetaInVideo.avi,noTheta,plusVideo,sp01,Dr,We,4,0,3,flow/blocks/NoThetaInAudio_GlobalThetaInVideo_A.csv,,,,,,,,,0,0,0,0,0,7,7,31,-0.3527777777777778,-0.08888888888888889,1,0,0,5.251924800000779,call3,0.011574074074074073,-0.12916666666666668,1,0,0,5.760617800000546,colour3,0.35462962962962963,-0.07407407407407407,1,0,0,6.503287399999863,number3,False,False,False,111,2,2019_Nov_08_1354,MA_Theta_Exp,3.0.7,60.144768457674516,
video/Experiment/zh_sp01_Dr_Gr_3_NoThetaInAudio_GlobalThetaInVideo.avi,noTheta,plusVideo,sp01,Dr,Gr,3,0,3,flow/blocks/NoThetaInAudio_GlobalThetaInVideo_A.csv,,,,,,,,,0,0,0,0,0,8,8,22,-0.36944444444444446,-0.13240740740740742,1,0,0,4.996533800000179,call3,-0.0824074074074074,-0.13657407407407407,1,0,0,5.447540099999969,colour3,0.11805555555555555,-0.13240740740740742,1,0,0,5.94039740000062,number3,False,False,True,111,2,2019_Nov_08_1354,MA_Theta_Exp,3.0.7,60.144768457674516,
video/Experiment/zh_sp07_Ad_Gr_4_NoThetaInAudio_GlobalThetaInVideo.avi,noTheta,plusVideo,sp07,Ad,Gr,4,0,3,flow/blocks/NoThetaInAudio_GlobalThetaInVideo_A.csv,,,,,,,,,0,0,0,0,0,9,9,7,-0.3287037037037037,0.06666666666666667,1,0,0,4.874387300000308,call2,0.032407407407407406,0.026851851851851852,1,0,0,5.428507999999965,colour2,0.48009259259259257,0.12083333333333333,1,0,0,6.169986400000198,number2,False,True,False,111,2,2019_Nov_08_1354,MA_Theta_Exp,3.0.7,60.144768457674516,
video/Experiment/zh_sp01_Dr_We_3_NoThetaInAudio_GlobalThetaInVideo.avi,noTheta,plusVideo,sp01,Dr,We,3,0,3,flow/blocks/NoThetaInAudio_GlobalThetaInVideo_A.csv,,,,,,,,,0,0,0,0,0,10,10,30,-0.3814814814814815,0.30277777777777776,1,0,0,5.22282180000002,call1,-0.012037037037037037,0.2986111111111111,1,0,0,5.843275100000028,colour1,0.3939814814814815,0.33240740740740743,1,0,0,6.5638802000003125,number1,False,False,False,111,2,2019_Nov_08_1354,MA_Theta_Exp,3.0.7,60.144768457674516,
video/Experiment/zh_sp07_Dr_Ge_1_NoThetaInAudio_GlobalThetaInVideo.avi,noTheta,plusVideo,sp07,Dr,Ge,1,0,3,flow/blocks/NoThetaInAudio_GlobalThetaInVideo_A.csv,,,,,,,,,0,0,0,0,0,11,11,16,-0.37777777777777777,0.262037037037037,1,0,0,4.881463300000178,call1,0.004166666666666667,0.30092592592592593,1,0,0,5.472852400000193,colour1,0.38842592592592595,0.31805555555555554,1,0,0,6.04088640000009,number1,False,True,True,111,2,2019_Nov_08_1354,MA_Theta_Exp,3.0.7,60.144768457674516,
video/Experiment/zh_sp01_Ad_Ro_3_NoThetaInAudio_GlobalThetaInVideo.avi,noTheta,plusVideo,sp01,Ad,Ro,3,0,3,flow/blocks/NoThetaInAudio_GlobalThetaInVideo_A.csv,,,,,,,,,0,0,0,0,0,12,12,10,-0.3925925925925926,0.15694444444444444,1,0,0,5.155898099999831,call2,0.01898148148148148,0.1699074074074074,1,0,0,5.638604699999632,colour2,0.22870370370370371,0.16157407407407406,1,0,0,6.08445859999938,number2,False,False,False,111,2,2019_Nov_08_1354,MA_Theta_Exp,3.0.7,60.144768457674516,
video/Experiment/zh_sp07_Dr_Ro_4_NoThetaInAudio_GlobalThetaInVideo.avi,noTheta,plusVideo,sp07,Dr,Ro,4,0,3,flow/blocks/NoThetaInAudio_GlobalThetaInVideo_A.csv,,,,,,,,,0,0,0,0,0,13,13,27,-0.41435185185185186,0.10046296296296296,1,0,0,4.837003800000275,call2,0.019444444444444445,0.11990740740740741,1,0,0,5.498413199999959,colour2,0.44675925925925924,0.13842592592592592,1,0,0,6.010582100000647,number2,True,False,False,111,2,2019_Nov_08_1354,MA_Theta_Exp,3.0.7,60.144768457674516,
video/Experiment/zh_sp01_Ad_Ge_4_NoThetaInAudio_GlobalThetaInVideo.avi,noTheta,plusVideo,sp01,Ad,Ge,4,0,3,flow/blocks/NoThetaInAudio_GlobalThetaInVideo_A.csv,,,,,,,,,0,0,0,0,0,14,14,3,-0.375,0.2523148148148148,1,0,0,5.783743300000424,call1,-0.000925925925925926,0.08194444444444444,1,0,0,6.414199099999678,colour2,0.42916666666666664,0.05324074074074074,1,0,0,6.962223999999878,number2,True,False,False,111,2,2019_Nov_08_1354,MA_Theta_Exp,3.0.7,60.144768457674516,
video/Experiment/zh_sp07_Ad_We_4_NoThetaInAudio_GlobalThetaInVideo.avi,noTheta,plusVideo,sp07,Ad,We,4,0,3,flow/blocks/NoThetaInAudio_GlobalThetaInVideo_A.csv,,,,,,,,,0,0,0,0,0,15,15,15,-0.39537037037037037,0.26435185185185184,1,0,0,4.80458710000039,call1,-0.001851851851851852,0.2916666666666667,1,0,0,5.440927199999351,colour1,0.4064814814814815,0.2986111111111111,1,0,0,6.162441700000272,number1,True,False,False,111,2,2019_Nov_08_1354,MA_Theta_Exp,3.0.7,60.144768457674516,
video/Experiment/zh_sp07_Dr_Ro_3_NoThetaInAudio_GlobalThetaInVideo.avi,noTheta,plusVideo,sp07,Dr,Ro,3,0,3,flow/blocks/NoThetaInAudio_GlobalThetaInVideo_A.csv,,,,,,,,,0,0,0,0,0,16,16,26,-0.36944444444444446,0.3194444444444444,1,0,0,5.356722000000445,call1,0.05,0.18981481481481483,1,0,0,5.867921000000024,colour2,0.3490740740740741,0.1037037037037037,1,0,0,6.468092900000556,number2,False,False,False,111,2,2019_Nov_08_1354,MA_Theta_Exp,3.0.7,60.144768457674516,
video/Experiment/zh_sp07_Dr_We_2_NoThetaInAudio_GlobalThetaInVideo.avi,noTheta,plusVideo,sp07,Dr,We,2,0,3,flow/blocks/NoThetaInAudio_GlobalThetaInVideo_A.csv,,,,,,,,,0,0,0,0,0,17,17,29,-0.42268518518518516,0.0763888888888889,1,0,0,5.3002431000004435,call2,-0.040740740740740744,0.08888888888888889,1,0,0,5.864064800000051,colour2,0.3773148148148148,0.07546296296296297,1,0,0,6.412731800000074,number2,True,False,True,111,2,2019_Nov_08_1354,MA_Theta_Exp,3.0.7,60.144768457674516,
video/Experiment/zh_sp01_Dr_Ro_2_NoThetaInAudio_GlobalThetaInVideo.avi,noTheta,plusVideo,sp01,Dr,Ro,2,0,3,flow/blocks/NoThetaInAudio_GlobalThetaInVideo_A.csv,,,,,,,,,0,0,0,0,0,18,18,25,-0.3976851851851852,-0.07175925925925926,1,0,0,5.03361810000024,call3,0.001851851851851852,-0.12175925925925926,1,0,0,5.6061399000000165,colour3,0.38796296296296295,0.125,1,0,0,6.288636100000076,number2,False,True,True,111,2,2019_Nov_08_1354,MA_Theta_Exp,3.0.7,60.144768457674516,
video/Experiment/zh_sp07_Dr_Gr_4_NoThetaInAudio_GlobalThetaInVideo.avi,noTheta,plusVideo,sp07,Dr,Gr,4,0,3,flow/blocks/NoThetaInAudio_GlobalThetaInVideo_A.csv,,,,,,,,,0,0,0,0,0,19,19,23,-0.3611111111111111,0.0787037037037037,1,0,0,4.751973800000087,call2,-0.07453703703703704,0.046296296296296294,1,0,0,5.181563899999674,colour2,0.1763888888888889,0.07222222222222222,1,0,0,5.6913580999998885,number2,True,True,False,111,2,2019_Nov_08_1354,MA_Theta_Exp,3.0.7,60.144768457674516,
video/Experiment/zh_sp07_Ad_Ro_1_NoThetaInAudio_GlobalThetaInVideo.avi,noTheta,plusVideo,sp07,Ad,Ro,1,0,3,flow/blocks/NoThetaInAudio_GlobalThetaInVideo_A.csv,,,,,,,,,0,0,0,0,0,20,20,8,-0.37916666666666665,0.12129629629629629,1,0,0,4.284119800000553,call2,-0.026851851851851852,0.3282407407407407,1,0,0,4.964370700000472,colour1,0.44074074074074077,0.3416666666666667,1,0,0,5.520495200000369,number1,False,False,True,111,2,2019_Nov_08_1354,MA_Theta_Exp,3.0.7,60.144768457674516,
video/Experiment/zh_sp01_Ad_Gr_3_NoThetaInAudio_GlobalThetaInVideo.avi,noTheta,plusVideo,sp01,Ad,Gr,3,0,3,flow/blocks/NoThetaInAudio_GlobalThetaInVideo_A.csv,,,,,,,,,0,0,0,0,0,21,21,6,-0.41388888888888886,-0.0787037037037037,1,0,0,5.2252785999999105,call3,-0.12083333333333333,-0.10648148148148148,1,0,0,5.6346545999995215,colour3,0.36342592592592593,-0.1125,1,0,0,6.591208700000607,number3,False,False,True,111,2,2019_Nov_08_1354,MA_Theta_Exp,3.0.7,60.144768457674516,
video/Experiment/zh_sp01_Dr_Ge_4_NoThetaInAudio_GlobalThetaInVideo.avi,noTheta,plusVideo,sp01,Dr,Ge,4,0,3,flow/blocks/NoThetaInAudio_GlobalThetaInVideo_A.csv,,,,,,,,,0,0,0,0,0,22,22,19,-0.43703703703703706,0.1125,1,0,0,5.221270500000173,call2,0.0,0.09722222222222222,1,0,0,5.7435254000001805,colour2,0.39861111111111114,-0.13842592592592592,1,0,0,6.3127951999995275,number3,True,False,False,111,2,2019_Nov_08_1354,MA_Theta_Exp,3.0.7,60.144768457674516,
video/Experiment/zh_sp07_Ad_Ge_2_NoThetaInAudio_GlobalThetaInVideo.avi,noTheta,plusVideo,sp07,Ad,Ge,2,0,3,flow/blocks/NoThetaInAudio_GlobalThetaInVideo_A.csv,,,,,,,,,0,0,0,0,0,23,23,1,-0.3125,0.11018518518518519,1,0,0,4.920803299999534,call2,0.06805555555555555,0.08055555555555556,1,0,0,5.49671490000037,colour2,0.337037037037037,0.08101851851851852,1,0,0,6.091472199999771,number2,False,False,True,111,2,2019_Nov_08_1354,MA_Theta_Exp,3.0.7,60.144768457674516,
video/Experiment/zh_sp07_Dr_Ro_1_NoThetaInAudio_GlobalThetaInVideo.avi,noTheta,plusVideo,sp07,Dr,Ro,1,0,3,flow/blocks/NoThetaInAudio_GlobalThetaInVideo_A.csv,,,,,,,,,0,0,0,0,0,24,24,24,-0.4115740740740741,0.06527777777777778,1,0,0,5.185962599999584,call2,0.00787037037037037,-0.08194444444444444,1,0,0,5.756785900000068,colour3,0.44722222222222224,-0.13240740740740742,1,0,0,6.323025699999562,number3,True,True,False,111,2,2019_Nov_08_1354,MA_Theta_Exp,3.0.7,60.144768457674516,
video/Experiment/zh_sp01_Ad_Gr_2_NoThetaInAudio_GlobalThetaInVideo.avi,noTheta,plusVideo,sp01,Ad,Gr,2,0,3,flow/blocks/NoThetaInAudio_GlobalThetaInVideo_A.csv,,,,,,,,,0,0,0,0,0,25,25,5,-0.4115740740740741,0.26342592592592595,1,0,0,5.144019500000468,call1,0.017592592592592594,0.1162037037037037,1,0,0,5.7153008000004775,colour2,0.3763888888888889,0.08194444444444444,1,0,0,6.245444000000134,number2,True,True,True,111,2,2019_Nov_08_1354,MA_Theta_Exp,3.0.7,60.144768457674516,
video/Experiment/zh_sp01_Dr_Ge_3_NoThetaInAudio_GlobalThetaInVideo.avi,noTheta,plusVideo,sp01,Dr,Ge,3,0,3,flow/blocks/NoThetaInAudio_GlobalThetaInVideo_A.csv,,,,,,,,,0,0,0,0,0,26,26,18,-0.37222222222222223,0.3212962962962963,1,0,0,5.009892399999444,call1,-0.037037037037037035,0.13518518518518519,1,0,0,5.578653100000338,colour2,0.41435185185185186,0.10694444444444444,1,0,0,6.261010400000487,number2,False,False,False,111,2,2019_Nov_08_1354,MA_Theta_Exp,3.0.7,60.144768457674516,
video/Experiment/zh_sp01_Dr_Gr_2_NoThetaInAudio_GlobalThetaInVideo.avi,noTheta,plusVideo,sp01,Dr,Gr,2,0,3,flow/blocks/NoThetaInAudio_GlobalThetaInVideo_A.csv,,,,,,,,,0,0,0,0,0,27,27,21,-0.3611111111111111,0.10601851851851851,1,0,0,6.008728099999644,call2,0.008796296296296297,0.125,1,0,0,6.557111999999506,colour2,0.38472222222222224,0.12268518518518519,1,0,0,7.109530200000336,number2,True,True,True,111,2,2019_Nov_08_1354,MA_Theta_Exp,3.0.7,60.144768457674516,
video/Experiment/zh_sp07_Ad_We_3_NoThetaInAudio_GlobalThetaInVideo.avi,noTheta,plusVideo,sp07,Ad,We,3,0,3,flow/blocks/NoThetaInAudio_GlobalThetaInVideo_A.csv,,,,,,,,,0,0,0,0,0,28,28,14,-0.43842592592592594,0.07268518518518519,1,0,0,4.7671024000001125,call2,0.016203703703703703,0.1259259259259259,1,0,0,5.425979699999516,colour2,0.4601851851851852,0.1337962962962963,1,0,0,5.984765699999116,number2,False,False,False,111,2,2019_Nov_08_1354,MA_Theta_Exp,3.0.7,60.144768457674516,
video/Experiment/zh_sp01_Ad_Gr_1_NoThetaInAudio_GlobalThetaInVideo.avi,noTheta,plusVideo,sp01,Ad,Gr,1,0,3,flow/blocks/NoThetaInAudio_GlobalThetaInVideo_A.csv,,,,,,,,,0,0,0,0,0,29,29,4,-0.37824074074074077,0.09722222222222222,1,0,0,5.765474499999982,call2,-0.08518518518518518,0.10833333333333334,1,0,0,6.2747462000006635,colour2,0.3194444444444444,0.12685185185185185,1,0,0,6.963909299999614,number2,False,True,False,111,2,2019_Nov_08_1354,MA_Theta_Exp,3.0.7,60.144768457674516,
video/Experiment/zh_sp07_Ad_We_1_NoThetaInAudio_GlobalThetaInVideo.avi,noTheta,plusVideo,sp07,Ad,We,1,0,3,flow/blocks/NoThetaInAudio_GlobalThetaInVideo_A.csv,,,,,,,,,0,0,0,0,0,30,30,12,-0.4236111111111111,0.07824074074074074,1,0,0,4.683759700000337,call2,0.01712962962962963,0.10324074074074074,1,0,0,5.333005999999841,colour2,0.42916666666666664,0.13287037037037036,1,0,0,5.900884499999847,number2,False,False,False,111,2,2019_Nov_08_1354,MA_Theta_Exp,3.0.7,60.144768457674516,
video/Experiment/zh_sp07_Ad_We_2_NoThetaInAudio_GlobalThetaInVideo.avi,noTheta,plusVideo,sp07,Ad,We,2,0,3,flow/blocks/NoThetaInAudio_GlobalThetaInVideo_A.csv,,,,,,,,,0,0,0,0,0,31,31,13,-0.5254629629629629,0.13333333333333333,1,0,0,4.375865699999849,call2,0.04398148148148148,0.10601851851851851,1,0,0,5.457778699999835,colour2,0.38287037037037036,0.10231481481481482,1,0,0,6.145816299999751,number2,False,False,True,111,2,2019_Nov_08_1354,MA_Theta_Exp,3.0.7,60.144768457674516,
video/Experiment/zh_sp01_Ad_Ge_3_GlobalTheta_NoVideo.avi,globalTheta,noVideo,sp01,Ad,Ge,3,1,5,flow/blocks/GlobalTheta_NoVideo_A.csv,,,,,,,,,0,1,1,1,0,0,0,2,-0.37453703703703706,0.3125,1,0,0,5.849352299999737,call1,-0.016203703703703703,0.35694444444444445,1,0,0,6.490458599999329,colour1,0.4,0.3375,1,0,0,7.0408384000002115,number1,True,True,False,111,2,2019_Nov_08_1354,MA_Theta_Exp,3.0.7,60.144768457674516,
video/Experiment/zh_sp01_Ad_Ge_1_GlobalTheta_NoVideo.avi,globalTheta,noVideo,sp01,Ad,Ge,1,1,5,flow/blocks/GlobalTheta_NoVideo_A.csv,,,,,,,,,0,1,1,1,0,1,1,0,-0.3476851851851852,0.08935185185185185,1,0,0,5.606257599999481,call2,-0.06157407407407407,0.055092592592592596,1,0,0,6.044914299999618,colour2,0.412962962962963,0.10138888888888889,1,0,0,6.770396199999595,number2,False,False,False,111,2,2019_Nov_08_1354,MA_Theta_Exp,3.0.7,60.144768457674516,
video/Experiment/zh_sp07_Dr_We_4_GlobalTheta_NoVideo.avi,globalTheta,noVideo,sp07,Dr,We,4,1,5,flow/blocks/GlobalTheta_NoVideo_A.csv,,,,,,,,,0,1,1,1,0,2,2,31,-0.35324074074074074,0.11018518518518519,1,0,0,4.837483399999655,call2,0.10416666666666667,0.11990740740740741,1,0,0,5.3567683999999645,colour2,0.3875,0.1162037037037037,1,0,0,6.346248099999684,number2,True,False,False,111,2,2019_Nov_08_1354,MA_Theta_Exp,3.0.7,60.144768457674516,
video/Experiment/zh_sp01_Dr_Gr_1_GlobalTheta_NoVideo.avi,globalTheta,noVideo,sp01,Dr,Gr,1,1,5,flow/blocks/GlobalTheta_NoVideo_A.csv,,,,,,,,,0,1,1,1,0,3,3,20,-0.4300925925925926,0.10694444444444444,1,0,0,5.22750779999933,call2,-0.020370370370370372,-0.13055555555555556,1,0,0,5.793982600000163,colour3,0.45601851851851855,-0.11851851851851852,1,0,0,6.397409799999878,number3,True,False,False,111,2,2019_Nov_08_1354,MA_Theta_Exp,3.0.7,60.144768457674516,
video/Experiment/zh_sp07_Dr_Ge_2_GlobalTheta_NoVideo.avi,globalTheta,noVideo,sp07,Dr,Ge,2,1,5,flow/blocks/GlobalTheta_NoVideo_A.csv,,,,,,,,,0,1,1,1,0,4,4,17,-0.449537037037037,-0.13287037037037036,1,0,0,4.909261899999365,call3,0.03611111111111111,-0.10648148148148148,1,0,0,5.42444869999963,colour3,0.5013888888888889,-0.07037037037037037,1,0,0,5.994651999999405,number3,False,False,False,111,2,2019_Nov_08_1354,MA_Theta_Exp,3.0.7,60.144768457674516,
video/Experiment/zh_sp01_Ad_Gr_1_GlobalTheta_NoVideo.avi,globalTheta,noVideo,sp01,Ad,Gr,1,1,5,flow/blocks/GlobalTheta_NoVideo_A.csv,,,,,,,,,0,1,1,1,0,5,5,4,-0.4074074074074074,0.12453703703703704,1,0,0,5.233016700000007,call2,0.07083333333333333,0.059722222222222225,1,0,0,5.800558399999318,colour2,0.5305555555555556,0.12962962962962962,1,0,0,6.324916900000062,number2,False,True,False,111,2,2019_Nov_08_1354,MA_Theta_Exp,3.0.7,60.144768457674516,
video/Experiment/zh_sp07_Dr_Gr_4_GlobalTheta_NoVideo.avi,globalTheta,noVideo,sp07,Dr,Gr,4,1,5,flow/blocks/GlobalTheta_NoVideo_A.csv,,,,,,,,,0,1,1,1,0,6,6,23,-0.4449074074074074,0.07453703703703704,1,0,0,4.640810599999895,call2,0.02361111111111111,0.1162037037037037,1,0,0,5.20783930000016,colour2,0.44583333333333336,0.10648148148148148,1,0,0,5.778384299999743,number2,True,True,False,111,2,2019_Nov_08_1354,MA_Theta_Exp,3.0.7,60.144768457674516,
video/Experiment/zh_sp01_Dr_Gr_2_GlobalTheta_NoVideo.avi,globalTheta,noVideo,sp01,Dr,Gr,2,1,5,flow/blocks/GlobalTheta_NoVideo_A.csv,,,,,,,,,0,1,1,1,0,7,7,21,-0.325,0.2800925925925926,1,0,0,5.37935540000035,call1,-0.06574074074074074,0.3060185185185185,1,0,0,5.845322600000145,colour1,0.4263888888888889,0.1,1,0,0,6.4342595999996774,number2,False,False,True,111,2,2019_Nov_08_1354,MA_Theta_Exp,3.0.7,60.144768457674516,
video/Experiment/zh_sp07_Ad_Ro_2_GlobalTheta_NoVideo.avi,globalTheta,noVideo,sp07,Ad,Ro,2,1,5,flow/blocks/GlobalTheta_NoVideo_A.csv,,,,,,,,,0,1,1,1,0,8,8,9,-0.4185185185185185,0.30787037037037035,1,0,0,4.793859299999895,call1,0.014351851851851852,0.1087962962962963,1,0,0,5.328834299999471,colour2,0.3648148148148148,0.060648148148148145,1,0,0,5.845102399999632,number2,True,False,True,111,2,2019_Nov_08_1354,MA_Theta_Exp,3.0.7,60.144768457674516,
video/Experiment/zh_sp07_Ad_Ro_1_GlobalTheta_NoVideo.avi,globalTheta,noVideo,sp07,Ad,Ro,1,1,5,flow/blocks/GlobalTheta_NoVideo_A.csv,,,,,,,,,0,1,1,1,0,9,9,8,-0.4324074074074074,0.29814814814814816,1,0,0,4.625422099999923,call1,0.023148148148148147,0.0962962962962963,1,0,0,5.291653799999949,colour2,0.4097222222222222,0.12638888888888888,1,0,0,5.8870717999998305,number2,True,False,False,111,2,2019_Nov_08_1354,MA_Theta_Exp,3.0.7,60.144768457674516,
video/Experiment/zh_sp07_Ad_We_4_GlobalTheta_NoVideo.avi,globalTheta,noVideo,sp07,Ad,We,4,1,5,flow/blocks/GlobalTheta_NoVideo_A.csv,,,,,,,,,0,1,1,1,0,10,10,15,-0.4597222222222222,0.32175925925925924,1,0,0,4.710908600000039,call1,-0.0824074074074074,0.1824074074074074,1,0,0,5.236933500000305,colour2,0.3962962962962963,0.1439814814814815,1,0,0,6.066536499999529,number2,True,False,False,111,2,2019_Nov_08_1354,MA_Theta_Exp,3.0.7,60.144768457674516,
video/Experiment/zh_sp01_Dr_We_1_GlobalTheta_NoVideo.avi,globalTheta,noVideo,sp01,Dr,We,1,1,5,flow/blocks/GlobalTheta_NoVideo_A.csv,,,,,,,,,0,1,1,1,0,11,11,28,-0.35555555555555557,0.044444444444444446,1,0,0,5.310503300000164,call2,0.08935185185185185,0.09675925925925925,1,0,0,5.851878200000101,colour2,0.47453703703703703,0.1,1,0,0,6.32452529999955,number2,True,False,False,111,2,2019_Nov_08_1354,MA_Theta_Exp,3.0.7,60.144768457674516,
video/Experiment/zh_sp01_Dr_We_2_GlobalTheta_NoVideo.avi,globalTheta,noVideo,sp01,Dr,We,2,1,5,flow/blocks/GlobalTheta_NoVideo_A.csv,,,,,,,,,0,1,1,1,0,12,12,29,-0.449537037037037,0.2712962962962963,1,0,0,5.574941299999409,call1,-0.03194444444444444,0.11435185185185186,1,0,0,6.781909399999677,colour2,0.37037037037037035,-0.1388888888888889,1,0,0,7.5499132000004465,number3,False,False,False,111,2,2019_Nov_08_1354,MA_Theta_Exp,3.0.7,60.144768457674516,
video/Experiment/zh_sp07_Ad_Gr_4_GlobalTheta_NoVideo.avi,globalTheta,noVideo,sp07,Ad,Gr,4,1,5,flow/blocks/GlobalTheta_NoVideo_A.csv,,,,,,,,,0,1,1,1,0,13,13,7,-0.3787037037037037,0.08518518518518518,1,0,0,5.062901000000238,call2,-0.11203703703703703,0.053703703703703705,1,0,0,5.619010399999752,colour2,0.34814814814814815,0.047685185185185185,1,0,0,6.671091700000034,number2,False,True,False,111,2,2019_Nov_08_1354,MA_Theta_Exp,3.0.7,60.144768457674516,
video/Experiment/zh_sp01_Dr_Ge_3_GlobalTheta_NoVideo.avi,globalTheta,noVideo,sp01,Dr,Ge,3,1,5,flow/blocks/GlobalTheta_NoVideo_A.csv,,,,,,,,,0,1,1,1,0,14,14,18,-0.3263888888888889,0.0699074074074074,1,0,0,5.568470799999886,call2,0.001388888888888889,0.04953703703703704,1,0,0,6.101628000000346,colour2,0.3763888888888889,0.12916666666666668,1,0,0,6.693915699999707,number2,True,False,False,111,2,2019_Nov_08_1354,MA_Theta_Exp,3.0.7,60.144768457674516,
video/Experiment/zh_sp01_Ad_We_3_GlobalTheta_NoVideo.avi,globalTheta,noVideo,sp01,Ad,We,3,1,5,flow/blocks/GlobalTheta_NoVideo_A.csv,,,,,,,,,0,1,1,1,0,15,15,14,0.008796296296296297,0.08888888888888889,1,0,0,4.87292190000062,call2,0.0375,0.06805555555555555,1,0,0,6.130762499999946,colour2,0.3625,0.10740740740740741,1,0,0,6.677711600000293,number2,False,False,False,111,2,2019_Nov_08_1354,MA_Theta_Exp,3.0.7,60.144768457674516,
video/Experiment/zh_sp01_Ad_We_2_GlobalTheta_NoVideo.avi,globalTheta,noVideo,sp01,Ad,We,2,1,5,flow/blocks/GlobalTheta_NoVideo_A.csv,,,,,,,,,0,1,1,1,0,16,16,13,-0.4115740740740741,0.03518518518518519,1,0,0,5.320827399999871,call2,0.002777777777777778,-0.09166666666666666,1,0,0,6.11270279999917,colour3,0.4439814814814815,-0.10277777777777777,1,0,0,6.632795200000146,number3,False,False,False,111,2,2019_Nov_08_1354,MA_Theta_Exp,3.0.7,60.144768457674516,
video/Experiment/zh_sp07_Dr_Ro_4_GlobalTheta_NoVideo.avi,globalTheta,noVideo,sp07,Dr,Ro,4,1,5,flow/blocks/GlobalTheta_NoVideo_A.csv,,,,,,,,,0,1,1,1,0,17,17,27,-0.31342592592592594,0.29907407407407405,1,0,0,5.061428599999999,call1,0.1162037037037037,0.3282407407407407,1,0,0,5.538730700000087,colour1,0.35,0.3212962962962963,1,0,0,6.582304199999271,number1,False,False,False,111,2,2019_Nov_08_1354,MA_Theta_Exp,3.0.7,60.144768457674516,
video/Experiment/zh_sp01_Ad_Ro_4_GlobalTheta_NoVideo.avi,globalTheta,noVideo,sp01,Ad,Ro,4,1,5,flow/blocks/GlobalTheta_NoVideo_A.csv,,,,,,,,,0,1,1,1,0,18,18,11,-0.38842592592592595,0.3824074074074074,1,0,0,5.14283020000039,call1,-0.10740740740740741,0.3611111111111111,1,0,0,5.657292300000336,colour1,0.39444444444444443,0.26342592592592595,1,0,0,6.7295326000003115,number1,True,False,False,111,2,2019_Nov_08_1354,MA_Theta_Exp,3.0.7,60.144768457674516,
video/Experiment/zh_sp07_Ad_Gr_2_GlobalTheta_NoVideo.avi,globalTheta,noVideo,sp07,Ad,Gr,2,1,5,flow/blocks/GlobalTheta_NoVideo_A.csv,,,,,,,,,0,1,1,1,0,19,19,5,-0.3597222222222222,0.29212962962962963,1,0,0,4.8535839999995005,call1,-0.008796296296296297,0.2712962962962963,1,0,0,5.389395700000023,colour1,0.3976851851851852,0.3037037037037037,1,0,0,6.31158460000006,number1,True,False,False,111,2,2019_Nov_08_1354,MA_Theta_Exp,3.0.7,60.144768457674516,
video/Experiment/zh_sp01_Ad_Ge_2_GlobalTheta_NoVideo.avi,globalTheta,noVideo,sp01,Ad,Ge,2,1,5,flow/blocks/GlobalTheta_NoVideo_A.csv,,,,,,,,,0,1,1,1,0,20,20,1,-0.33240740740740743,0.3277777777777778,1,0,0,5.470864800000527,call1,-0.08796296296296297,0.29907407407407405,1,0,0,6.009195599999657,colour1,0.34629629629629627,0.15787037037037038,1,0,0,6.925058299999364,number2,True,True,True,111,2,2019_Nov_08_1354,MA_Theta_Exp,3.0.7,60.144768457674516,
video/Experiment/zh_sp01_Dr_Ro_2_GlobalTheta_NoVideo.avi,globalTheta,noVideo,sp01,Dr,Ro,2,1,5,flow/blocks/GlobalTheta_NoVideo_A.csv,,,,,,,,,0,1,1,1,0,21,21,25,-0.4046296296296296,0.30324074074074076,1,0,0,5.501630800000385,call1,-0.024074074074074074,0.300462962962963,1,0,0,6.080133299999943,colour1,0.4217592592592593,0.34444444444444444,1,0,0,6.8623460999997405,number1,False,False,False,111,2,2019_Nov_08_1354,MA_Theta_Exp,3.0.7,60.144768457674516,
video/Experiment/zh_sp01_Dr_Ro_3_GlobalTheta_NoVideo.avi,globalTheta,noVideo,sp01,Dr,Ro,3,1,5,flow/blocks/GlobalTheta_NoVideo_A.csv,,,,,,,,,0,1,1,1,0,22,22,26,-0.45740740740740743,0.2912037037037037,1,0,0,5.627423799999633,call1,0.0125,0.30648148148148147,1,0,0,6.164702600000055,colour1,0.412962962962963,0.06712962962962964,1,0,0,6.853651499999614,number2,False,False,False,111,2,2019_Nov_08_1354,MA_Theta_Exp,3.0.7,60.144768457674516,
video/Experiment/zh_sp07_Ad_We_1_GlobalTheta_NoVideo.avi,globalTheta,noVideo,sp07,Ad,We,1,1,5,flow/blocks/GlobalTheta_NoVideo_A.csv,,,,,,,,,0,1,1,1,0,23,23,12,0.412962962962963,0.06712962962962964,1,0,0,3.9817890999993324,call1,0.02175925925925926,0.08055555555555556,1,0,0,8.916088599999966,colour2,0.4060185185185185,0.09907407407407408,1,0,0,9.566754099999343,number2,True,False,False,111,2,2019_Nov_08_1354,MA_Theta_Exp,3.0.7,60.144768457674516,
video/Experiment/zh_sp01_Dr_Gr_3_GlobalTheta_NoVideo.avi,globalTheta,noVideo,sp01,Dr,Gr,3,1,5,flow/blocks/GlobalTheta_NoVideo_A.csv,,,,,,,,,0,1,1,1,0,24,24,22,-0.36944444444444446,0.3189814814814815,1,0,0,4.968988700000409,call1,0.005555555555555556,0.27870370370370373,1,0,0,5.602782700000716,colour1,0.3421296296296296,0.2708333333333333,1,0,0,6.233946999999716,number1,False,False,False,111,2,2019_Nov_08_1354,MA_Theta_Exp,3.0.7,60.144768457674516,
video/Experiment/zh_sp07_Dr_We_3_GlobalTheta_NoVideo.avi,globalTheta,noVideo,sp07,Dr,We,3,1,5,flow/blocks/GlobalTheta_NoVideo_A.csv,,,,,,,,,0,1,1,1,0,25,25,30,-0.4199074074074074,0.32175925925925924,1,0,0,4.779842099999769,call1,-0.02546296296296296,0.0912037037037037,1,0,0,5.419696300000396,colour2,0.4046296296296296,0.08518518518518518,1,0,0,6.0521889999999985,number2,False,False,False,111,2,2019_Nov_08_1354,MA_Theta_Exp,3.0.7,60.144768457674516,
video/Experiment/zh_sp01_Dr_Ro_1_GlobalTheta_NoVideo.avi,globalTheta,noVideo,sp01,Dr,Ro,1,1,5,flow/blocks/GlobalTheta_NoVideo_A.csv,,,,,,,,,0,1,1,1,0,26,26,24,-0.38287037037037036,0.30277777777777776,1,0,0,5.681692400000429,call1,0.00787037037037037,0.09398148148148149,1,0,0,6.4108312999997,colour2,0.3787037037037037,0.09675925925925925,1,0,0,7.003008599999703,number2,False,False,False,111,2,2019_Nov_08_1354,MA_Theta_Exp,3.0.7,60.144768457674516,
video/Experiment/zh_sp07_Ad_Ge_4_GlobalTheta_NoVideo.avi,globalTheta,noVideo,sp07,Ad,Ge,4,1,5,flow/blocks/GlobalTheta_NoVideo_A.csv,,,,,,,,,0,1,1,1,0,27,27,3,-0.4125,0.3300925925925926,1,0,0,5.002570800000285,call1,-0.0060185185185185185,0.11018518518518519,1,0,0,5.672565900000336,colour2,0.462037037037037,0.07592592592592592,1,0,0,6.268035600000076,number2,True,False,False,111,2,2019_Nov_08_1354,MA_Theta_Exp,3.0.7,60.144768457674516,
video/Experiment/zh_sp07_Ad_Ro_3_GlobalTheta_NoVideo.avi,globalTheta,noVideo,sp07,Ad,Ro,3,1,5,flow/blocks/GlobalTheta_NoVideo_A.csv,,,,,,,,,0,1,1,1,0,28,28,10,-0.39537037037037037,0.10231481481481482,1,0,0,4.90925629999947,call2,0.08657407407407407,0.09814814814814815,1,0,0,5.474281099999644,colour2,0.3990740740740741,0.09722222222222222,1,0,0,6.324686699999802,number2,False,False,False,111,2,2019_Nov_08_1354,MA_Theta_Exp,3.0.7,60.144768457674516,
video/Experiment/zh_sp07_Dr_Ge_1_GlobalTheta_NoVideo.avi,globalTheta,noVideo,sp07,Dr,Ge,1,1,5,flow/blocks/GlobalTheta_NoVideo_A.csv,,,,,,,,,0,1,1,1,0,29,29,16,-0.3763888888888889,-0.0912037037037037,1,0,0,4.4727639000002455,call3,0.03518518518518519,-0.09907407407407408,1,0,0,5.056146399999307,colour3,0.43425925925925923,-0.08703703703703704,1,0,0,5.602830900000299,number3,False,False,False,111,2,2019_Nov_08_1354,MA_Theta_Exp,3.0.7,60.144768457674516,
video/Experiment/zh_sp07_Ad_Gr_3_GlobalTheta_NoVideo.avi,globalTheta,noVideo,sp07,Ad,Gr,3,1,5,flow/blocks/GlobalTheta_NoVideo_A.csv,,,,,,,,,0,1,1,1,0,30,30,6,-0.3939814814814815,-0.12083333333333333,1,0,0,6.400935200000276,call3,0.014351851851851852,-0.12268518518518519,1,0,0,6.938191000000188,colour3,0.3925925925925926,-0.09351851851851851,1,0,0,7.564656200000172,number3,False,False,True,111,2,2019_Nov_08_1354,MA_Theta_Exp,3.0.7,60.144768457674516,
video/Experiment/zh_sp07_Dr_Ge_4_GlobalTheta_NoVideo.avi,globalTheta,noVideo,sp07,Dr,Ge,4,1,5,flow/blocks/GlobalTheta_NoVideo_A.csv,,,,,,,,,0,1,1,1,0,31,31,19,-0.36666666666666664,0.2828703703703704,1,0,0,5.4026513999997405,call1,0.03796296296296296,0.09675925925925925,1,0,0,5.930051999999705,colour2,0.362962962962963,0.0837962962962963,1,0,0,6.455771299999469,number2,False,False,False,111,2,2019_Nov_08_1354,MA_Theta_Exp,3.0.7,60.144768457674516,
