TrialID,NFB_digit1,NFB_digit2,NFB_digit3,practice_block.thisRepN,practice_block.thisTrialN,practice_block.thisN,practice_block.thisIndex,practice_trials.thisRepN,practice_trials.thisTrialN,practice_trials.thisN,practice_trials.thisIndex,response_practice.thisRepN,response_practice.thisTrialN,response_practice.thisN,response_practice.thisIndex,calibration_block.thisRepN,calibration_block.thisTrialN,calibration_block.thisN,calibration_block.thisIndex,experimental_block.thisRepN,experimental_block.thisTrialN,experimental_block.thisN,experimental_block.thisIndex,exp_trials.thisRepN,exp_trials.thisTrialN,exp_trials.thisN,exp_trials.thisIndex,response_exp.thisRepN,response_exp.thisTrialN,response_exp.thisN,response_exp.thisIndex,control_block.thisRepN,control_block.thisTrialN,control_block.thisN,control_block.thisIndex,ctrl_trials.thisRepN,ctrl_trials.thisTrialN,ctrl_trials.thisN,ctrl_trials.thisIndex,Digit1_clear.started,Digit1_clear.stopped,Digit2_clear.started,Digit2_clear.stopped,Digit3_clear.started,Digit3_clear.stopped,key_resp_3.keys,key_resp_3.rt,key_resp_3.started,key_resp_3.stopped,text_4.started,text_4.stopped,text_5.started,text_5.stopped,Begin.started,Begin.stopped,Fixation.started,Fixation.stopped,sound_digit1.started,sound_digit1.stopped,sound_digit2.started,sound_digit2.stopped,sound_digit3.started,sound_digit3.stopped,key_resp.keys,key_resp.rt,key_resp.started,key_resp.stopped,Begin_3.started,Begin_3.stopped,participant,session,date,expName,psychopyVersion,frameRate,
0.0,6.0,2.0,4.0,0,0,0,0,0,0,0,0,0,0,0,0,,,,,,,,,,,,,,,,,,,,,,,,,0.016471759998239577,None,0.4984573600013391,None,0.9816428600024665,None,['return'],[1.5061995999931241],20.030230699994718,None,,,,,,,,,,,,,,,,,,,,,1,001,2021_Oct_15_1258,eeg_contingent_digits,2021.2.3,59.97846773021423,
0.0,6.0,2.0,4.0,0,0,0,0,0,0,0,0,1,0,1,0,,,,,,,,,,,,,,,,,,,,,,,,,,,,,,,['return'],[0.43297159999929136],21.556513299998187,None,,,,,,,,,,,,,,,,,,,,,1,001,2021_Oct_15_1258,eeg_contingent_digits,2021.2.3,59.97846773021423,
0.0,6.0,2.0,4.0,0,0,0,0,0,0,0,0,2,0,2,0,,,,,,,,,,,,,,,,,,,,,,,,,,,,,,,['return'],[0.408776600001147],22.006737099996826,None,,,,,,,,,,,,,,,,,,,,,1,001,2021_Oct_15_1258,eeg_contingent_digits,2021.2.3,59.97846773021423,
0.0,6.0,2.0,4.0,0,0,0,0,0,0,0,0,,,,,,,,,,,,,,,,,,,,,,,,,,,,,,,,,,,,,,,,,,,,,,,,,,,,,,,,,,,1,001,2021_Oct_15_1258,eeg_contingent_digits,2021.2.3,59.97846773021423,
1.0,1.0,9.0,3.0,0,0,0,0,0,1,1,1,0,0,0,0,,,,,,,,,,,,,,,,,,,,,,,,,0.010651129996404052,None,0.4878059300026507,None,0.9709557300011511,None,['return'],[0.4710715999972308],23.87880149999546,None,,,,,,,,,,,,,,,,,,,,,1,001,2021_Oct_15_1258,eeg_contingent_digits,2021.2.3,59.97846773021423,
1.0,1.0,9.0,3.0,0,0,0,0,0,1,1,1,1,0,1,0,,,,,,,,,,,,,,,,,,,,,,,,,,,,,,,['return'],[0.4223591999980272],24.373211699996318,None,,,,,,,,,,,,,,,,,,,,,1,001,2021_Oct_15_1258,eeg_contingent_digits,2021.2.3,59.97846773021423,
1.0,1.0,9.0,3.0,0,0,0,0,0,1,1,1,2,0,2,0,,,,,,,,,,,,,,,,,,,,,,,,,,,,,,,['return'],[0.373388399995747],24.82316709999577,None,,,,,,,,,,,,,,,,,,,,,1,001,2021_Oct_15_1258,eeg_contingent_digits,2021.2.3,59.97846773021423,
1.0,1.0,9.0,3.0,0,0,0,0,0,1,1,1,,,,,,,,,,,,,,,,,,,,,,,,,,,,,,,,,,,,,,,,,,,,,,,,,,,,,,,,,,,1,001,2021_Oct_15_1258,eeg_contingent_digits,2021.2.3,59.97846773021423,
2.0,8.0,0.0,1.0,0,0,0,0,0,2,2,2,0,0,0,0,,,,,,,,,,,,,,,,,,,,,,,,,0.006747729996277485,None,0.46322752999549266,None,0.963205129999551,None,['return'],[0.36366399999678833],26.659909599999082,None,,,,,,,,,,,,,,,,,,,,,1,001,2021_Oct_15_1258,eeg_contingent_digits,2021.2.3,59.97846773021423,
2.0,8.0,0.0,1.0,0,0,0,0,0,2,2,2,1,0,1,0,,,,,,,,,,,,,,,,,,,,,,,,,,,,,,,['return'],[0.3746557999984361],27.058984699993744,None,,,,,,,,,,,,,,,,,,,,,1,001,2021_Oct_15_1258,eeg_contingent_digits,2021.2.3,59.97846773021423,
2.0,8.0,0.0,1.0,0,0,0,0,0,2,2,2,2,0,2,0,,,,,,,,,,,,,,,,,,,,,,,,,,,,,,,['return'],[0.42315660000167554],27.45634019999852,None,,,,,,,,,,,,,,,,,,,,,1,001,2021_Oct_15_1258,eeg_contingent_digits,2021.2.3,59.97846773021423,
2.0,8.0,0.0,1.0,0,0,0,0,0,2,2,2,,,,,,,,,,,,,,,,,,,,,,,,,,,,,,,,,,,,,,,,,,,,,,,,,,,,,,,,,,,1,001,2021_Oct_15_1258,eeg_contingent_digits,2021.2.3,59.97846773021423,
3.0,9.0,6.0,1.0,0,0,0,0,0,3,3,3,0,0,0,0,,,,,,,,,,,,,,,,,,,,,,,,,0.010158929988392629,None,0.4699326299887616,None,0.9533172299925354,None,['return'],[0.2772853999995277],29.343228899997484,None,,,,,,,,,,,,,,,,,,,,,1,001,2021_Oct_15_1258,eeg_contingent_digits,2021.2.3,59.97846773021423,
3.0,9.0,6.0,1.0,0,0,0,0,0,3,3,3,1,0,1,0,,,,,,,,,,,,,,,,,,,,,,,,,,,,,,,['return'],[0.2883044999980484],29.639237699993828,None,,,,,,,,,,,,,,,,,,,,,1,001,2021_Oct_15_1258,eeg_contingent_digits,2021.2.3,59.97846773021423,
3.0,9.0,6.0,1.0,0,0,0,0,0,3,3,3,2,0,2,0,,,,,,,,,,,,,,,,,,,,,,,,,,,,,,,['return'],[0.3075347999983933],29.956100600000354,None,,,,,,,,,,,,,,,,,,,,,1,001,2021_Oct_15_1258,eeg_contingent_digits,2021.2.3,59.97846773021423,
3.0,9.0,6.0,1.0,0,0,0,0,0,3,3,3,,,,,,,,,,,,,,,,,,,,,,,,,,,,,,,,,,,,,,,,,,,,,,,,,,,,,,,,,,,1,001,2021_Oct_15_1258,eeg_contingent_digits,2021.2.3,59.97846773021423,
4.0,8.0,1.0,5.0,0,0,0,0,0,4,4,4,0,0,0,0,,,,,,,,,,,,,,,,,,,,,,,,,0.010128629997780081,None,0.4700065299984999,None,0.9533902300026966,None,['return'],[0.3071674999955576],31.713523099999293,None,,,,,,,,,,,,,,,,,,,,,1,001,2021_Oct_15_1258,eeg_contingent_digits,2021.2.3,59.97846773021423,
4.0,8.0,1.0,5.0,0,0,0,0,0,4,4,4,1,0,1,0,,,,,,,,,,,,,,,,,,,,,,,,,,,,,,,['return'],[0.19836320000467822],32.03926999999385,None,,,,,,,,,,,,,,,,,,,,,1,001,2021_Oct_15_1258,eeg_contingent_digits,2021.2.3,59.97846773021423,
4.0,8.0,1.0,5.0,0,0,0,0,0,4,4,4,2,0,2,0,,,,,,,,,,,,,,,,,,,,,,,,,,,,,,,['return'],[0.19863189999887254],32.25614439999481,None,,,,,,,,,,,,,,,,,,,,,1,001,2021_Oct_15_1258,eeg_contingent_digits,2021.2.3,59.97846773021423,
4.0,8.0,1.0,5.0,0,0,0,0,0,4,4,4,,,,,,,,,,,,,,,,,,,,,,,,,,,,,,,,,,,,,,,,,,,,,,,,,,,,,,,,,,,1,001,2021_Oct_15_1258,eeg_contingent_digits,2021.2.3,59.97846773021423,
5.0,4.0,1.0,0.0,0,0,0,0,0,5,5,5,0,0,0,0,,,,,,,,,,,,,,,,,,,,,,,,,0.007492329998058267,None,0.48155612999835284,None,0.9480225299994345,None,['return'],[0.27117549999820767],33.90842200000043,None,,,,,,,,,,,,,,,,,,,,,1,001,2021_Oct_15_1258,eeg_contingent_digits,2021.2.3,59.97846773021423,
5.0,4.0,1.0,0.0,0,0,0,0,0,5,5,5,1,0,1,0,,,,,,,,,,,,,,,,,,,,,,,,,,,,,,,['return'],[0.18677369999932125],34.20572689999972,None,,,,,,,,,,,,,,,,,,,,,1,001,2021_Oct_15_1258,eeg_contingent_digits,2021.2.3,59.97846773021423,
5.0,4.0,1.0,0.0,0,0,0,0,0,5,5,5,2,0,2,0,,,,,,,,,,,,,,,,,,,,,,,,,,,,,,,['return'],[0.15809840000292752],34.42242869999609,None,,,,,,,,,,,,,,,,,,,,,1,001,2021_Oct_15_1258,eeg_contingent_digits,2021.2.3,59.97846773021423,
5.0,4.0,1.0,0.0,0,0,0,0,0,5,5,5,,,,,,,,,,,,,,,,,,,,,,,,,,,,,,,,,,,,,,,,,,,,,,,,,,,,,,,,,,,1,001,2021_Oct_15_1258,eeg_contingent_digits,2021.2.3,59.97846773021423,
6.0,9.0,2.0,6.0,0,0,0,0,0,6,6,6,0,0,0,0,,,,,,,,,,,,,,,,,,,,,,,,,0.010308930002793204,None,0.4870017299981555,None,0.9704647300022771,None,['return'],[0.021091800001158845],36.04642349999631,None,,,,,,,,,,,,,,,,,,,,,1,001,2021_Oct_15_1258,eeg_contingent_digits,2021.2.3,59.97846773021423,
6.0,9.0,2.0,6.0,0,0,0,0,0,6,6,6,1,0,1,0,,,,,,,,,,,,,,,,,,,,,,,,,,,,,,,['return'],[0.17971769999712706],36.089039200000116,None,,,,,,,,,,,,,,,,,,,,,1,001,2021_Oct_15_1258,eeg_contingent_digits,2021.2.3,59.97846773021423,
6.0,9.0,2.0,6.0,0,0,0,0,0,6,6,6,2,0,2,0,,,,,,,,,,,,,,,,,,,,,,,,,,,,,,,['return'],[0.1637295999971684],36.288944699997955,None,,,,,,,,,,,,,,,,,,,,,1,001,2021_Oct_15_1258,eeg_contingent_digits,2021.2.3,59.97846773021423,
6.0,9.0,2.0,6.0,0,0,0,0,0,6,6,6,,,,,,,,,,,,,,,,,,,,,,,,,,,,,,,,,,,,,,,,,,,,,,,,,,,,,,,,,,,1,001,2021_Oct_15_1258,eeg_contingent_digits,2021.2.3,59.97846773021423,
7.0,2.0,3.0,0.0,0,0,0,0,0,7,7,7,0,0,0,0,,,,,,,,,,,,,,,,,,,,,,,,,0.006504229997517541,None,0.4830795300003956,None,0.9457331300000078,None,['return'],[0.11043659999995725],37.91106079999736,None,,,,,,,,,,,,,,,,,,,,,1,001,2021_Oct_15_1258,eeg_contingent_digits,2021.2.3,59.97846773021423,
7.0,2.0,3.0,0.0,0,0,0,0,0,7,7,7,1,0,1,0,,,,,,,,,,,,,,,,,,,,,,,,,,,,,,,['return'],[0.1867917000054149],38.03881700000056,None,,,,,,,,,,,,,,,,,,,,,1,001,2021_Oct_15_1258,eeg_contingent_digits,2021.2.3,59.97846773021423,
7.0,2.0,3.0,0.0,0,0,0,0,0,7,7,7,2,0,2,0,,,,,,,,,,,,,,,,,,,,,,,,,,,,,,,['return'],[0.15918770000280347],38.25545649999549,None,,,,,,,,,,,,,,,,,,,,,1,001,2021_Oct_15_1258,eeg_contingent_digits,2021.2.3,59.97846773021423,
7.0,2.0,3.0,0.0,0,0,0,0,0,7,7,7,,,,,,,,,,,,,,,,,,,,,,,,,,,,,,,,,,,,,,,,,,,,,,,,,,,,,,,,,,,1,001,2021_Oct_15_1258,eeg_contingent_digits,2021.2.3,59.97846773021423,
8.0,1.0,9.0,2.0,0,0,0,0,0,8,8,8,0,0,0,0,,,,,,,,,,,,,,,,,,,,,,,,,0.010101530002430081,None,0.48673772999609355,None,0.9729714299974148,None,['return'],[0.3278636999966693],39.88868249999359,None,,,,,,,,,,,,,,,,,,,,,1,001,2021_Oct_15_1258,eeg_contingent_digits,2021.2.3,59.97846773021423,
8.0,1.0,9.0,2.0,0,0,0,0,0,8,8,8,1,0,1,0,,,,,,,,,,,,,,,,,,,,,,,,,,,,,,,['return'],[0.1792843000002904],40.23858949999703,None,,,,,,,,,,,,,,,,,,,,,1,001,2021_Oct_15_1258,eeg_contingent_digits,2021.2.3,59.97846773021423,
8.0,1.0,9.0,2.0,0,0,0,0,0,8,8,8,2,0,2,0,,,,,,,,,,,,,,,,,,,,,,,,,,,,,,,['return'],[0.16718180000316352],40.43848729999445,None,,,,,,,,,,,,,,,,,,,,,1,001,2021_Oct_15_1258,eeg_contingent_digits,2021.2.3,59.97846773021423,
8.0,1.0,9.0,2.0,0,0,0,0,0,8,8,8,,,,,,,,,,,,,,,,,,,,,,,,,,,,,,,,,,,,,,,,,,,,,,,,,,,,,,,,,,,1,001,2021_Oct_15_1258,eeg_contingent_digits,2021.2.3,59.97846773021423,
9.0,8.0,1.0,0.0,0,0,0,0,0,9,9,9,0,0,0,0,,,,,,,,,,,,,,,,,,,,,,,,,0.00698553000256652,None,0.4802803299971856,None,0.9634692300023744,None,['return'],[0.3950477999969735],42.07442619999347,None,,,,,,,,,,,,,,,,,,,,,1,001,2021_Oct_15_1258,eeg_contingent_digits,2021.2.3,59.97846773021423,
9.0,8.0,1.0,0.0,0,0,0,0,0,9,9,9,1,0,1,0,,,,,,,,,,,,,,,,,,,,,,,,,,,,,,,['return'],[0.16904589999467134],42.48843939999642,None,,,,,,,,,,,,,,,,,,,,,1,001,2021_Oct_15_1258,eeg_contingent_digits,2021.2.3,59.97846773021423,
9.0,8.0,1.0,0.0,0,0,0,0,0,9,9,9,2,0,2,0,,,,,,,,,,,,,,,,,,,,,,,,,,,,,,,['return'],[0.1451972999930149],42.68829399999959,None,,,,,,,,,,,,,,,,,,,,,1,001,2021_Oct_15_1258,eeg_contingent_digits,2021.2.3,59.97846773021423,
9.0,8.0,1.0,0.0,0,0,0,0,0,9,9,9,,,,,,,,,,,,,,,,,,,,,,,,,,,,,,,,,,,,,,,,,,,,,,,,,,,,,,,,,,,1,001,2021_Oct_15_1258,eeg_contingent_digits,2021.2.3,59.97846773021423,
,,,,0,0,0,0,,,,,,,,,,,,,,,,,,,,,,,,,,,,,,,,,,,,,,,,,,,42.85527759999968,None,,,,,,,,,,,,,,,,,,,1,001,2021_Oct_15_1258,eeg_contingent_digits,2021.2.3,59.97846773021423,
,,,,,,,,,,,,,,,,0,0,0,0,,,,,,,,,,,,,,,,,,,,,,,,,,,,,,,,,57.90885369999887,None,,,,,,,,,,,,,,,,,1,001,2021_Oct_15_1258,eeg_contingent_digits,2021.2.3,59.97846773021423,
0.0,3.0,6.0,9.0,,,,,,,,,,,,,,,,,0,0,0,0,0,0,0,0,0,0,0,0,,,,,,,,,,,,,,,,,,,,,,,67.92006892999925,None,67.93265809999866,None,0.010390759991423693,None,0.48717825999483466,None,0.9539683599941782,None,['return'],[1.2172204999951646],71.3735727999956,None,,,1,001,2021_Oct_15_1258,eeg_contingent_digits,2021.2.3,59.97846773021423,
0.0,3.0,6.0,9.0,,,,,,,,,,,,,,,,,0,0,0,0,0,0,0,0,1,0,1,0,,,,,,,,,,,,,,,,,,,,,,,,,,,,,,,,,['return'],[0.32709340000292286],72.61936379999679,None,,,1,001,2021_Oct_15_1258,eeg_contingent_digits,2021.2.3,59.97846773021423,
0.0,3.0,6.0,9.0,,,,,,,,,,,,,,,,,0,0,0,0,0,0,0,0,2,0,2,0,,,,,,,,,,,,,,,,,,,,,,,,,,,,,,,,,['return'],[0.26828540000133216],72.96946979999484,None,,,1,001,2021_Oct_15_1258,eeg_contingent_digits,2021.2.3,59.97846773021423,
0.0,3.0,6.0,9.0,,,,,,,,,,,,,,,,,0,0,0,0,0,0,0,0,,,,,,,,,,,,,,,,,,,,,,,,,,,,,,,,,,,,,,,,,None,None,1,001,2021_Oct_15_1258,eeg_contingent_digits,2021.2.3,59.97846773021423,
1.0,8.0,0.0,3.0,,,,,,,,,,,,,,,,,0,0,0,0,0,1,1,1,0,0,0,0,,,,,,,,,,,,,,,,,,,,,,,,,73.27573189999384,None,0.016238359996350482,None,0.4820158599977731,None,0.9654861599919968,None,['return'],[0.42654689999471884],76.72598409999773,None,,,1,001,2021_Oct_15_1258,eeg_contingent_digits,2021.2.3,59.97846773021423,
1.0,8.0,0.0,3.0,,,,,,,,,,,,,,,,,0,0,0,0,0,1,1,1,1,0,1,0,,,,,,,,,,,,,,,,,,,,,,,,,,,,,,,,,['return'],[4.677353200000653],77.1691731999963,None,,,1,001,2021_Oct_15_1258,eeg_contingent_digits,2021.2.3,59.97846773021423,
1.0,8.0,0.0,3.0,,,,,,,,,,,,,,,,,0,0,0,0,0,1,1,1,2,0,2,0,,,,,,,,,,,,,,,,,,,,,,,,,,,,,,,,,['return'],[0.4196483999985503],81.87385459999496,None,,,1,001,2021_Oct_15_1258,eeg_contingent_digits,2021.2.3,59.97846773021423,
1.0,8.0,0.0,3.0,,,,,,,,,,,,,,,,,0,0,0,0,0,1,1,1,,,,,,,,,,,,,,,,,,,,,,,,,,,,,,,,,,,,,,,,,None,None,1,001,2021_Oct_15_1258,eeg_contingent_digits,2021.2.3,59.97846773021423,
2.0,1.0,8.0,4.0,,,,,,,,,,,,,,,,,0,0,0,0,0,2,2,2,0,0,0,0,,,,,,,,,,,,,,,,,,,,,,,,,82.32324449999578,None,0.01273982999555301,None,1.471459929998673,None,1.9412348299956648,None,['return'],[1.5329043000019738],86.74064009999711,None,,,1,001,2021_Oct_15_1258,eeg_contingent_digits,2021.2.3,59.97846773021423,
2.0,1.0,8.0,4.0,,,,,,,,,,,,,,,,,0,0,0,0,0,2,2,2,1,0,1,0,,,,,,,,,,,,,,,,,,,,,,,,,,,,,,,,,['return'],[0.4052369999990333],88.29057779999857,None,,,1,001,2021_Oct_15_1258,eeg_contingent_digits,2021.2.3,59.97846773021423,
2.0,1.0,8.0,4.0,,,,,,,,,,,,,,,,,0,0,0,0,0,2,2,2,2,0,2,0,,,,,,,,,,,,,,,,,,,,,,,,,,,,,,,,,['return'],[0.3276893000002019],88.72378779999417,None,,,1,001,2021_Oct_15_1258,eeg_contingent_digits,2021.2.3,59.97846773021423,
2.0,1.0,8.0,4.0,,,,,,,,,,,,,,,,,0,0,0,0,0,2,2,2,,,,,,,,,,,,,,,,,,,,,,,,,,,,,,,,,,,,,,,,,None,None,1,001,2021_Oct_15_1258,eeg_contingent_digits,2021.2.3,59.97846773021423,
3.0,5.0,4.0,0.0,,,,,,,,,,,,,,,,,0,0,0,0,0,3,3,3,0,0,0,0,,,,,,,,,,,,,,,,,,,,,,,,,89.07375719999982,None,0.012857729991083033,None,0.49620452999079134,None,0.9755148299955181,None,['return'],[1.057848999997077],92.52364490000036,None,,,1,001,2021_Oct_15_1258,eeg_contingent_digits,2021.2.3,59.97846773021423,
3.0,5.0,4.0,0.0,,,,,,,,,,,,,,,,,0,0,0,0,0,3,3,3,1,0,1,0,,,,,,,,,,,,,,,,,,,,,,,,,,,,,,,,,['return'],[0.3267539000007673],93.60677379999834,None,,,1,001,2021_Oct_15_1258,eeg_contingent_digits,2021.2.3,59.97846773021423,
3.0,5.0,4.0,0.0,,,,,,,,,,,,,,,,,0,0,0,0,0,3,3,3,2,0,2,0,,,,,,,,,,,,,,,,,,,,,,,,,,,,,,,,,['return'],[0.34968559999833815],93.95688189999782,None,,,1,001,2021_Oct_15_1258,eeg_contingent_digits,2021.2.3,59.97846773021423,
3.0,5.0,4.0,0.0,,,,,,,,,,,,,,,,,0,0,0,0,0,3,3,3,,,,,,,,,,,,,,,,,,,,,,,,,,,,,,,,,,,,,,,,,None,None,1,001,2021_Oct_15_1258,eeg_contingent_digits,2021.2.3,59.97846773021423,
4.0,8.0,6.0,1.0,,,,,,,,,,,,,,,,,0,0,0,0,0,4,4,4,0,0,0,0,,,,,,,,,,,,,,,,,,,,,,,,,94.32337559999723,None,0.012928030002512969,None,0.4757606300045154,None,0.9593205300043337,None,['return'],[1.0165168000021367],97.76293549999536,None,,,1,001,2021_Oct_15_1258,eeg_contingent_digits,2021.2.3,59.97846773021423,
4.0,8.0,6.0,1.0,,,,,,,,,,,,,,,,,0,0,0,0,0,4,4,4,1,0,1,0,,,,,,,,,,,,,,,,,,,,,,,,,,,,,,,,,['return'],[0.3370324999996228],98.80648680000013,None,,,1,001,2021_Oct_15_1258,eeg_contingent_digits,2021.2.3,59.97846773021423,
4.0,8.0,6.0,1.0,,,,,,,,,,,,,,,,,0,0,0,0,0,4,4,4,2,0,2,0,,,,,,,,,,,,,,,,,,,,,,,,,,,,,,,,,['return'],[0.24947470000188332],99.17303859999811,None,,,1,001,2021_Oct_15_1258,eeg_contingent_digits,2021.2.3,59.97846773021423,
4.0,8.0,6.0,1.0,,,,,,,,,,,,,,,,,0,0,0,0,0,4,4,4,,,,,,,,,,,,,,,,,,,,,,,,,,,,,,,,,,,,,,,,,None,None,1,001,2021_Oct_15_1258,eeg_contingent_digits,2021.2.3,59.97846773021423,
5.0,6.0,8.0,1.0,,,,,,,,,,,,,,,,,0,0,0,0,0,5,5,5,0,0,0,0,,,,,,,,,,,,,,,,,,,,,,,,,99.43950879999466,None,0.012929229997098446,None,0.4926949299988337,None,0.9794298299966613,None,['return'],[0.5527089000024716],102.87983389999863,None,,,1,001,2021_Oct_15_1258,eeg_contingent_digits,2021.2.3,59.97846773021423,
5.0,6.0,8.0,1.0,,,,,,,,,,,,,,,,,0,0,0,0,0,5,5,5,1,0,1,0,,,,,,,,,,,,,,,,,,,,,,,,,,,,,,,,,['return'],[0.29540609999821754],103.45601909999823,None,,,1,001,2021_Oct_15_1258,eeg_contingent_digits,2021.2.3,59.97846773021423,
5.0,6.0,8.0,1.0,,,,,,,,,,,,,,,,,0,0,0,0,0,5,5,5,2,0,2,0,,,,,,,,,,,,,,,,,,,,,,,,,,,,,,,,,['return'],[0.24065439999685623],103.77275229999941,None,,,1,001,2021_Oct_15_1258,eeg_contingent_digits,2021.2.3,59.97846773021423,
5.0,6.0,8.0,1.0,,,,,,,,,,,,,,,,,0,0,0,0,0,5,5,5,,,,,,,,,,,,,,,,,,,,,,,,,,,,,,,,,,,,,,,,,104.08015389999491,None,1,001,2021_Oct_15_1258,eeg_contingent_digits,2021.2.3,59.97846773021423,
6.0,3.0,1.0,0.0,,,,,,,,,,,,,,,,,0,0,0,0,0,6,6,6,0,0,0,0,,,,,,,,,,,,,,,,,,,,,,,,,106.3119571999996,None,0.0034446299978299066,None,0.4734733299992513,None,0.9567399299994577,None,['return'],[0.9670834999997169],109.75550829999702,None,,,1,001,2021_Oct_15_1258,eeg_contingent_digits,2021.2.3,59.97846773021423,
6.0,3.0,1.0,0.0,,,,,,,,,,,,,,,,,0,0,0,0,0,6,6,6,1,0,1,0,,,,,,,,,,,,,,,,,,,,,,,,,,,,,,,,,['return'],[0.3164440000036848],110.75794999999925,None,,,1,001,2021_Oct_15_1258,eeg_contingent_digits,2021.2.3,59.97846773021423,
6.0,3.0,1.0,0.0,,,,,,,,,,,,,,,,,0,0,0,0,0,6,6,6,2,0,2,0,,,,,,,,,,,,,,,,,,,,,,,,,,,,,,,,,['return'],[0.26794089999748394],111.1055481000003,None,,,1,001,2021_Oct_15_1258,eeg_contingent_digits,2021.2.3,59.97846773021423,
6.0,3.0,1.0,0.0,,,,,,,,,,,,,,,,,0,0,0,0,0,6,6,6,,,,,,,,,,,,,,,,,,,,,,,,,,,,,,,,,,,,,,,,,None,None,1,001,2021_Oct_15_1258,eeg_contingent_digits,2021.2.3,59.97846773021423,
7.0,1.0,3.0,8.0,,,,,,,,,,,,,,,,,0,0,0,0,0,7,7,7,0,0,0,0,,,,,,,,,,,,,,,,,,,,,,,,,111.40860129999783,None,0.0006509300001198426,None,0.4848028299966245,None,0.9512950299977092,None,['return'],[0.538200399998459],114.86643469999399,None,,,1,001,2021_Oct_15_1258,eeg_contingent_digits,2021.2.3,59.97846773021423,
7.0,1.0,3.0,8.0,,,,,,,,,,,,,,,,,0,0,0,0,0,7,7,7,1,0,1,0,,,,,,,,,,,,,,,,,,,,,,,,,,,,,,,,,['return'],[0.2857480000020587],115.42173270000058,None,,,1,001,2021_Oct_15_1258,eeg_contingent_digits,2021.2.3,59.97846773021423,
7.0,1.0,3.0,8.0,,,,,,,,,,,,,,,,,0,0,0,0,0,7,7,7,2,0,2,0,,,,,,,,,,,,,,,,,,,,,,,,,,,,,,,,,['return'],[0.21501160000480013],115.73841959999845,None,,,1,001,2021_Oct_15_1258,eeg_contingent_digits,2021.2.3,59.97846773021423,
7.0,1.0,3.0,8.0,,,,,,,,,,,,,,,,,0,0,0,0,0,7,7,7,,,,,,,,,,,,,,,,,,,,,,,,,,,,,,,,,,,,,,,,,None,None,1,001,2021_Oct_15_1258,eeg_contingent_digits,2021.2.3,59.97846773021423,
8.0,0.0,6.0,4.0,,,,,,,,,,,,,,,,,0,0,0,0,0,8,8,8,0,0,0,0,,,,,,,,,,,,,,,,,,,,,,,,,115.9716971999951,None,0.01350912999623688,None,0.47668582999904174,None,0.9602115300003788,None,None,,119.40457632999605,None,,,1,001,2021_Oct_15_1258,eeg_contingent_digits,2021.2.3,59.97846773021423,
8.0,0.0,6.0,4.0,,,,,,,,,,,,,,,,,0,0,0,0,0,8,8,8,1,0,1,0,,,,,,,,,,,,,,,,,,,,,,,,,,,,,,,,,['return'],[0.6828506000019843],119.40490119999595,None,,,1,001,2021_Oct_15_1258,eeg_contingent_digits,2021.2.3,59.97846773021423,
8.0,0.0,6.0,4.0,,,,,,,,,,,,,,,,,0,0,0,0,0,8,8,8,2,0,2,0,,,,,,,,,,,,,,,,,,,,,,,,,,,,,,,,,['return'],[0.23931599999923492],120.12147849999747,None,,,1,001,2021_Oct_15_1258,eeg_contingent_digits,2021.2.3,59.97846773021423,
8.0,0.0,6.0,4.0,,,,,,,,,,,,,,,,,0,0,0,0,0,8,8,8,,,,,,,,,,,,,,,,,,,,,,,,,,,,,,,,,,,,,,,,,None,None,1,001,2021_Oct_15_1258,eeg_contingent_digits,2021.2.3,59.97846773021423,
9.0,8.0,5.0,6.0,,,,,,,,,,,,,,,,,0,0,0,0,0,9,9,9,0,0,0,0,,,,,,,,,,,,,,,,,,,,,,,,,120.39079249999486,None,0.012960830004885793,None,0.49238973000319675,None,0.978706730005797,None,None,,123.83764592999941,None,,,1,001,2021_Oct_15_1258,eeg_contingent_digits,2021.2.3,59.97846773021423,
9.0,8.0,5.0,6.0,,,,,,,,,,,,,,,,,0,0,0,0,0,9,9,9,1,0,1,0,,,,,,,,,,,,,,,,,,,,,,,,,,,,,,,,,['return'],[0.3997202000027755],123.83788449999702,None,,,1,001,2021_Oct_15_1258,eeg_contingent_digits,2021.2.3,59.97846773021423,
9.0,8.0,5.0,6.0,,,,,,,,,,,,,,,,,0,0,0,0,0,9,9,9,2,0,2,0,,,,,,,,,,,,,,,,,,,,,,,,,,,,,,,,,['return'],[0.1896850000048289],124.27098149999802,None,,,1,001,2021_Oct_15_1258,eeg_contingent_digits,2021.2.3,59.97846773021423,
9.0,8.0,5.0,6.0,,,,,,,,,,,,,,,,,0,0,0,0,0,9,9,9,,,,,,,,,,,,,,,,,,,,,,,,,,,,,,,,,,,,,,,,,None,None,1,001,2021_Oct_15_1258,eeg_contingent_digits,2021.2.3,59.97846773021423,
10.0,6.0,8.0,5.0,,,,,,,,,,,,,,,,,0,0,0,0,0,10,10,10,0,0,0,0,,,,,,,,,,,,,,,,,,,,,,,,,124.49385029999394,None,0.002145429993106518,None,0.4877492299929145,None,0.9542825299940887,None,None,,127.93729902999766,None,,,1,001,2021_Oct_15_1258,eeg_contingent_digits,2021.2.3,59.97846773021423,
10.0,6.0,8.0,5.0,,,,,,,,,,,,,,,,,0,0,0,0,0,10,10,10,1,0,1,0,,,,,,,,,,,,,,,,,,,,,,,,,,,,,,,,,['return'],[0.5586016999950516],127.93795839999802,None,,,1,001,2021_Oct_15_1258,eeg_contingent_digits,2021.2.3,59.97846773021423,
10.0,6.0,8.0,5.0,,,,,,,,,,,,,,,,,0,0,0,0,0,10,10,10,2,0,2,0,,,,,,,,,,,,,,,,,,,,,,,,,,,,,,,,,['return'],[0.18673950000084005],128.52083769999444,None,,,1,001,2021_Oct_15_1258,eeg_contingent_digits,2021.2.3,59.97846773021423,
10.0,6.0,8.0,5.0,,,,,,,,,,,,,,,,,0,0,0,0,0,10,10,10,,,,,,,,,,,,,,,,,,,,,,,,,,,,,,,,,,,,,,,,,None,None,1,001,2021_Oct_15_1258,eeg_contingent_digits,2021.2.3,59.97846773021423,
11.0,3.0,0.0,2.0,,,,,,,,,,,,,,,,,0,0,0,0,0,11,11,11,0,0,0,0,,,,,,,,,,,,,,,,,,,,,,,,,128.74283169999399,None,8.96299970918335e-05,None,0.4835471299957135,None,0.9701051299998653,None,None,,132.18698792999348,None,,,1,001,2021_Oct_15_1258,eeg_contingent_digits,2021.2.3,59.97846773021423,
11.0,3.0,0.0,2.0,,,,,,,,,,,,,,,,,0,0,0,0,0,11,11,11,1,0,1,0,,,,,,,,,,,,,,,,,,,,,,,,,,,,,,,,,['return'],[0.48435739999695215],132.19034039999678,None,,,1,001,2021_Oct_15_1258,eeg_contingent_digits,2021.2.3,59.97846773021423,
11.0,3.0,0.0,2.0,,,,,,,,,,,,,,,,,0,0,0,0,0,11,11,11,2,0,2,0,,,,,,,,,,,,,,,,,,,,,,,,,,,,,,,,,['return'],[0.20164400000066962],132.70383229999425,None,,,1,001,2021_Oct_15_1258,eeg_contingent_digits,2021.2.3,59.97846773021423,
11.0,3.0,0.0,2.0,,,,,,,,,,,,,,,,,0,0,0,0,0,11,11,11,,,,,,,,,,,,,,,,,,,,,,,,,,,,,,,,,,,,,,,,,132.9664663999938,None,1,001,2021_Oct_15_1258,eeg_contingent_digits,2021.2.3,59.97846773021423,
,,,,,,,,,,,,,,,,,,,,0,0,0,0,,,,,,,,,,,,,,,,,,,,,,,,,,,,,,,,,,,,,,,,,,,,,,,1,001,2021_Oct_15_1258,eeg_contingent_digits,2021.2.3,59.97846773021423,
