TrialID,NFB_digit1,NFB_digit2,NFB_digit3,Speaker_trial,TrialID_ME,NFB_digit1_ME,NFB_digit2_ME,NFB_digit3_ME,Speaker_trial_ME,NV_trial_ME,Triggered_trial_ME,Jitter_trial_ME,practice_block.thisRepN,practice_block.thisTrialN,practice_block.thisN,practice_block.thisIndex,practice_trials.thisRepN,practice_trials.thisTrialN,practice_trials.thisN,practice_trials.thisIndex,response_practice.thisRepN,response_practice.thisTrialN,response_practice.thisN,response_practice.thisIndex,ME_trials.thisRepN,ME_trials.thisTrialN,ME_trials.thisN,ME_trials.thisIndex,response_ME.thisRepN,response_ME.thisTrialN,response_ME.thisN,response_ME.thisIndex,Digit1_clear.started,Digit1_clear.stopped,response_practice_resp.keys,response_practice_resp.rt,response_practice_resp.started,response_practice_resp.stopped,text_practice_repeat.started,text_practice_repeat.stopped,text_4.started,text_4.stopped,Fixation_ME.started,Fixation_ME.stopped,sound_digit_1_ME.started,sound_digit_1_ME.stopped,text_2.started,text_2.stopped,key_resp_ME.keys,key_resp_ME.rt,key_resp_ME.started,key_resp_ME.stopped,disp_answer_ME.started,disp_answer_ME.stopped,text_7.started,text_7.stopped,text_next_block_ME.started,text_next_block_ME.stopped,response_nextblock_ME.keys,response_nextblock_ME.started,response_nextblock_ME.stopped,participant,session,date,expName,psychopyVersion,frameRate,
0.0,6.0,2.0,4.0,33.0,,,,,,,,,0,0,0,0,0,0,0,0,0,0,0,0,,,,,,,,,0.0052635399988503195,None,['return'],[0.6649705000018002],26.36441019999984,None,,,,,,,,,,,,,,,,,,,,,,,,1,001,2021_Nov_17_1800,eeg_contingent_digits,2021.2.3,60.072651865459356,
0.0,6.0,2.0,4.0,33.0,,,,,,,,,0,0,0,0,0,0,0,0,,,,,,,,,,,,,,,,,,,,,,,,,,,,,,,,,,,,,,,,,,1,001,2021_Nov_17_1800,eeg_contingent_digits,2021.2.3,60.072651865459356,
1.0,1.0,9.0,3.0,13.0,,,,,,,,,0,0,0,0,0,1,1,1,0,0,0,0,,,,,,,,,0.01603011999759474,None,['return'],[0.2847148000000743],27.596588000000338,None,,,,,,,,,,,,,,,,,,,,,,,,1,001,2021_Nov_17_1800,eeg_contingent_digits,2021.2.3,60.072651865459356,
1.0,1.0,9.0,3.0,13.0,,,,,,,,,0,0,0,0,0,1,1,1,,,,,,,,,,,,,,,,,,,,,,,,,,,,,,,,,,,,,,,,,,1,001,2021_Nov_17_1800,eeg_contingent_digits,2021.2.3,60.072651865459356,
2.0,8.0,0.0,1.0,21.0,,,,,,,,,0,0,0,0,0,2,2,2,0,0,0,0,,,,,,,,,0.00017623999883653596,None,['return'],[0.12427260000185925],28.429065500000434,None,,,,,,,,,,,,,,,,,,,,,,,,1,001,2021_Nov_17_1800,eeg_contingent_digits,2021.2.3,60.072651865459356,
2.0,8.0,0.0,1.0,21.0,,,,,,,,,0,0,0,0,0,2,2,2,,,,,,,,,,,,,,,,,,,,,,,,,,,,,,,,,,,,,,,,,,1,001,2021_Nov_17_1800,eeg_contingent_digits,2021.2.3,60.072651865459356,
3.0,9.0,6.0,1.0,61.0,,,,,,,,,0,0,0,0,0,3,3,3,0,0,0,0,,,,,,,,,0.0005625399971904699,None,['return'],[0.16027440000107163],29.100999400001456,None,,,,,,,,,,,,,,,,,,,,,,,,1,001,2021_Nov_17_1800,eeg_contingent_digits,2021.2.3,60.072651865459356,
3.0,9.0,6.0,1.0,61.0,,,,,,,,,0,0,0,0,0,3,3,3,,,,,,,,,,,,,,,,,,,,,,,,,,,,,,,,,,,,,,,,,,1,001,2021_Nov_17_1800,eeg_contingent_digits,2021.2.3,60.072651865459356,
4.0,8.0,1.0,5.0,7.0,,,,,,,,,0,0,0,0,0,4,4,4,0,0,0,0,,,,,,,,,0.00015993999477359466,None,['return'],[0.11689120000301045],29.812481600001774,None,,,,,,,,,,,,,,,,,,,,,,,,1,001,2021_Nov_17_1800,eeg_contingent_digits,2021.2.3,60.072651865459356,
4.0,8.0,1.0,5.0,7.0,,,,,,,,,0,0,0,0,0,4,4,4,,,,,,,,,,,,,,,,,,,,,,,,,,,,,,,,,,,,,,,,,,1,001,2021_Nov_17_1800,eeg_contingent_digits,2021.2.3,60.072651865459356,
5.0,4.0,1.0,0.0,33.0,,,,,,,,,0,0,0,0,0,5,5,5,0,0,0,0,,,,,,,,,1.7140002455562353e-05,None,['return'],[0.12132769999880111],30.48000619999948,None,,,,,,,,,,,,,,,,,,,,,,,,1,001,2021_Nov_17_1800,eeg_contingent_digits,2021.2.3,60.072651865459356,
5.0,4.0,1.0,0.0,33.0,,,,,,,,,0,0,0,0,0,5,5,5,,,,,,,,,,,,,,,,,,,,,,,,,,,,,,,,,,,,,,,,,,1,001,2021_Nov_17_1800,eeg_contingent_digits,2021.2.3,60.072651865459356,
6.0,9.0,2.0,6.0,13.0,,,,,,,,,0,0,0,0,0,6,6,6,0,0,0,0,,,,,,,,,0.015554480003629578,None,['return'],[0.19172270000126446],31.1465520999991,None,,,,,,,,,,,,,,,,,,,,,,,,1,001,2021_Nov_17_1800,eeg_contingent_digits,2021.2.3,60.072651865459356,
6.0,9.0,2.0,6.0,13.0,,,,,,,,,0,0,0,0,0,6,6,6,,,,,,,,,,,,,,,,,,,,,,,,,,,,,,,,,,,,,,,,,,1,001,2021_Nov_17_1800,eeg_contingent_digits,2021.2.3,60.072651865459356,
7.0,2.0,3.0,0.0,10.0,,,,,,,,,0,0,0,0,0,7,7,7,0,0,0,0,,,,,,,,,0.016503579998243367,None,['return'],[0.1655138000023726],31.88078790000145,None,,,,,,,,,,,,,,,,,,,,,,,,1,001,2021_Nov_17_1800,eeg_contingent_digits,2021.2.3,60.072651865459356,
7.0,2.0,3.0,0.0,10.0,,,,,,,,,0,0,0,0,0,7,7,7,,,,,,,,,,,,,,,,,,,,,,,,,,,,,,,,,,,,,,,,,,1,001,2021_Nov_17_1800,eeg_contingent_digits,2021.2.3,60.072651865459356,
8.0,1.0,9.0,2.0,48.0,,,,,,,,,0,0,0,0,0,8,8,8,0,0,0,0,,,,,,,,,0.0007119399997463915,None,['return'],[0.2963630000012927],32.59400920000189,None,,,,,,,,,,,,,,,,,,,,,,,,1,001,2021_Nov_17_1800,eeg_contingent_digits,2021.2.3,60.072651865459356,
8.0,1.0,9.0,2.0,48.0,,,,,,,,,0,0,0,0,0,8,8,8,,,,,,,,,,,,,,,,,,,,,,,,,,,,,,,,,,,,,,,,,,1,001,2021_Nov_17_1800,eeg_contingent_digits,2021.2.3,60.072651865459356,
9.0,8.0,1.0,0.0,21.0,,,,,,,,,0,0,0,0,0,9,9,9,0,0,0,0,,,,,,,,,0.0009446399963053409,None,['return'],[0.34257680000155233],33.46179409999968,None,,,,,,,,,,,,,,,,,,,,,,,,1,001,2021_Nov_17_1800,eeg_contingent_digits,2021.2.3,60.072651865459356,
9.0,8.0,1.0,0.0,21.0,,,,,,,,,0,0,0,0,0,9,9,9,,,,,,,,,,,,,,,,,,,,,,,,,,,,,,,,,,,,,,,,,,1,001,2021_Nov_17_1800,eeg_contingent_digits,2021.2.3,60.072651865459356,
,,,,,,,,,,,,,0,0,0,0,,,,,,,,,,,,,,,,,,,,,,,33.84169159999874,None,,,,,,,,,,,,,,,,,,,,,,1,001,2021_Nov_17_1800,eeg_contingent_digits,2021.2.3,60.072651865459356,
,,,,,0.0,1.0,2.0,0.0,33.0,1.0,1.0,0.0,,,,,,,,,,,,,0,0,0,0,0,0,0,0,,,,,,,,,34.753635699998995,None,36.17869459999929,None,0.012208200001623482,None,37.598093399999925,None,"['0', 'return']","[0.2754404000006616, 0.4842826000021887]",38.6030494000006,None,38.6030494000006,None,38.6030494000006,None,,,,,,1,001,2021_Nov_17_1800,eeg_contingent_digits,2021.2.3,60.072651865459356,
,,,,,0.0,1.0,2.0,0.0,33.0,1.0,1.0,0.0,,,,,,,,,,,,,0,0,0,0,,,,,,,,,,,,,,,,,,,,,,,,,,,,,None,None,None,None,None,1,001,2021_Nov_17_1800,eeg_contingent_digits,2021.2.3,60.072651865459356,
,,,,,1.0,0.0,8.0,3.0,49.0,1.0,0.0,1.0,,,,,,,,,,,,,0,1,1,1,0,0,0,0,,,,,,,,,,,39.176992299999256,None,0.011367340001015691,None,41.24143760000152,None,"['0', 'return']","[0.01788939999823924, 0.15251250000073924]",42.25274690000151,None,42.25274690000151,None,42.25274690000151,None,,,,,,1,001,2021_Nov_17_1800,eeg_contingent_digits,2021.2.3,60.072651865459356,
