TrialID,NFB_digit1,NFB_digit2,NFB_digit3,practice_block.thisRepN,practice_block.thisTrialN,practice_block.thisN,practice_block.thisIndex,practice_trials.thisRepN,practice_trials.thisTrialN,practice_trials.thisN,practice_trials.thisIndex,response_practice.thisRepN,response_practice.thisTrialN,response_practice.thisN,response_practice.thisIndex,calibration_block.thisRepN,calibration_block.thisTrialN,calibration_block.thisN,calibration_block.thisIndex,experimental_block.thisRepN,experimental_block.thisTrialN,experimental_block.thisN,experimental_block.thisIndex,exp_trials.thisRepN,exp_trials.thisTrialN,exp_trials.thisN,exp_trials.thisIndex,Digit1_clear.started,Digit1_clear.stopped,Digit2_clear.started,Digit2_clear.stopped,Digit3_clear.started,Digit3_clear.stopped,key_resp_3.keys,key_resp_3.rt,key_resp_3.started,key_resp_3.stopped,text_4.started,text_4.stopped,text_5.started,text_5.stopped,Begin.started,Begin.stopped,participant,session,date,expName,psychopyVersion,frameRate,
0.0,6.0,2.0,4.0,0,0,0,0,0,0,0,0,0,0,0,0,,,,,,,,,,,,,0.014714619959704578,None,0.48037771997042,None,0.9631658199650701,None,"['num_4', 'return']","[0.6895886000129394, 0.8252779000031296]",16.435820299986517,None,,,,,,,1,001,2021_Oct_22_1558,eeg_contingent_digits,2021.2.3,60.009961663121274,
0.0,6.0,2.0,4.0,0,0,0,0,0,0,0,0,1,0,1,0,,,,,,,,,,,,,,,,,,,"['num_4', 'return']","[0.03518050001002848, 0.18653989999438636]",17.290693099988857,None,,,,,,,1,001,2021_Oct_22_1558,eeg_contingent_digits,2021.2.3,60.009961663121274,
0.0,6.0,2.0,4.0,0,0,0,0,0,0,0,0,2,0,2,0,,,,,,,,,,,,,,,,,,,"['num_4', 'return']","[0.01024969998979941, 0.11507189998519607]",17.506918999977643,None,,,,,,,1,001,2021_Oct_22_1558,eeg_contingent_digits,2021.2.3,60.009961663121274,
0.0,6.0,2.0,4.0,0,0,0,0,0,0,0,0,,,,,,,,,,,,,,,,,,,,,,,,,,,,,,,,,1,001,2021_Oct_22_1558,eeg_contingent_digits,2021.2.3,60.009961663121274,
1.0,1.0,9.0,3.0,0,0,0,0,0,1,1,1,0,0,0,0,,,,,,,,,,,,,0.007965260010678321,None,0.46682536002481356,None,0.9502399600169156,None,"['num_4', 'return']","[0.4824131000204943, 0.562158000015188]",19.099168099986855,None,,,,,,,1,001,2021_Oct_22_1558,eeg_contingent_digits,2021.2.3,60.009961663121274,
1.0,1.0,9.0,3.0,0,0,0,0,0,1,1,1,1,0,1,0,,,,,,,,,,,,,,,,,,,"['num_4', 'return']","[0.07463800002005883, 0.17106390002300031]",19.69063559998176,None,,,,,,,1,001,2021_Oct_22_1558,eeg_contingent_digits,2021.2.3,60.009961663121274,
1.0,1.0,9.0,3.0,0,0,0,0,0,1,1,1,2,0,2,0,,,,,,,,,,,,,,,,,,,"['num_4', 'return']","[0.032836099999258295, 0.12135339999804273]",19.89206829998875,None,,,,,,,1,001,2021_Oct_22_1558,eeg_contingent_digits,2021.2.3,60.009961663121274,
1.0,1.0,9.0,3.0,0,0,0,0,0,1,1,1,,,,,,,,,,,,,,,,,,,,,,,,,,,,,,,,,1,001,2021_Oct_22_1558,eeg_contingent_digits,2021.2.3,60.009961663121274,
2.0,8.0,0.0,1.0,0,0,0,0,0,2,2,2,0,0,0,0,,,,,,,,,,,,,0.010516160022234544,None,0.4878064600052312,None,0.9547175600309856,None,"['num_4', 'return']","[0.3667485000041779, 0.45513620000565425]",21.48658749999595,None,,,,,,,1,001,2021_Oct_22_1558,eeg_contingent_digits,2021.2.3,60.009961663121274,
2.0,8.0,0.0,1.0,0,0,0,0,0,2,2,2,1,0,1,0,,,,,,,,,,,,,,,,,,,"['num_4', 'return']","[0.06706780000240542, 0.14714049999020062]",21.978491099987878,None,,,,,,,1,001,2021_Oct_22_1558,eeg_contingent_digits,2021.2.3,60.009961663121274,
2.0,8.0,0.0,1.0,0,0,0,0,0,2,2,2,2,0,2,0,,,,,,,,,,,,,,,,,,,"['num_4', 'return']","[0.05381509999278933, 0.14153459999943152]",22.159658099990338,None,,,,,,,1,001,2021_Oct_22_1558,eeg_contingent_digits,2021.2.3,60.009961663121274,
2.0,8.0,0.0,1.0,0,0,0,0,0,2,2,2,,,,,,,,,,,,,,,,,,,,,,,,,,,,,,,,,1,001,2021_Oct_22_1558,eeg_contingent_digits,2021.2.3,60.009961663121274,
3.0,9.0,6.0,1.0,0,0,0,0,0,3,3,3,0,0,0,0,,,,,,,,,,,,,0.0009446600161027163,None,0.485916060017189,None,0.9532757600245532,None,"['num_4', 'return']","[0.38814630001434125, 0.46765350000350736]",23.78588729997864,None,,,,,,,1,001,2021_Oct_22_1558,eeg_contingent_digits,2021.2.3,60.009961663121274,
3.0,9.0,6.0,1.0,0,0,0,0,0,3,3,3,1,0,1,0,,,,,,,,,,,,,,,,,,,"['num_4', 'return']","[0.05482339998707175, 0.15085899998666719]",24.278505499998573,None,,,,,,,1,001,2021_Oct_22_1558,eeg_contingent_digits,2021.2.3,60.009961663121274,
3.0,9.0,6.0,1.0,0,0,0,0,0,3,3,3,2,0,2,0,,,,,,,,,,,,,,,,,,,"['num_4', 'return']","[0.03746690001571551, 0.11725139999180101]",24.463911099999677,None,,,,,,,1,001,2021_Oct_22_1558,eeg_contingent_digits,2021.2.3,60.009961663121274,
3.0,9.0,6.0,1.0,0,0,0,0,0,3,3,3,,,,,,,,,,,,,,,,,,,,,,,,,,,,,,,,,1,001,2021_Oct_22_1558,eeg_contingent_digits,2021.2.3,60.009961663121274,
4.0,8.0,1.0,5.0,0,0,0,0,0,4,4,4,0,0,0,0,,,,,,,,,,,,,0.009177660016575828,None,0.5022769600036554,None,0.9918763599998783,None,"['num_4', 'return']","[0.2860431000008248, 0.3738990000274498]",26.071687099989504,None,,,,,,,1,001,2021_Oct_22_1558,eeg_contingent_digits,2021.2.3,60.009961663121274,
4.0,8.0,1.0,5.0,0,0,0,0,0,4,4,4,1,0,1,0,,,,,,,,,,,,,,,,,,,"['num_4', 'return']","[0.07765540000400506, 0.15593070001341403]",26.465439299994614,None,,,,,,,1,001,2021_Oct_22_1558,eeg_contingent_digits,2021.2.3,60.009961663121274,
4.0,8.0,1.0,5.0,0,0,0,0,0,4,4,4,2,0,2,0,,,,,,,,,,,,,,,,,,,"['num_4', 'return']","[0.05483700000331737, 0.13461360000655986]",26.646673799987184,None,,,,,,,1,001,2021_Oct_22_1558,eeg_contingent_digits,2021.2.3,60.009961663121274,
4.0,8.0,1.0,5.0,0,0,0,0,0,4,4,4,,,,,,,,,,,,,,,,,,,,,,,,,,,,,,,,,1,001,2021_Oct_22_1558,eeg_contingent_digits,2021.2.3,60.009961663121274,
5.0,4.0,1.0,0.0,0,0,0,0,0,5,5,5,0,0,0,0,,,,,,,,,,,,,0.010330760007491335,None,0.4945802600122988,None,0.9715545600338373,None,"['num_4', 'return']","[0.26108389999717474, 0.3572969999804627]",28.264434999990044,None,,,,,,,1,001,2021_Oct_22_1558,eeg_contingent_digits,2021.2.3,60.009961663121274,
5.0,4.0,1.0,0.0,0,0,0,0,0,5,5,5,1,0,1,0,,,,,,,,,,,,,,,,,,,"['num_4', 'return']","[0.04200970000238158, 0.14540320000378415]",28.659813399979612,None,,,,,,,1,001,2021_Oct_22_1558,eeg_contingent_digits,2021.2.3,60.009961663121274,
5.0,4.0,1.0,0.0,0,0,0,0,0,5,5,5,2,0,2,0,,,,,,,,,,,,,,,,,,,"['num_4', 'return']","[0.0202817999816034, 0.12447429998428561]",28.83278219998465,None,,,,,,,1,001,2021_Oct_22_1558,eeg_contingent_digits,2021.2.3,60.009961663121274,
5.0,4.0,1.0,0.0,0,0,0,0,0,5,5,5,,,,,,,,,,,,,,,,,,,,,,,,,,,,,,,,,1,001,2021_Oct_22_1558,eeg_contingent_digits,2021.2.3,60.009961663121274,
6.0,9.0,2.0,6.0,0,0,0,0,0,6,6,6,0,0,0,0,,,,,,,,,,,,,0.01011236000340432,None,0.48708176001673564,None,0.9711021600232925,None,"['num_4', 'return']","[0.40873439999995753, 0.4643214999814518]",30.437575899995863,None,,,,,,,1,001,2021_Oct_22_1558,eeg_contingent_digits,2021.2.3,60.009961663121274,
6.0,9.0,2.0,6.0,0,0,0,0,0,6,6,6,1,0,1,0,,,,,,,,,,,,,,,,,,,['num_4'],[0.060118499997770414],30.945453899999848,None,,,,,,,1,001,2021_Oct_22_1558,eeg_contingent_digits,2021.2.3,60.009961663121274,
6.0,9.0,2.0,6.0,0,0,0,0,0,6,6,6,2,0,2,0,,,,,,,,,,,,,,,,,,,"['num_4', 'return']","[0.030809100018814206, 0.11928139999508858]",31.11853369997698,None,,,,,,,1,001,2021_Oct_22_1558,eeg_contingent_digits,2021.2.3,60.009961663121274,
6.0,9.0,2.0,6.0,0,0,0,0,0,6,6,6,,,,,,,,,,,,,,,,,,,,,,,,,,,,,,,,,1,001,2021_Oct_22_1558,eeg_contingent_digits,2021.2.3,60.009961663121274,
7.0,2.0,3.0,0.0,0,0,0,0,0,7,7,7,0,0,0,0,,,,,,,,,,,,,0.009737560001667589,None,0.4697053599811625,None,0.9536574599915184,None,"['num_4', 'return']","[0.3603525999933481, 0.43276879997574724]",32.70901459999732,None,,,,,,,1,001,2021_Oct_22_1558,eeg_contingent_digits,2021.2.3,60.009961663121274,
7.0,2.0,3.0,0.0,0,0,0,0,0,7,7,7,1,0,1,0,,,,,,,,,,,,,,,,,,,"['num_4', 'return']","[0.051204899995354936, 0.13906509999651462]",33.1704933999863,None,,,,,,,1,001,2021_Oct_22_1558,eeg_contingent_digits,2021.2.3,60.009961663121274,
7.0,2.0,3.0,0.0,0,0,0,0,0,7,7,7,2,0,2,0,,,,,,,,,,,,,,,,,,,"['num_4', 'return']","[0.04685620000236668, 0.125018100021407]",33.33641219997662,None,,,,,,,1,001,2021_Oct_22_1558,eeg_contingent_digits,2021.2.3,60.009961663121274,
7.0,2.0,3.0,0.0,0,0,0,0,0,7,7,7,,,,,,,,,,,,,,,,,,,,,,,,,,,,,,,,,1,001,2021_Oct_22_1558,eeg_contingent_digits,2021.2.3,60.009961663121274,
8.0,1.0,9.0,2.0,0,0,0,0,0,8,8,8,0,0,0,0,,,,,,,,,,,,,0.010120360006112605,None,0.49346706000505947,None,0.9542244600015692,None,"['num_4', 'return']","[0.33108060000813566, 0.3872463000006974]",34.93045519999578,None,,,,,,,1,001,2021_Oct_22_1558,eeg_contingent_digits,2021.2.3,60.009961663121274,
8.0,1.0,9.0,2.0,0,0,0,0,0,8,8,8,1,0,1,0,,,,,,,,,,,,,,,,,,,"['num_4', 'return']","[0.07563399997889064, 0.15541229999507777]",35.33827659999952,None,,,,,,,1,001,2021_Oct_22_1558,eeg_contingent_digits,2021.2.3,60.009961663121274,
8.0,1.0,9.0,2.0,0,0,0,0,0,8,8,8,2,0,2,0,,,,,,,,,,,,,,,,,,,"['num_4', 'return']","[0.06000100000528619, 0.11539270001230761]",35.52172329998575,None,,,,,,,1,001,2021_Oct_22_1558,eeg_contingent_digits,2021.2.3,60.009961663121274,
8.0,1.0,9.0,2.0,0,0,0,0,0,8,8,8,,,,,,,,,,,,,,,,,,,,,,,,,,,,,,,,,1,001,2021_Oct_22_1558,eeg_contingent_digits,2021.2.3,60.009961663121274,
9.0,8.0,1.0,0.0,0,0,0,0,0,9,9,9,0,0,0,0,,,,,,,,,,,,,0.010723760002292693,None,0.471778559993254,None,0.9554553600028157,None,"['num_4', 'return']","[0.2902594000042882, 0.35456030000932515]",37.10692569997627,None,,,,,,,1,001,2021_Oct_22_1558,eeg_contingent_digits,2021.2.3,60.009961663121274,
9.0,8.0,1.0,0.0,0,0,0,0,0,9,9,9,1,0,1,0,,,,,,,,,,,,,,,,,,,"['num_4', 'return']","[0.05907899999874644, 0.1395116999919992]",37.49032719997922,None,,,,,,,1,001,2021_Oct_22_1558,eeg_contingent_digits,2021.2.3,60.009961663121274,
9.0,8.0,1.0,0.0,0,0,0,0,0,9,9,9,2,0,2,0,,,,,,,,,,,,,,,,,,,"['num_4', 'return']","[0.03681499999947846, 0.1246406999998726]",37.65684239999973,None,,,,,,,1,001,2021_Oct_22_1558,eeg_contingent_digits,2021.2.3,60.009961663121274,
9.0,8.0,1.0,0.0,0,0,0,0,0,9,9,9,,,,,,,,,,,,,,,,,,,,,,,,,,,,,,,,,1,001,2021_Oct_22_1558,eeg_contingent_digits,2021.2.3,60.009961663121274,
,,,,0,0,0,0,,,,,,,,,,,,,,,,,,,,,,,,,,,,,,,37.80431429998134,None,,,,,1,001,2021_Oct_22_1558,eeg_contingent_digits,2021.2.3,60.009961663121274,
,,,,,,,,,,,,,,,,0,0,0,0,,,,,,,,,,,,,,,,,,,,,53.55949659997714,None,,,1,001,2021_Oct_22_1558,eeg_contingent_digits,2021.2.3,60.009961663121274,
,,,,,,,,,,,,,,,,,,,,,,,,,,,,,,,,,,,,,,,,,,63.55966259998968,None,,,,,,,
