TrialID,NFB_digit1,NFB_digit2,NFB_digit3,practice_block.thisRepN,practice_block.thisTrialN,practice_block.thisN,practice_block.thisIndex,practice_trials.thisRepN,practice_trials.thisTrialN,practice_trials.thisN,practice_trials.thisIndex,response_practice.thisRepN,response_practice.thisTrialN,response_practice.thisN,response_practice.thisIndex,calibration_block.thisRepN,calibration_block.thisTrialN,calibration_block.thisN,calibration_block.thisIndex,experimental_block.thisRepN,experimental_block.thisTrialN,experimental_block.thisN,experimental_block.thisIndex,exp_trials.thisRepN,exp_trials.thisTrialN,exp_trials.thisN,exp_trials.thisIndex,response_exp.thisRepN,response_exp.thisTrialN,response_exp.thisN,response_exp.thisIndex,Digit1_clear.started,Digit1_clear.stopped,Digit2_clear.started,Digit2_clear.stopped,Digit3_clear.started,Digit3_clear.stopped,key_resp_3.keys,key_resp_3.rt,key_resp_3.started,key_resp_3.stopped,text_4.started,text_4.stopped,text_5.started,text_5.stopped,Begin.started,Begin.stopped,Fixation.started,Fixation.stopped,text_6.started,text_6.stopped,text_2.started,text_2.stopped,text_7.started,text_7.stopped,text_8.started,text_8.stopped,sound_digit1.started,sound_digit1.stopped,sound_digit2.started,sound_digit2.stopped,sound_digit3.started,sound_digit3.stopped,key_resp.keys,key_resp.rt,key_resp.started,key_resp.stopped,Begin_3.started,Begin_3.stopped,participant,session,date,expName,psychopyVersion,frameRate,
0.0,6.0,2.0,4.0,0,0,0,0,0,0,0,0,0,0,0,0,,,,,,,,,,,,,,,,,0.0045066000311635435,None,0.4754184000194073,None,0.9599744000297505,None,"['num_4', 'return']","[0.4039751999953296, 0.48317940000561066]",17.685767999995733,None,,,,,,,,,,,,,,,,,,,,,,,,,,,,,1,001,2021_Oct_22_1602,eeg_contingent_digits,2021.2.3,59.626523314194905,
0.0,6.0,2.0,4.0,0,0,0,0,0,0,0,0,1,0,1,0,,,,,,,,,,,,,,,,,,,,,,,"['num_4', 'return']","[0.10283240000717342, 0.21558429999276996]",18.19395529999747,None,,,,,,,,,,,,,,,,,,,,,,,,,,,,,1,001,2021_Oct_22_1602,eeg_contingent_digits,2021.2.3,59.626523314194905,
0.0,6.0,2.0,4.0,0,0,0,0,0,0,0,0,2,0,2,0,,,,,,,,,,,,,,,,,,,,,,,"['num_4', 'return']","[0.06943629999295808, 0.14909479999914765]",18.42777670000214,None,,,,,,,,,,,,,,,,,,,,,,,,,,,,,1,001,2021_Oct_22_1602,eeg_contingent_digits,2021.2.3,59.626523314194905,
0.0,6.0,2.0,4.0,0,0,0,0,0,0,0,0,,,,,,,,,,,,,,,,,,,,,,,,,,,,,,,,,,,,,,,,,,,,,,,,,,,,,,,,,,,1,001,2021_Oct_22_1602,eeg_contingent_digits,2021.2.3,59.626523314194905,
1.0,1.0,9.0,3.0,0,0,0,0,0,1,1,1,0,0,0,0,,,,,,,,,,,,,,,,,0.010288800025591627,None,0.4707681000290904,None,0.9548908000288066,None,"['num_4', 'return']","[0.4709032999817282, 0.5914276999828871]",20.050277400005143,None,,,,,,,,,,,,,,,,,,,,,,,,,,,,,1,001,2021_Oct_22_1602,eeg_contingent_digits,2021.2.3,59.626523314194905,
1.0,1.0,9.0,3.0,0,0,0,0,0,1,1,1,1,0,1,0,,,,,,,,,,,,,,,,,,,,,,,"['num_4', 'return']","[0.05819919999339618, 0.17869269999209791]",20.662973900005454,None,,,,,,,,,,,,,,,,,,,,,,,,,,,,,1,001,2021_Oct_22_1602,eeg_contingent_digits,2021.2.3,59.626523314194905,
1.0,1.0,9.0,3.0,0,0,0,0,0,1,1,1,2,0,2,0,,,,,,,,,,,,,,,,,,,,,,,"['num_4', 'return']","[0.03385210002306849, 0.16220410002279095]",20.86353569998755,None,,,,,,,,,,,,,,,,,,,,,,,,,,,,,1,001,2021_Oct_22_1602,eeg_contingent_digits,2021.2.3,59.626523314194905,
1.0,1.0,9.0,3.0,0,0,0,0,0,1,1,1,,,,,,,,,,,,,,,,,,,,,,,,,,,,,,,,,,,,,,,,,,,,,,,,,,,,,,,,,,,1,001,2021_Oct_22_1602,eeg_contingent_digits,2021.2.3,59.626523314194905,
2.0,8.0,0.0,1.0,0,0,0,0,0,2,2,2,0,0,0,0,,,,,,,,,,,,,,,,,0.010315400024410337,None,0.4881980000354815,None,0.9710462000221014,None,"['num_4', 'return']","[0.3220384999876842, 0.385004099982325]",22.487943099986296,None,,,,,,,,,,,,,,,,,,,,,,,,,,,,,1,001,2021_Oct_22_1602,eeg_contingent_digits,2021.2.3,59.626523314194905,
2.0,8.0,0.0,1.0,0,0,0,0,0,2,2,2,1,0,1,0,,,,,,,,,,,,,,,,,,,,,,,"['num_4', 'return']","[0.09526829997776076, 0.18289870000444353]",22.89832429998205,None,,,,,,,,,,,,,,,,,,,,,,,,,,,,,1,001,2021_Oct_22_1602,eeg_contingent_digits,2021.2.3,59.626523314194905,
2.0,8.0,0.0,1.0,0,0,0,0,0,2,2,2,2,0,2,0,,,,,,,,,,,,,,,,,,,,,,,"['num_4', 'return']","[0.03934070002287626, 0.13492800001404248]",23.113844599982258,None,,,,,,,,,,,,,,,,,,,,,,,,,,,,,1,001,2021_Oct_22_1602,eeg_contingent_digits,2021.2.3,59.626523314194905,
2.0,8.0,0.0,1.0,0,0,0,0,0,2,2,2,,,,,,,,,,,,,,,,,,,,,,,,,,,,,,,,,,,,,,,,,,,,,,,,,,,,,,,,,,,1,001,2021_Oct_22_1602,eeg_contingent_digits,2021.2.3,59.626523314194905,
3.0,9.0,6.0,1.0,0,0,0,0,0,3,3,3,0,0,0,0,,,,,,,,,,,,,,,,,0.010331599973142147,None,0.4709288999729324,None,0.9550964999943972,None,"['num_4', 'return']","[0.3644149000174366, 0.45195760001661256]",24.717059199989308,None,,,,,,,,,,,,,,,,,,,,,,,,,,,,,1,001,2021_Oct_22_1602,eeg_contingent_digits,2021.2.3,59.626523314194905,
3.0,9.0,6.0,1.0,0,0,0,0,0,3,3,3,1,0,1,0,,,,,,,,,,,,,,,,,,,,,,,"['num_4', 'return']","[0.06597860000329092, 0.16975329999695532]",25.199405999999726,None,,,,,,,,,,,,,,,,,,,,,,,,,,,,,1,001,2021_Oct_22_1602,eeg_contingent_digits,2021.2.3,59.626523314194905,
3.0,9.0,6.0,1.0,0,0,0,0,0,3,3,3,2,0,2,0,,,,,,,,,,,,,,,,,,,,,,,"['num_4', 'return']","[0.04107169999042526, 0.13767470000311732]",25.399821099999826,None,,,,,,,,,,,,,,,,,,,,,,,,,,,,,1,001,2021_Oct_22_1602,eeg_contingent_digits,2021.2.3,59.626523314194905,
3.0,9.0,6.0,1.0,0,0,0,0,0,3,3,3,,,,,,,,,,,,,,,,,,,,,,,,,,,,,,,,,,,,,,,,,,,,,,,,,,,,,,,,,,,1,001,2021_Oct_22_1602,eeg_contingent_digits,2021.2.3,59.626523314194905,
4.0,8.0,1.0,5.0,0,0,0,0,0,4,4,4,0,0,0,0,,,,,,,,,,,,,,,,,0.010659999999916181,None,0.48756480001611635,None,0.9552204000065103,None,"['num_4', 'return']","[0.4059574999846518, 0.5102012999996077]",27.011059399985243,None,,,,,,,,,,,,,,,,,,,,,,,,,,,,,1,001,2021_Oct_22_1602,eeg_contingent_digits,2021.2.3,59.626523314194905,
4.0,8.0,1.0,5.0,0,0,0,0,0,4,4,4,1,0,1,0,,,,,,,,,,,,,,,,,,,,,,,"['num_4', 'return']","[0.04028029998880811, 0.16077250000671484]",27.55316660000244,None,,,,,,,,,,,,,,,,,,,,,,,,,,,,,1,001,2021_Oct_22_1602,eeg_contingent_digits,2021.2.3,59.626523314194905,
4.0,8.0,1.0,5.0,0,0,0,0,0,4,4,4,2,0,2,0,,,,,,,,,,,,,,,,,,,,,,,"['num_4', 'return']","[0.03455300000496209, 0.1381962999876123]",27.73530070000561,None,,,,,,,,,,,,,,,,,,,,,,,,,,,,,1,001,2021_Oct_22_1602,eeg_contingent_digits,2021.2.3,59.626523314194905,
4.0,8.0,1.0,5.0,0,0,0,0,0,4,4,4,,,,,,,,,,,,,,,,,,,,,,,,,,,,,,,,,,,,,,,,,,,,,,,,,,,,,,,,,,,1,001,2021_Oct_22_1602,eeg_contingent_digits,2021.2.3,59.626523314194905,
5.0,4.0,1.0,0.0,0,0,0,0,0,5,5,5,0,0,0,0,,,,,,,,,,,,,,,,,0.01085130003048107,None,0.489573900034884,None,0.9726966000162065,None,"['num_4', 'return']","[0.4081462000031024, 0.5363985000003595]",29.345006099989405,None,,,,,,,,,,,,,,,,,,,,,,,,,,,,,1,001,2021_Oct_22_1602,eeg_contingent_digits,2021.2.3,59.626523314194905,
5.0,4.0,1.0,0.0,0,0,0,0,0,5,5,5,1,0,1,0,,,,,,,,,,,,,,,,,,,,,,,"['num_4', 'return']","[0.017870099982246757, 0.1696317000023555]",29.90332579999813,None,,,,,,,,,,,,,,,,,,,,,,,,,,,,,1,001,2021_Oct_22_1602,eeg_contingent_digits,2021.2.3,59.626523314194905,
5.0,4.0,1.0,0.0,0,0,0,0,0,5,5,5,2,0,2,0,,,,,,,,,,,,,,,,,,,,,,,"['num_4', 'return']","[0.009401299990713596, 0.12147639997419901]",30.103785099985544,None,,,,,,,,,,,,,,,,,,,,,,,,,,,,,1,001,2021_Oct_22_1602,eeg_contingent_digits,2021.2.3,59.626523314194905,
5.0,4.0,1.0,0.0,0,0,0,0,0,5,5,5,,,,,,,,,,,,,,,,,,,,,,,,,,,,,,,,,,,,,,,,,,,,,,,,,,,,,,,,,,,1,001,2021_Oct_22_1602,eeg_contingent_digits,2021.2.3,59.626523314194905,
6.0,9.0,2.0,6.0,0,0,0,0,0,6,6,6,0,0,0,0,,,,,,,,,,,,,,,,,0.011027300002751872,None,0.495503500016639,None,0.9784922999970149,None,"['num_4', 'return']","[0.31155159999616444, 0.38391500001307577]",31.69768519999343,None,,,,,,,,,,,,,,,,,,,,,,,,,,,,,1,001,2021_Oct_22_1602,eeg_contingent_digits,2021.2.3,59.626523314194905,
6.0,9.0,2.0,6.0,0,0,0,0,0,6,6,6,1,0,1,0,,,,,,,,,,,,,,,,,,,,,,,"['num_4', 'return']","[0.06908280000789091, 0.17265880000195466]",32.11666739999782,None,,,,,,,,,,,,,,,,,,,,,,,,,,,,,1,001,2021_Oct_22_1602,eeg_contingent_digits,2021.2.3,59.626523314194905,
6.0,9.0,2.0,6.0,0,0,0,0,0,6,6,6,2,0,2,0,,,,,,,,,,,,,,,,,,,,,,,"['num_4', 'return']","[0.031603299983544275, 0.11956600000848994]",32.32189599997946,None,,,,,,,,,,,,,,,,,,,,,,,,,,,,,1,001,2021_Oct_22_1602,eeg_contingent_digits,2021.2.3,59.626523314194905,
6.0,9.0,2.0,6.0,0,0,0,0,0,6,6,6,,,,,,,,,,,,,,,,,,,,,,,,,,,,,,,,,,,,,,,,,,,,,,,,,,,,,,,,,,,1,001,2021_Oct_22_1602,eeg_contingent_digits,2021.2.3,59.626523314194905,
7.0,2.0,3.0,0.0,0,0,0,0,0,7,7,7,0,0,0,0,,,,,,,,,,,,,,,,,0.0015571000112686306,None,0.4698227000189945,None,0.9536597000260372,None,"['num_4', 'return']","[0.3740059000265319, 0.4543736000196077]",33.93147749998025,None,,,,,,,,,,,,,,,,,,,,,,,,,,,,,1,001,2021_Oct_22_1602,eeg_contingent_digits,2021.2.3,59.626523314194905,
7.0,2.0,3.0,0.0,0,0,0,0,0,7,7,7,1,0,1,0,,,,,,,,,,,,,,,,,,,,,,,"['num_4', 'return']","[0.0739330000069458, 0.1705610000062734]",34.40719870000612,None,,,,,,,,,,,,,,,,,,,,,,,,,,,,,1,001,2021_Oct_22_1602,eeg_contingent_digits,2021.2.3,59.626523314194905,
7.0,2.0,3.0,0.0,0,0,0,0,0,7,7,7,2,0,2,0,,,,,,,,,,,,,,,,,,,,,,,"['num_4', 'return']","[0.025850099977105856, 0.12194369998178445]",34.60720269999001,None,,,,,,,,,,,,,,,,,,,,,,,,,,,,,1,001,2021_Oct_22_1602,eeg_contingent_digits,2021.2.3,59.626523314194905,
7.0,2.0,3.0,0.0,0,0,0,0,0,7,7,7,,,,,,,,,,,,,,,,,,,,,,,,,,,,,,,,,,,,,,,,,,,,,,,,,,,,,,,,,,,1,001,2021_Oct_22_1602,eeg_contingent_digits,2021.2.3,59.626523314194905,
8.0,1.0,9.0,2.0,0,0,0,0,0,8,8,8,0,0,0,0,,,,,,,,,,,,,,,,,0.010128000023541972,None,0.487392200040631,None,0.95418970004539,None,"['num_4', 'return']","[0.4481681000033859, 0.5847971999901347]",36.20106560000568,None,,,,,,,,,,,,,,,,,,,,,,,,,,,,,1,001,2021_Oct_22_1602,eeg_contingent_digits,2021.2.3,59.626523314194905,
8.0,1.0,9.0,2.0,0,0,0,0,0,8,8,8,1,0,1,0,,,,,,,,,,,,,,,,,,,,,,,"['num_4', 'num_4', 'return']","[0.012828800012357533, 0.1252919000107795, 0.13367149999248795]",36.819935099978466,None,,,,,,,,,,,,,,,,,,,,,,,,,,,,,1,001,2021_Oct_22_1602,eeg_contingent_digits,2021.2.3,59.626523314194905,
8.0,1.0,9.0,2.0,0,0,0,0,0,8,8,8,2,0,2,0,,,,,,,,,,,,,,,,,,,,,,,['return'],[0.5531721000152174],36.97606509999605,None,,,,,,,,,,,,,,,,,,,,,,,,,,,,,1,001,2021_Oct_22_1602,eeg_contingent_digits,2021.2.3,59.626523314194905,
8.0,1.0,9.0,2.0,0,0,0,0,0,8,8,8,,,,,,,,,,,,,,,,,,,,,,,,,,,,,,,,,,,,,,,,,,,,,,,,,,,,,,,,,,,1,001,2021_Oct_22_1602,eeg_contingent_digits,2021.2.3,59.626523314194905,
9.0,8.0,1.0,0.0,0,0,0,0,0,9,9,9,0,0,0,0,,,,,,,,,,,,,,,,,0.010463199985679239,None,0.47162529997876845,None,0.9551465999975335,None,"['num_4', 'return']","[0.3483198000176344, 0.4454877999960445]",38.99638659998891,None,,,,,,,,,,,,,,,,,,,,,,,,,,,,,1,001,2021_Oct_22_1602,eeg_contingent_digits,2021.2.3,59.626523314194905,
9.0,8.0,1.0,0.0,0,0,0,0,0,9,9,9,1,0,1,0,,,,,,,,,,,,,,,,,,,,,,,"['num_4', 'return']","[0.06056479999097064, 0.1713469999958761]",39.46182039999985,None,,,,,,,,,,,,,,,,,,,,,,,,,,,,,1,001,2021_Oct_22_1602,eeg_contingent_digits,2021.2.3,59.626523314194905,
9.0,8.0,1.0,0.0,0,0,0,0,0,9,9,9,2,0,2,0,,,,,,,,,,,,,,,,,,,,,,,"['num_4', 'return']","[0.027148500026669353, 0.13160079999943264]",39.66257809998933,None,,,,,,,,,,,,,,,,,,,,,,,,,,,,,1,001,2021_Oct_22_1602,eeg_contingent_digits,2021.2.3,59.626523314194905,
9.0,8.0,1.0,0.0,0,0,0,0,0,9,9,9,,,,,,,,,,,,,,,,,,,,,,,,,,,,,,,,,,,,,,,,,,,,,,,,,,,,,,,,,,,1,001,2021_Oct_22_1602,eeg_contingent_digits,2021.2.3,59.626523314194905,
,,,,0,0,0,0,,,,,,,,,,,,,,,,,,,,,,,,,,,,,,,,,,,39.82647649999126,None,,,,,,,,,,,,,,,,,,,,,,,,,,,1,001,2021_Oct_22_1602,eeg_contingent_digits,2021.2.3,59.626523314194905,
,,,,,,,,,,,,,,,,0,0,0,0,,,,,,,,,,,,,,,,,,,,,,,,,55.91683329999796,None,,,,,,,,,,,,,,,,,,,,,,,,,1,001,2021_Oct_22_1602,eeg_contingent_digits,2021.2.3,59.626523314194905,
0.0,0.0,9.0,2.0,,,,,,,,,,,,,,,,,0,0,0,0,0,0,0,0,0,0,0,0,,,,,,,,,,,,,,,65.93189019997953,None,67.14582129998598,None,67.14582129998598,None,67.14582129998598,None,67.14582129998598,None,67.14582129998598,None,0.009811900003114715,None,0.47807869999087416,None,0.9605760000122245,None,"['num_4', 'return']","[0.8751604999997653, 1.1151681000192184]",72.99025770000299,None,,,1,001,2021_Oct_22_1602,eeg_contingent_digits,2021.2.3,59.626523314194905,
0.0,0.0,9.0,2.0,,,,,,,,,,,,,,,,,0,0,0,0,0,0,0,0,1,0,1,0,,,,,,,,,,,,,,,,,,,,,,,,,,,,,,,,,"['num_4', 'return']","[0.1612633999902755, 0.38412309999694116]",74.14523589998134,None,,,1,001,2021_Oct_22_1602,eeg_contingent_digits,2021.2.3,59.626523314194905,
0.0,0.0,9.0,2.0,,,,,,,,,,,,,,,,,0,0,0,0,0,0,0,0,2,0,2,0,,,,,,,,,,,,,,,,,,,,,,,,,,,,,,,,,"['num_4', 'return']","[0.1713127999973949, 0.4029144000087399]",74.55800869999803,None,,,1,001,2021_Oct_22_1602,eeg_contingent_digits,2021.2.3,59.626523314194905,
0.0,0.0,9.0,2.0,,,,,,,,,,,,,,,,,0,0,0,0,0,0,0,0,,,,,,,,,,,,,,,,,,,,,,,,,,,,,,,,,,,,,,,,,None,None,1,001,2021_Oct_22_1602,eeg_contingent_digits,2021.2.3,59.626523314194905,
1.0,3.0,8.0,2.0,,,,,,,,,,,,,,,,,0,0,0,0,0,1,1,1,0,0,0,0,,,,,,,,,,,,,,,,,75.0138798999833,None,75.0138798999833,None,75.0138798999833,None,75.0138798999833,None,75.0138798999833,None,0.0009664999961387366,None,0.46858220000285655,None,0.9599731999915093,None,"['num_4', 'return']","[0.8916847000073176, 1.1556824000144843]",83.73356049999711,None,,,1,001,2021_Oct_22_1602,eeg_contingent_digits,2021.2.3,59.626523314194905,
1.0,3.0,8.0,2.0,,,,,,,,,,,,,,,,,0,0,0,0,0,1,1,1,1,0,1,0,,,,,,,,,,,,,,,,,,,,,,,,,,,,,,,,,"['num_4', 'return']","[0.16482259999611415, 0.38854490002267994]",84.91658129999996,None,,,1,001,2021_Oct_22_1602,eeg_contingent_digits,2021.2.3,59.626523314194905,
1.0,3.0,8.0,2.0,,,,,,,,,,,,,,,,,0,0,0,0,0,1,1,1,2,0,2,0,,,,,,,,,,,,,,,,,,,,,,,,,,,,,,,,,"['num_4', 'return']","[0.18816079999669455, 0.4042246999742929]",85.33317009999882,None,,,1,001,2021_Oct_22_1602,eeg_contingent_digits,2021.2.3,59.626523314194905,
1.0,3.0,8.0,2.0,,,,,,,,,,,,,,,,,0,0,0,0,0,1,1,1,,,,,,,,,,,,,,,,,,,,,,,,,,,,,,,,,,,,,,,,,None,None,1,001,2021_Oct_22_1602,eeg_contingent_digits,2021.2.3,59.626523314194905,
2.0,8.0,6.0,3.0,,,,,,,,,,,,,,,,,0,0,0,0,0,2,2,2,0,0,0,0,,,,,,,,,,,,,,,,,85.77891409999575,None,85.77891409999575,None,85.77891409999575,None,85.77891409999575,None,85.77891409999575,None,7.200025720521808e-06,None,0.4736211000417825,None,0.9572918000339996,None,"['num_4', 'return']","[0.5118940999964252, 0.6787973000027705]",92.0421076999919,None,,,1,001,2021_Oct_22_1602,eeg_contingent_digits,2021.2.3,59.626523314194905,
2.0,8.0,6.0,3.0,,,,,,,,,,,,,,,,,0,0,0,0,0,2,2,2,1,0,1,0,,,,,,,,,,,,,,,,,,,,,,,,,,,,,,,,,"['num_4', 'return']","[0.1466097000229638, 0.35495870001614094]",92.76627170000575,None,,,1,001,2021_Oct_22_1602,eeg_contingent_digits,2021.2.3,59.626523314194905,
2.0,8.0,6.0,3.0,,,,,,,,,,,,,,,,,0,0,0,0,0,2,2,2,2,0,2,0,,,,,,,,,,,,,,,,,,,,,,,,,,,,,,,,,"['num_4', 'return']","[0.12286949998815544, 0.2984397000109311]",93.15857430000324,None,,,1,001,2021_Oct_22_1602,eeg_contingent_digits,2021.2.3,59.626523314194905,
2.0,8.0,6.0,3.0,,,,,,,,,,,,,,,,,0,0,0,0,0,2,2,2,,,,,,,,,,,,,,,,,,,,,,,,,,,,,,,,,,,,,,,,,None,None,1,001,2021_Oct_22_1602,eeg_contingent_digits,2021.2.3,59.626523314194905,
3.0,0.0,1.0,3.0,,,,,,,,,,,,,,,,,0,0,0,0,0,3,3,3,0,0,0,0,,,,,,,,,,,,,,,,,93.5018053999811,None,93.5018053999811,None,93.5018053999811,None,93.5018053999811,None,93.5018053999811,None,0.003694799990626052,None,0.4947690999833867,None,0.9564694999717176,None,"['num_4', 'return']","[0.45399920002091676, 0.6542118000215851]",100.23560349998297,None,,,1,001,2021_Oct_22_1602,eeg_contingent_digits,2021.2.3,59.626523314194905,
3.0,0.0,1.0,3.0,,,,,,,,,,,,,,,,,0,0,0,0,0,3,3,3,1,0,1,0,,,,,,,,,,,,,,,,,,,,,,,,,,,,,,,,,"['num_4', 'return']","[0.17643530000350438, 0.35188770000240766]",100.91328119998798,None,,,1,001,2021_Oct_22_1602,eeg_contingent_digits,2021.2.3,59.626523314194905,
3.0,0.0,1.0,3.0,,,,,,,,,,,,,,,,,0,0,0,0,0,3,3,3,2,0,2,0,,,,,,,,,,,,,,,,,,,,,,,,,,,,,,,,,"['num_4', 'return']","[0.16159500001231208, 0.3526645000092685]",101.2967308999796,None,,,1,001,2021_Oct_22_1602,eeg_contingent_digits,2021.2.3,59.626523314194905,
3.0,0.0,1.0,3.0,,,,,,,,,,,,,,,,,0,0,0,0,0,3,3,3,,,,,,,,,,,,,,,,,,,,,,,,,,,,,,,,,,,,,,,,,None,None,1,001,2021_Oct_22_1602,eeg_contingent_digits,2021.2.3,59.626523314194905,
4.0,5.0,0.0,4.0,,,,,,,,,,,,,,,,,0,0,0,0,0,4,4,4,0,0,0,0,,,,,,,,,,,,,,,,,101.6958526999806,None,101.6958526999806,None,101.6958526999806,None,101.6958526999806,None,101.6958526999806,None,0.009049000014783815,None,0.4838455000135582,None,0.9668444000126328,None,['return'],[1.4356117999996059],107.77356619999046,None,,,1,001,2021_Oct_22_1602,eeg_contingent_digits,2021.2.3,59.626523314194905,
4.0,5.0,0.0,4.0,,,,,,,,,,,,,,,,,0,0,0,0,0,4,4,4,1,0,1,0,,,,,,,,,,,,,,,,,,,,,,,,,,,,,,,,,"['num_4', 'return']","[0.20056499997735955, 0.5759291999856941]",109.23326379997889,None,,,1,001,2021_Oct_22_1602,eeg_contingent_digits,2021.2.3,59.626523314194905,
4.0,5.0,0.0,4.0,,,,,,,,,,,,,,,,,0,0,0,0,0,4,4,4,2,0,2,0,,,,,,,,,,,,,,,,,,,,,,,,,,,,,,,,,"['num_4', 'return']","[0.20449569998891093, 0.6047604999912437]",109.83723659999669,None,,,1,001,2021_Oct_22_1602,eeg_contingent_digits,2021.2.3,59.626523314194905,
4.0,5.0,0.0,4.0,,,,,,,,,,,,,,,,,0,0,0,0,0,4,4,4,,,,,,,,,,,,,,,,,,,,,,,,,,,,,,,,,,,,,,,,,None,None,1,001,2021_Oct_22_1602,eeg_contingent_digits,2021.2.3,59.626523314194905,
5.0,9.0,8.0,0.0,,,,,,,,,,,,,,,,,0,0,0,0,0,5,5,5,0,0,0,0,,,,,,,,,,,,,,,,,110.48199279999244,None,110.48199279999244,None,110.48199279999244,None,110.48199279999244,None,110.48199279999244,None,0.0008322000212501734,None,0.460298000019975,None,0.9438162000151351,None,['return'],[1.03170439999667],117.57830659998581,None,,,1,001,2021_Oct_22_1602,eeg_contingent_digits,2021.2.3,59.626523314194905,
5.0,9.0,8.0,0.0,,,,,,,,,,,,,,,,,0,0,0,0,0,5,5,5,1,0,1,0,,,,,,,,,,,,,,,,,,,,,,,,,,,,,,,,,"['num_4', 'return']","[0.2245118000137154, 0.7204985000134911]",118.64087430000654,None,,,1,001,2021_Oct_22_1602,eeg_contingent_digits,2021.2.3,59.626523314194905,
5.0,9.0,8.0,0.0,,,,,,,,,,,,,,,,,0,0,0,0,0,5,5,5,2,0,2,0,,,,,,,,,,,,,,,,,,,,,,,,,,,,,,,,,"['num_4', 'return']","[0.34962230001110584, 0.7105013999971561]",119.3958147999947,None,,,1,001,2021_Oct_22_1602,eeg_contingent_digits,2021.2.3,59.626523314194905,
5.0,9.0,8.0,0.0,,,,,,,,,,,,,,,,,0,0,0,0,0,5,5,5,,,,,,,,,,,,,,,,,,,,,,,,,,,,,,,,,,,,,,,,,None,None,1,001,2021_Oct_22_1602,eeg_contingent_digits,2021.2.3,59.626523314194905,
6.0,9.0,4.0,0.0,,,,,,,,,,,,,,,,,0,0,0,0,0,6,6,6,0,0,0,0,,,,,,,,,,,,,,,,,120.1497068000026,None,120.1497068000026,None,120.1497068000026,None,120.1497068000026,None,120.1497068000026,None,0.005635299981804565,None,0.4812011999893002,None,0.96499809998204,None,"['num_4', 'return']","[0.5183602999895811, 0.7814014999894425]",125.62759489999735,None,,,1,001,2021_Oct_22_1602,eeg_contingent_digits,2021.2.3,59.626523314194905,
6.0,9.0,4.0,0.0,,,,,,,,,,,,,,,,,0,0,0,0,0,6,6,6,1,0,1,0,,,,,,,,,,,,,,,,,,,,,,,,,,,,,,,,,"['num_4', 'return']","[0.30144969999673776, 0.532979699986754]",126.4358386999811,None,,,1,001,2021_Oct_22_1602,eeg_contingent_digits,2021.2.3,59.626523314194905,
6.0,9.0,4.0,0.0,,,,,,,,,,,,,,,,,0,0,0,0,0,6,6,6,2,0,2,0,,,,,,,,,,,,,,,,,,,,,,,,,,,,,,,,,"['num_4', 'return']","[0.2786060000071302, 0.5109420999942813]",127.00266179998289,None,,,1,001,2021_Oct_22_1602,eeg_contingent_digits,2021.2.3,59.626523314194905,
6.0,9.0,4.0,0.0,,,,,,,,,,,,,,,,,0,0,0,0,0,6,6,6,,,,,,,,,,,,,,,,,,,,,,,,,,,,,,,,,,,,,,,,,None,None,1,001,2021_Oct_22_1602,eeg_contingent_digits,2021.2.3,59.626523314194905,
7.0,2.0,1.0,3.0,,,,,,,,,,,,,,,,,0,0,0,0,0,7,7,7,0,0,0,0,,,,,,,,,,,,,,,,,127.54618449998088,None,127.54618449998088,None,127.54618449998088,None,127.54618449998088,None,127.54618449998088,None,0.00456919998396188,None,0.4871977999864612,None,0.9539659999718424,None,"['num_4', 'return']","[0.468651500006672, 0.7163238000066485]",132.34871309998562,None,,,1,001,2021_Oct_22_1602,eeg_contingent_digits,2021.2.3,59.626523314194905,
7.0,2.0,1.0,3.0,,,,,,,,,,,,,,,,,0,0,0,0,0,7,7,7,1,0,1,0,,,,,,,,,,,,,,,,,,,,,,,,,,,,,,,,,"['num_4', 'return']","[0.25525719998404384, 0.49563029999262653]",133.0898830999795,None,,,1,001,2021_Oct_22_1602,eeg_contingent_digits,2021.2.3,59.626523314194905,
7.0,2.0,1.0,3.0,,,,,,,,,,,,,,,,,0,0,0,0,0,7,7,7,2,0,2,0,,,,,,,,,,,,,,,,,,,,,,,,,,,,,,,,,"['num_4', 'return']","[0.2667455000046175, 0.44262659997912124]",133.606057099998,None,,,1,001,2021_Oct_22_1602,eeg_contingent_digits,2021.2.3,59.626523314194905,
7.0,2.0,1.0,3.0,,,,,,,,,,,,,,,,,0,0,0,0,0,7,7,7,,,,,,,,,,,,,,,,,,,,,,,,,,,,,,,,,,,,,,,,,None,None,1,001,2021_Oct_22_1602,eeg_contingent_digits,2021.2.3,59.626523314194905,
8.0,2.0,4.0,1.0,,,,,,,,,,,,,,,,,0,0,0,0,0,8,8,8,0,0,0,0,,,,,,,,,,,,,,,,,134.09283769998,None,134.09283769998,None,134.09283769998,None,134.09283769998,None,134.09283769998,None,0.008226800011470914,None,0.4862479000003077,None,0.9697479000024032,None,"['num_4', 'return']","[0.4569121999957133, 0.6335758999921381]",138.70414449999225,None,,,1,001,2021_Oct_22_1602,eeg_contingent_digits,2021.2.3,59.626523314194905,
8.0,2.0,4.0,1.0,,,,,,,,,,,,,,,,,0,0,0,0,0,8,8,8,1,0,1,0,,,,,,,,,,,,,,,,,,,,,,,,,,,,,,,,,"['num_4', 'return']","[0.23238159998436458, 0.4002739999850746]",139.36137100000633,None,,,1,001,2021_Oct_22_1602,eeg_contingent_digits,2021.2.3,59.626523314194905,
8.0,2.0,4.0,1.0,,,,,,,,,,,,,,,,,0,0,0,0,0,8,8,8,2,0,2,0,,,,,,,,,,,,,,,,,,,,,,,,,,,,,,,,,"['num_4', 'return']","[0.1733587000053376, 0.3178200999973342]",139.79539179999847,None,,,1,001,2021_Oct_22_1602,eeg_contingent_digits,2021.2.3,59.626523314194905,
8.0,2.0,4.0,1.0,,,,,,,,,,,,,,,,,0,0,0,0,0,8,8,8,,,,,,,,,,,,,,,,,,,,,,,,,,,,,,,,,,,,,,,,,None,None,1,001,2021_Oct_22_1602,eeg_contingent_digits,2021.2.3,59.626523314194905,
9.0,6.0,0.0,5.0,,,,,,,,,,,,,,,,,0,0,0,0,0,9,9,9,0,0,0,0,,,,,,,,,,,,,,,,,140.16495539998868,None,140.16495539998868,None,140.16495539998868,None,140.16495539998868,None,140.16495539998868,None,0.015083700011018664,None,0.48928629999863915,None,0.9732101999979932,None,"['num_4', 'return']","[0.5065881999908015, 0.7387730999907944]",147.91838210000424,None,,,1,001,2021_Oct_22_1602,eeg_contingent_digits,2021.2.3,59.626523314194905,
9.0,6.0,0.0,5.0,,,,,,,,,,,,,,,,,0,0,0,0,0,9,9,9,1,0,1,0,,,,,,,,,,,,,,,,,,,,,,,,,,,,,,,,,"['num_4', 'return']","[0.19535610001184978, 0.4034879000100773]",148.68579409999074,None,,,1,001,2021_Oct_22_1602,eeg_contingent_digits,2021.2.3,59.626523314194905,
9.0,6.0,0.0,5.0,,,,,,,,,,,,,,,,,0,0,0,0,0,9,9,9,2,0,2,0,,,,,,,,,,,,,,,,,,,,,,,,,,,,,,,,,"['num_4', 'return']","[0.17518580000614747, 0.46314970002276823]",149.1301152999804,None,,,1,001,2021_Oct_22_1602,eeg_contingent_digits,2021.2.3,59.626523314194905,
9.0,6.0,0.0,5.0,,,,,,,,,,,,,,,,,0,0,0,0,0,9,9,9,,,,,,,,,,,,,,,,,,,,,,,,,,,,,,,,,,,,,,,,,None,None,1,001,2021_Oct_22_1602,eeg_contingent_digits,2021.2.3,59.626523314194905,
10.0,2.0,5.0,3.0,,,,,,,,,,,,,,,,,0,0,0,0,0,10,10,10,0,0,0,0,,,,,,,,,,,,,,,,,149.63252959999954,None,149.63252959999954,None,149.63252959999954,None,149.63252959999954,None,149.63252959999954,None,0.00707620001048781,None,0.48663180001312867,None,0.9754699000041,None,"['num_4', 'return']","[0.3942457000084687, 0.6023840999987442]",154.56695290000062,None,,,1,001,2021_Oct_22_1602,eeg_contingent_digits,2021.2.3,59.626523314194905,
10.0,2.0,5.0,3.0,,,,,,,,,,,,,,,,,0,0,0,0,0,10,10,10,1,0,1,0,,,,,,,,,,,,,,,,,,,,,,,,,,,,,,,,,"['num_4', 'return']","[0.17834610000136308, 0.3699549000011757]",155.1911935999815,None,,,1,001,2021_Oct_22_1602,eeg_contingent_digits,2021.2.3,59.626523314194905,
10.0,2.0,5.0,3.0,,,,,,,,,,,,,,,,,0,0,0,0,0,10,10,10,2,0,2,0,,,,,,,,,,,,,,,,,,,,,,,,,,,,,,,,,"['num_4', 'return']","[0.15196809999179095, 0.3602703000069596]",155.59300140000414,None,,,1,001,2021_Oct_22_1602,eeg_contingent_digits,2021.2.3,59.626523314194905,
10.0,2.0,5.0,3.0,,,,,,,,,,,,,,,,,0,0,0,0,0,10,10,10,,,,,,,,,,,,,,,,,,,,,,,,,,,,,,,,,,,,,,,,,None,None,1,001,2021_Oct_22_1602,eeg_contingent_digits,2021.2.3,59.626523314194905,
11.0,6.0,2.0,5.0,,,,,,,,,,,,,,,,,0,0,0,0,0,11,11,11,0,0,0,0,,,,,,,,,,,,,,,,,155.9997163999942,None,155.9997163999942,None,155.9997163999942,None,155.9997163999942,None,155.9997163999942,None,0.008955800032708794,None,0.4787460000079591,None,0.9625544000300579,None,"['num_4', 'return']","[0.5665837000124156, 0.7664609999919776]",171.5226158000005,None,,,1,001,2021_Oct_22_1602,eeg_contingent_digits,2021.2.3,59.626523314194905,
11.0,6.0,2.0,5.0,,,,,,,,,,,,,,,,,0,0,0,0,0,11,11,11,1,0,1,0,,,,,,,,,,,,,,,,,,,,,,,,,,,,,,,,,"['num_4', 'return']","[0.22319449999486096, 0.40674820001004264]",172.3218368999951,None,,,1,001,2021_Oct_22_1602,eeg_contingent_digits,2021.2.3,59.626523314194905,
11.0,6.0,2.0,5.0,,,,,,,,,,,,,,,,,0,0,0,0,0,11,11,11,2,0,2,0,,,,,,,,,,,,,,,,,,,,,,,,,,,,,,,,,"['num_4', 'return']","[0.2129422000143677, 0.4050193000002764]",172.756060899992,None,,,1,001,2021_Oct_22_1602,eeg_contingent_digits,2021.2.3,59.626523314194905,
11.0,6.0,2.0,5.0,,,,,,,,,,,,,,,,,0,0,0,0,0,11,11,11,,,,,,,,,,,,,,,,,,,,,,,,,,,,,,,,,,,,,,,,,None,None,1,001,2021_Oct_22_1602,eeg_contingent_digits,2021.2.3,59.626523314194905,
12.0,4.0,1.0,8.0,,,,,,,,,,,,,,,,,0,0,0,0,0,12,12,12,0,0,0,0,,,,,,,,,,,,,,,,,173.20047250000061,None,173.20047250000061,None,173.20047250000061,None,173.20047250000061,None,173.20047250000061,None,0.004844000010052696,None,0.48279330000514165,None,0.9671172999951523,None,"['num_4', 'return']","[0.40271320001920685, 0.5706720000016503]",178.8943406000035,None,,,1,001,2021_Oct_22_1602,eeg_contingent_digits,2021.2.3,59.626523314194905,
12.0,4.0,1.0,8.0,,,,,,,,,,,,,,,,,0,0,0,0,0,12,12,12,1,0,1,0,,,,,,,,,,,,,,,,,,,,,,,,,,,,,,,,,"['num_4', 'return']","[0.185612500004936, 0.3782451000006404]",179.49561260000337,None,,,1,001,2021_Oct_22_1602,eeg_contingent_digits,2021.2.3,59.626523314194905,
12.0,4.0,1.0,8.0,,,,,,,,,,,,,,,,,0,0,0,0,0,12,12,12,2,0,2,0,,,,,,,,,,,,,,,,,,,,,,,,,,,,,,,,,"['num_4', 'return']","[0.13825950000318699, 0.33803109999280423]",179.89499159998377,None,,,1,001,2021_Oct_22_1602,eeg_contingent_digits,2021.2.3,59.626523314194905,
12.0,4.0,1.0,8.0,,,,,,,,,,,,,,,,,0,0,0,0,0,12,12,12,,,,,,,,,,,,,,,,,,,,,,,,,,,,,,,,,,,,,,,,,None,None,1,001,2021_Oct_22_1602,eeg_contingent_digits,2021.2.3,59.626523314194905,
13.0,8.0,2.0,9.0,,,,,,,,,,,,,,,,,0,0,0,0,0,13,13,13,0,0,0,0,,,,,,,,,,,,,,,,,180.2740754999977,None,180.2740754999977,None,180.2740754999977,None,180.2740754999977,None,180.2740754999977,None,0.004076999990502372,None,0.47334689999115653,None,0.9572291999938898,None,"['num_4', 'return']","[0.4348623999976553, 0.6284275000216439]",185.14963679999346,None,,,1,001,2021_Oct_22_1602,eeg_contingent_digits,2021.2.3,59.626523314194905,
13.0,8.0,2.0,9.0,,,,,,,,,,,,,,,,,0,0,0,0,0,13,13,13,1,0,1,0,,,,,,,,,,,,,,,,,,,,,,,,,,,,,,,,,"['num_4', 'return']","[0.13677660000394098, 0.31397560000186786]",185.8001699000015,None,,,1,001,2021_Oct_22_1602,eeg_contingent_digits,2021.2.3,59.626523314194905,
13.0,8.0,2.0,9.0,,,,,,,,,,,,,,,,,0,0,0,0,0,13,13,13,2,0,2,0,,,,,,,,,,,,,,,,,,,,,,,,,,,,,,,,,"['num_4', 'return']","[0.12284880000515841, 0.299087999999756]",186.1339752000058,None,,,1,001,2021_Oct_22_1602,eeg_contingent_digits,2021.2.3,59.626523314194905,
13.0,8.0,2.0,9.0,,,,,,,,,,,,,,,,,0,0,0,0,0,13,13,13,,,,,,,,,,,,,,,,,,,,,,,,,,,,,,,,,,,,,,,,,None,None,1,001,2021_Oct_22_1602,eeg_contingent_digits,2021.2.3,59.626523314194905,
14.0,8.0,1.0,9.0,,,,,,,,,,,,,,,,,0,0,0,0,0,14,14,14,0,0,0,0,,,,,,,,,,,,,,,,,186.4842154000071,None,186.4842154000071,None,186.4842154000071,None,186.4842154000071,None,186.4842154000071,None,0.003387500037206337,None,0.4811467000108678,None,0.965461600018898,None,"['num_4', 'return']","[0.432738999981666, 0.6090752999880351]",200.86389529998996,None,,,1,001,2021_Oct_22_1602,eeg_contingent_digits,2021.2.3,59.626523314194905,
14.0,8.0,1.0,9.0,,,,,,,,,,,,,,,,,0,0,0,0,0,14,14,14,1,0,1,0,,,,,,,,,,,,,,,,,,,,,,,,,,,,,,,,,"['num_4', 'return']","[0.13002959999721497, 0.30540740001015365]",201.49561959999846,None,,,1,001,2021_Oct_22_1602,eeg_contingent_digits,2021.2.3,59.626523314194905,
14.0,8.0,1.0,9.0,,,,,,,,,,,,,,,,,0,0,0,0,0,14,14,14,2,0,2,0,,,,,,,,,,,,,,,,,,,,,,,,,,,,,,,,,"['num_4', 'return']","[0.10703499999362975, 0.2595753999776207]",201.82966240000678,None,,,1,001,2021_Oct_22_1602,eeg_contingent_digits,2021.2.3,59.626523314194905,
14.0,8.0,1.0,9.0,,,,,,,,,,,,,,,,,0,0,0,0,0,14,14,14,,,,,,,,,,,,,,,,,,,,,,,,,,,,,,,,,,,,,,,,,None,None,1,001,2021_Oct_22_1602,eeg_contingent_digits,2021.2.3,59.626523314194905,
15.0,4.0,9.0,1.0,,,,,,,,,,,,,,,,,0,0,0,0,0,15,15,15,0,0,0,0,,,,,,,,,,,,,,,,,202.1341306999966,None,202.1341306999966,None,202.1341306999966,None,202.1341306999966,None,202.1341306999966,None,0.003191800002241507,None,0.48275760002434254,None,0.9660508000233676,None,"['num_4', 'return']","[0.42018740001367405, 0.5882212000142317]",211.2293701999879,None,,,1,001,2021_Oct_22_1602,eeg_contingent_digits,2021.2.3,59.626523314194905,
15.0,4.0,9.0,1.0,,,,,,,,,,,,,,,,,0,0,0,0,0,15,15,15,1,0,1,0,,,,,,,,,,,,,,,,,,,,,,,,,,,,,,,,,"['num_4', 'return']","[0.18640650002635084, 0.3060810000170022]",211.83864189998712,None,,,1,001,2021_Oct_22_1602,eeg_contingent_digits,2021.2.3,59.626523314194905,
15.0,4.0,9.0,1.0,,,,,,,,,,,,,,,,,0,0,0,0,0,15,15,15,2,0,2,0,,,,,,,,,,,,,,,,,,,,,,,,,,,,,,,,,"['num_4', 'return']","[0.14073380001354963, 0.2378762000007555]",212.17237369998475,None,,,1,001,2021_Oct_22_1602,eeg_contingent_digits,2021.2.3,59.626523314194905,
15.0,4.0,9.0,1.0,,,,,,,,,,,,,,,,,0,0,0,0,0,15,15,15,,,,,,,,,,,,,,,,,,,,,,,,,,,,,,,,,,,,,,,,,None,None,1,001,2021_Oct_22_1602,eeg_contingent_digits,2021.2.3,59.626523314194905,
16.0,2.0,9.0,6.0,,,,,,,,,,,,,,,,,0,0,0,0,0,16,16,16,0,0,0,0,,,,,,,,,,,,,,,,,212.45091069999035,None,212.45091069999035,None,212.45091069999035,None,212.45091069999035,None,212.45091069999035,None,0.0018272000015713274,None,0.46178789998521097,None,0.9461890999809839,None,"['num_4', 'return']","[0.43580519998795353, 0.6039128999982495]",222.9652317999862,None,,,1,001,2021_Oct_22_1602,eeg_contingent_digits,2021.2.3,59.626523314194905,
16.0,2.0,9.0,6.0,,,,,,,,,,,,,,,,,0,0,0,0,0,16,16,16,1,0,1,0,,,,,,,,,,,,,,,,,,,,,,,,,,,,,,,,,"['num_4', 'return']","[0.13965840000309981, 0.3073464999906719]",223.59745489998022,None,,,1,001,2021_Oct_22_1602,eeg_contingent_digits,2021.2.3,59.626523314194905,
16.0,2.0,9.0,6.0,,,,,,,,,,,,,,,,,0,0,0,0,0,16,16,16,2,0,2,0,,,,,,,,,,,,,,,,,,,,,,,,,,,,,,,,,"['num_4', 'return']","[0.1491472000197973, 0.2692580000148155]",223.93203689999063,None,,,1,001,2021_Oct_22_1602,eeg_contingent_digits,2021.2.3,59.626523314194905,
16.0,2.0,9.0,6.0,,,,,,,,,,,,,,,,,0,0,0,0,0,16,16,16,,,,,,,,,,,,,,,,,,,,,,,,,,,,,,,,,,,,,,,,,None,None,1,001,2021_Oct_22_1602,eeg_contingent_digits,2021.2.3,59.626523314194905,
17.0,1.0,9.0,3.0,,,,,,,,,,,,,,,,,0,0,0,0,0,17,17,17,0,0,0,0,,,,,,,,,,,,,,,,,224.24389809998684,None,224.24389809998684,None,224.24389809998684,None,224.24389809998684,None,224.24389809998684,None,0.014841600030194968,None,0.4771537000196986,None,0.9614262000250164,None,"['num_4', 'return']","[0.7114380999992136, 0.9669576000014786]",229.1860182999808,None,,,1,001,2021_Oct_22_1602,eeg_contingent_digits,2021.2.3,59.626523314194905,
17.0,1.0,9.0,3.0,,,,,,,,,,,,,,,,,0,0,0,0,0,17,17,17,1,0,1,0,,,,,,,,,,,,,,,,,,,,,,,,,,,,,,,,,"['num_4', 'return']","[0.17445640001096763, 0.3029026000003796]",230.18642769998405,None,,,1,001,2021_Oct_22_1602,eeg_contingent_digits,2021.2.3,59.626523314194905,
17.0,1.0,9.0,3.0,,,,,,,,,,,,,,,,,0,0,0,0,0,17,17,17,2,0,2,0,,,,,,,,,,,,,,,,,,,,,,,,,,,,,,,,,"['num_4', 'return']","[0.15239329999894835, 0.2565997000201605]",230.52067979998537,None,,,1,001,2021_Oct_22_1602,eeg_contingent_digits,2021.2.3,59.626523314194905,
17.0,1.0,9.0,3.0,,,,,,,,,,,,,,,,,0,0,0,0,0,17,17,17,,,,,,,,,,,,,,,,,,,,,,,,,,,,,,,,,,,,,,,,,None,None,1,001,2021_Oct_22_1602,eeg_contingent_digits,2021.2.3,59.626523314194905,
18.0,8.0,4.0,9.0,,,,,,,,,,,,,,,,,0,0,0,0,0,18,18,18,0,0,0,0,,,,,,,,,,,,,,,,,230.8159345999884,None,230.8159345999884,None,230.8159345999884,None,230.8159345999884,None,230.8159345999884,None,0.0010347999923396856,None,0.4817906999960542,None,0.9494771999889053,None,"['num_4', 'return']","[0.5518291000043973, 0.6714586000016425]",242.24929710000288,None,,,1,001,2021_Oct_22_1602,eeg_contingent_digits,2021.2.3,59.626523314194905,
18.0,8.0,4.0,9.0,,,,,,,,,,,,,,,,,0,0,0,0,0,18,18,18,1,0,1,0,,,,,,,,,,,,,,,,,,,,,,,,,,,,,,,,,"['num_4', 'return']","[0.23043019999749959, 0.34153340000193566]",242.94704579998506,None,,,1,001,2021_Oct_22_1602,eeg_contingent_digits,2021.2.3,59.626523314194905,
18.0,8.0,4.0,9.0,,,,,,,,,,,,,,,,,0,0,0,0,0,18,18,18,2,0,2,0,,,,,,,,,,,,,,,,,,,,,,,,,,,,,,,,,"['num_4', 'return']","[0.2147986000054516, 0.3343392999959178]",243.31454180000583,None,,,1,001,2021_Oct_22_1602,eeg_contingent_digits,2021.2.3,59.626523314194905,
18.0,8.0,4.0,9.0,,,,,,,,,,,,,,,,,0,0,0,0,0,18,18,18,,,,,,,,,,,,,,,,,,,,,,,,,,,,,,,,,,,,,,,,,None,None,1,001,2021_Oct_22_1602,eeg_contingent_digits,2021.2.3,59.626523314194905,
19.0,8.0,9.0,2.0,,,,,,,,,,,,,,,,,0,0,0,0,0,19,19,19,0,0,0,0,,,,,,,,,,,,,,,,,243.70081730000675,None,243.70081730000675,None,243.70081730000675,None,243.70081730000675,None,243.70081730000675,None,0.010281900002155453,None,0.4834293000167236,None,0.9668986000178847,None,"['num_4', 'return']","[0.45714199999929406, 0.5949464000004809]",250.48761749998084,None,,,1,001,2021_Oct_22_1602,eeg_contingent_digits,2021.2.3,59.626523314194905,
19.0,8.0,9.0,2.0,,,,,,,,,,,,,,,,,0,0,0,0,0,19,19,19,1,0,1,0,,,,,,,,,,,,,,,,,,,,,,,,,,,,,,,,,"['num_4', 'return']","[0.2246508999960497, 0.35171650000847876]",251.11462290000054,None,,,1,001,2021_Oct_22_1602,eeg_contingent_digits,2021.2.3,59.626523314194905,
19.0,8.0,9.0,2.0,,,,,,,,,,,,,,,,,0,0,0,0,0,19,19,19,2,0,2,0,,,,,,,,,,,,,,,,,,,,,,,,,,,,,,,,,"['num_4', 'return']","[0.21602590000838973, 0.32853219998651184]",251.48899719998008,None,,,1,001,2021_Oct_22_1602,eeg_contingent_digits,2021.2.3,59.626523314194905,
19.0,8.0,9.0,2.0,,,,,,,,,,,,,,,,,0,0,0,0,0,19,19,19,,,,,,,,,,,,,,,,,,,,,,,,,,,,,,,,,,,,,,,,,None,None,1,001,2021_Oct_22_1602,eeg_contingent_digits,2021.2.3,59.626523314194905,
20.0,6.0,1.0,4.0,,,,,,,,,,,,,,,,,0,0,0,0,0,20,20,20,0,0,0,0,,,,,,,,,,,,,,,,,251.85591179999756,None,251.85591179999756,None,251.85591179999756,None,251.85591179999756,None,251.85591179999756,None,0.004167500039329752,None,0.4787571000342723,None,0.961914900020929,None,"['num_4', 'return']","[0.4702656000154093, 0.5909001000109129]",257.11438099999214,None,,,1,001,2021_Oct_22_1602,eeg_contingent_digits,2021.2.3,59.626523314194905,
20.0,6.0,1.0,4.0,,,,,,,,,,,,,,,,,0,0,0,0,0,20,20,20,1,0,1,0,,,,,,,,,,,,,,,,,,,,,,,,,,,,,,,,,"['num_4', 'return']","[0.20195849999436177, 0.31447760001174174]",257.72700479999185,None,,,1,001,2021_Oct_22_1602,eeg_contingent_digits,2021.2.3,59.626523314194905,
20.0,6.0,1.0,4.0,,,,,,,,,,,,,,,,,0,0,0,0,0,20,20,20,2,0,2,0,,,,,,,,,,,,,,,,,,,,,,,,,,,,,,,,,"['num_4', 'return']","[0.17294689998379909, 0.3166571999900043]",258.0604044999927,None,,,1,001,2021_Oct_22_1602,eeg_contingent_digits,2021.2.3,59.626523314194905,
20.0,6.0,1.0,4.0,,,,,,,,,,,,,,,,,0,0,0,0,0,20,20,20,,,,,,,,,,,,,,,,,,,,,,,,,,,,,,,,,,,,,,,,,None,None,1,001,2021_Oct_22_1602,eeg_contingent_digits,2021.2.3,59.626523314194905,
21.0,9.0,5.0,3.0,,,,,,,,,,,,,,,,,0,0,0,0,0,21,21,21,0,0,0,0,,,,,,,,,,,,,,,,,258.42628280000645,None,258.42628280000645,None,258.42628280000645,None,258.42628280000645,None,258.42628280000645,None,0.005133200000273064,None,0.4770194999873638,None,0.9604868000023998,None,"['num_4', 'return']","[0.4963941000169143, 0.6235953000141308]",262.8091378999816,None,,,1,001,2021_Oct_22_1602,eeg_contingent_digits,2021.2.3,59.626523314194905,
21.0,9.0,5.0,3.0,,,,,,,,,,,,,,,,,0,0,0,0,0,21,21,21,1,0,1,0,,,,,,,,,,,,,,,,,,,,,,,,,,,,,,,,,"['num_4', 'return']","[0.16180420000455342, 0.31448170001385733]",263.4640136999951,None,,,1,001,2021_Oct_22_1602,eeg_contingent_digits,2021.2.3,59.626523314194905,
21.0,9.0,5.0,3.0,,,,,,,,,,,,,,,,,0,0,0,0,0,21,21,21,2,0,2,0,,,,,,,,,,,,,,,,,,,,,,,,,,,,,,,,,"['num_4', 'return']","[0.13180870001087897, 0.2826795000000857]",263.7984806000022,None,,,1,001,2021_Oct_22_1602,eeg_contingent_digits,2021.2.3,59.626523314194905,
21.0,9.0,5.0,3.0,,,,,,,,,,,,,,,,,0,0,0,0,0,21,21,21,,,,,,,,,,,,,,,,,,,,,,,,,,,,,,,,,,,,,,,,,None,None,1,001,2021_Oct_22_1602,eeg_contingent_digits,2021.2.3,59.626523314194905,
22.0,0.0,6.0,2.0,,,,,,,,,,,,,,,,,0,0,0,0,0,22,22,22,0,0,0,0,,,,,,,,,,,,,,,,,264.1249758999911,None,264.1249758999911,None,264.1249758999911,None,264.1249758999911,None,264.1249758999911,None,0.0014539000112563372,None,0.46680449999985285,None,0.9508321000030264,None,"['num_4', 'return']","[0.5520036999951117, 0.6981997999828309]",269.3211657999782,None,,,1,001,2021_Oct_22_1602,eeg_contingent_digits,2021.2.3,59.626523314194905,
22.0,0.0,6.0,2.0,,,,,,,,,,,,,,,,,0,0,0,0,0,22,22,22,1,0,1,0,,,,,,,,,,,,,,,,,,,,,,,,,,,,,,,,,"['num_4', 'return']","[0.17835879998165183, 0.35430329997325316]",270.05491399997845,None,,,1,001,2021_Oct_22_1602,eeg_contingent_digits,2021.2.3,59.626523314194905,
22.0,0.0,6.0,2.0,,,,,,,,,,,,,,,,,0,0,0,0,0,22,22,22,2,0,2,0,,,,,,,,,,,,,,,,,,,,,,,,,,,,,,,,,"['num_4', 'return']","[0.15600839999387972, 0.33202169998548925]",270.4371840999811,None,,,1,001,2021_Oct_22_1602,eeg_contingent_digits,2021.2.3,59.626523314194905,
22.0,0.0,6.0,2.0,,,,,,,,,,,,,,,,,0,0,0,0,0,22,22,22,,,,,,,,,,,,,,,,,,,,,,,,,,,,,,,,,,,,,,,,,None,None,1,001,2021_Oct_22_1602,eeg_contingent_digits,2021.2.3,59.626523314194905,
23.0,3.0,4.0,1.0,,,,,,,,,,,,,,,,,0,0,0,0,0,23,23,23,0,0,0,0,,,,,,,,,,,,,,,,,270.8189122999902,None,270.8189122999902,None,270.8189122999902,None,270.8189122999902,None,270.8189122999902,None,0.0012207000108901411,None,0.47469570001703687,None,0.9590127000119537,None,"['num_4', 'return']","[0.5452946000150405, 0.6323304999968968]",277.712243099988,None,,,1,001,2021_Oct_22_1602,eeg_contingent_digits,2021.2.3,59.626523314194905,
23.0,3.0,4.0,1.0,,,,,,,,,,,,,,,,,0,0,0,0,0,23,23,23,1,0,1,0,,,,,,,,,,,,,,,,,,,,,,,,,,,,,,,,,"['num_4', 'return']","[0.19790420000208542, 0.28673049999633804]",278.386940700002,None,,,1,001,2021_Oct_22_1602,eeg_contingent_digits,2021.2.3,59.626523314194905,
23.0,3.0,4.0,1.0,,,,,,,,,,,,,,,,,0,0,0,0,0,23,23,23,2,0,2,0,,,,,,,,,,,,,,,,,,,,,,,,,,,,,,,,,"['num_4', 'return']","[0.21216830000048503, 0.34808730002259836]",278.6935225999914,None,,,1,001,2021_Oct_22_1602,eeg_contingent_digits,2021.2.3,59.626523314194905,
23.0,3.0,4.0,1.0,,,,,,,,,,,,,,,,,0,0,0,0,0,23,23,23,,,,,,,,,,,,,,,,,,,,,,,,,,,,,,,,,,,,,,,,,None,None,1,001,2021_Oct_22_1602,eeg_contingent_digits,2021.2.3,59.626523314194905,
24.0,3.0,5.0,6.0,,,,,,,,,,,,,,,,,0,0,0,0,0,24,24,24,0,0,0,0,,,,,,,,,,,,,,,,,279.07737689997884,None,279.07737689997884,None,279.07737689997884,None,279.07737689997884,None,279.07737689997884,None,0.00022880002507008612,None,0.48352420001174323,None,0.9669965000357479,None,"['num_4', 'return']","[0.5322428999934345, 0.6272996999905445]",285.33414900000207,None,,,1,001,2021_Oct_22_1602,eeg_contingent_digits,2021.2.3,59.626523314194905,
24.0,3.0,5.0,6.0,,,,,,,,,,,,,,,,,0,0,0,0,0,24,24,24,1,0,1,0,,,,,,,,,,,,,,,,,,,,,,,,,,,,,,,,,"['num_4', 'return']","[0.17802769999252632, 0.305402400001185]",285.9836607000034,None,,,1,001,2021_Oct_22_1602,eeg_contingent_digits,2021.2.3,59.626523314194905,
24.0,3.0,5.0,6.0,,,,,,,,,,,,,,,,,0,0,0,0,0,24,24,24,2,0,2,0,,,,,,,,,,,,,,,,,,,,,,,,,,,,,,,,,"['num_4', 'return']","[0.13965200001257472, 0.29977100001997314]",286.3171086999937,None,,,1,001,2021_Oct_22_1602,eeg_contingent_digits,2021.2.3,59.626523314194905,
24.0,3.0,5.0,6.0,,,,,,,,,,,,,,,,,0,0,0,0,0,24,24,24,,,,,,,,,,,,,,,,,,,,,,,,,,,,,,,,,,,,,,,,,None,None,1,001,2021_Oct_22_1602,eeg_contingent_digits,2021.2.3,59.626523314194905,
25.0,2.0,1.0,4.0,,,,,,,,,,,,,,,,,0,0,0,0,0,25,25,25,0,0,0,0,,,,,,,,,,,,,,,,,286.6698781999876,None,286.6698781999876,None,286.6698781999876,None,286.6698781999876,None,286.6698781999876,None,0.0030214999860618263,None,0.47610460000578314,None,0.9599359999992885,None,"['num_4', 'return']","[0.5694987000024412, 0.6809720000019297]",296.38398600000073,None,,,1,001,2021_Oct_22_1602,eeg_contingent_digits,2021.2.3,59.626523314194905,
25.0,2.0,1.0,4.0,,,,,,,,,,,,,,,,,0,0,0,0,0,25,25,25,1,0,1,0,,,,,,,,,,,,,,,,,,,,,,,,,,,,,,,,,"['num_4', 'return']","[0.19731300001149066, 0.3102196000108961]",297.09178279998014,None,,,1,001,2021_Oct_22_1602,eeg_contingent_digits,2021.2.3,59.626523314194905,
25.0,2.0,1.0,4.0,,,,,,,,,,,,,,,,,0,0,0,0,0,25,25,25,2,0,2,0,,,,,,,,,,,,,,,,,,,,,,,,,,,,,,,,,"['num_4', 'return']","[0.15876890000072308, 0.2629511000122875]",297.42652939999243,None,,,1,001,2021_Oct_22_1602,eeg_contingent_digits,2021.2.3,59.626523314194905,
25.0,2.0,1.0,4.0,,,,,,,,,,,,,,,,,0,0,0,0,0,25,25,25,,,,,,,,,,,,,,,,,,,,,,,,,,,,,,,,,,,,,,,,,None,None,1,001,2021_Oct_22_1602,eeg_contingent_digits,2021.2.3,59.626523314194905,
26.0,9.0,4.0,3.0,,,,,,,,,,,,,,,,,0,0,0,0,0,26,26,26,0,0,0,0,,,,,,,,,,,,,,,,,297.72774599998957,None,297.72774599998957,None,297.72774599998957,None,297.72774599998957,None,297.72774599998957,None,0.0011958000250160694,None,0.48436310002580285,None,0.9682019000174478,None,"['num_4', 'return']","[0.3730708999792114, 0.4871493999962695]",303.1154739999911,None,,,1,001,2021_Oct_22_1602,eeg_contingent_digits,2021.2.3,59.626523314194905,
26.0,9.0,4.0,3.0,,,,,,,,,,,,,,,,,0,0,0,0,0,26,26,26,1,0,1,0,,,,,,,,,,,,,,,,,,,,,,,,,,,,,,,,,"['num_4', 'return']","[0.16226959999767132, 0.3220969999965746]",303.63103910000063,None,,,1,001,2021_Oct_22_1602,eeg_contingent_digits,2021.2.3,59.626523314194905,
26.0,9.0,4.0,3.0,,,,,,,,,,,,,,,,,0,0,0,0,0,26,26,26,2,0,2,0,,,,,,,,,,,,,,,,,,,,,,,,,,,,,,,,,"['num_4', 'return']","[0.08416460000444204, 0.24500419999822043]",303.9808647999889,None,,,1,001,2021_Oct_22_1602,eeg_contingent_digits,2021.2.3,59.626523314194905,
26.0,9.0,4.0,3.0,,,,,,,,,,,,,,,,,0,0,0,0,0,26,26,26,,,,,,,,,,,,,,,,,,,,,,,,,,,,,,,,,,,,,,,,,None,None,1,001,2021_Oct_22_1602,eeg_contingent_digits,2021.2.3,59.626523314194905,
27.0,6.0,3.0,8.0,,,,,,,,,,,,,,,,,0,0,0,0,0,27,27,27,0,0,0,0,,,,,,,,,,,,,,,,,304.264709399984,None,304.264709399984,None,304.264709399984,None,304.264709399984,None,304.264709399984,None,0.0145642000134103,None,0.4843874000071082,None,0.9686680000158958,None,"['num_4', 'return']","[0.4344880999997258, 0.5401087999925949]",310.8630265999818,None,,,1,001,2021_Oct_22_1602,eeg_contingent_digits,2021.2.3,59.626523314194905,
27.0,6.0,3.0,8.0,,,,,,,,,,,,,,,,,0,0,0,0,0,27,27,27,1,0,1,0,,,,,,,,,,,,,,,,,,,,,,,,,,,,,,,,,"['num_4', 'return']","[0.12046469998313114, 0.2887031999998726]",311.4404388999974,None,,,1,001,2021_Oct_22_1602,eeg_contingent_digits,2021.2.3,59.626523314194905,
27.0,6.0,3.0,8.0,,,,,,,,,,,,,,,,,0,0,0,0,0,27,27,27,2,0,2,0,,,,,,,,,,,,,,,,,,,,,,,,,,,,,,,,,"['num_4', 'return']","[0.08653199998661876, 0.20623509999131784]",311.75469060000614,None,,,1,001,2021_Oct_22_1602,eeg_contingent_digits,2021.2.3,59.626523314194905,
27.0,6.0,3.0,8.0,,,,,,,,,,,,,,,,,0,0,0,0,0,27,27,27,,,,,,,,,,,,,,,,,,,,,,,,,,,,,,,,,,,,,,,,,None,None,1,001,2021_Oct_22_1602,eeg_contingent_digits,2021.2.3,59.626523314194905,
28.0,5.0,2.0,1.0,,,,,,,,,,,,,,,,,0,0,0,0,0,28,28,28,0,0,0,0,,,,,,,,,,,,,,,,,312.003687599994,None,312.003687599994,None,312.003687599994,None,312.003687599994,None,312.003687599994,None,0.0008636000275146216,None,0.47016660001827404,None,0.9539224000182003,None,"['num_4', 'return']","[0.44833260000450537, 0.5850260000152048]",320.3123045999964,None,,,1,001,2021_Oct_22_1602,eeg_contingent_digits,2021.2.3,59.626523314194905,
28.0,5.0,2.0,1.0,,,,,,,,,,,,,,,,,0,0,0,0,0,28,28,28,1,0,1,0,,,,,,,,,,,,,,,,,,,,,,,,,,,,,,,,,"['num_4', 'return']","[0.11787690001074225, 0.2781678000173997]",320.93135070000426,None,,,1,001,2021_Oct_22_1602,eeg_contingent_digits,2021.2.3,59.626523314194905,
28.0,5.0,2.0,1.0,,,,,,,,,,,,,,,,,0,0,0,0,0,28,28,28,2,0,2,0,,,,,,,,,,,,,,,,,,,,,,,,,,,,,,,,,"['num_4', 'return']","[0.07563010000740178, 0.22765320001053624]",321.22964429997955,None,,,1,001,2021_Oct_22_1602,eeg_contingent_digits,2021.2.3,59.626523314194905,
28.0,5.0,2.0,1.0,,,,,,,,,,,,,,,,,0,0,0,0,0,28,28,28,,,,,,,,,,,,,,,,,,,,,,,,,,,,,,,,,,,,,,,,,None,None,1,001,2021_Oct_22_1602,eeg_contingent_digits,2021.2.3,59.626523314194905,
