TrialID,NFB_digit1,NFB_digit2,NFB_digit3,practice_block.thisRepN,practice_block.thisTrialN,practice_block.thisN,practice_block.thisIndex,practice_trials.thisRepN,practice_trials.thisTrialN,practice_trials.thisN,practice_trials.thisIndex,response_practice.thisRepN,response_practice.thisTrialN,response_practice.thisN,response_practice.thisIndex,calibration_block.thisRepN,calibration_block.thisTrialN,calibration_block.thisN,calibration_block.thisIndex,experimental_block.thisRepN,experimental_block.thisTrialN,experimental_block.thisN,experimental_block.thisIndex,exp_trials.thisRepN,exp_trials.thisTrialN,exp_trials.thisN,exp_trials.thisIndex,response_exp.thisRepN,response_exp.thisTrialN,response_exp.thisN,response_exp.thisIndex,Digit1_clear.started,Digit1_clear.stopped,Digit2_clear.started,Digit2_clear.stopped,Digit3_clear.started,Digit3_clear.stopped,key_resp_3.keys,key_resp_3.rt,key_resp_3.started,key_resp_3.stopped,text_4.started,text_4.stopped,text_5.started,text_5.stopped,Begin.started,Begin.stopped,Fixation.started,Fixation.stopped,text_6.started,text_6.stopped,text_2.started,text_2.stopped,text_7.started,text_7.stopped,text_8.started,text_8.stopped,sound_digit1.started,sound_digit1.stopped,sound_digit2.started,sound_digit2.stopped,sound_digit3.started,sound_digit3.stopped,key_resp.keys,key_resp.rt,key_resp.started,key_resp.stopped,Begin_3.started,Begin_3.stopped,participant,session,date,expName,psychopyVersion,frameRate,
0.0,6.0,2.0,4.0,0,0,0,0,0,0,0,0,0,0,0,0,,,,,,,,,,,,,,,,,0.003786319983191788,None,0.4910379199718591,None,0.9573557199619245,None,"['num_4', 'return']","[1.6071165000030305, 1.7816303999861702]",35.49573790002614,None,,,,,,,,,,,,,,,,,,,,,,,,,,,,,1,001,2021_Oct_22_1713,eeg_contingent_digits,2021.2.3,60.42829155632036,
0.0,6.0,2.0,4.0,0,0,0,0,0,0,0,0,1,0,1,0,,,,,,,,,,,,,,,,,,,,,,,"['num_4', 'return']","[0.07263930002227426, 0.21654710001894273]",37.30903309999849,None,,,,,,,,,,,,,,,,,,,,,,,,,,,,,1,001,2021_Oct_22_1713,eeg_contingent_digits,2021.2.3,60.42829155632036,
0.0,6.0,2.0,4.0,0,0,0,0,0,0,0,0,2,0,2,0,,,,,,,,,,,,,,,,,,,,,,,['num_4'],[0.0727791000099387],37.565060599998105,None,,,,,,,,,,,,,,,,,,,,,,,,,,,,,1,001,2021_Oct_22_1713,eeg_contingent_digits,2021.2.3,60.42829155632036,
0.0,6.0,2.0,4.0,0,0,0,0,0,0,0,0,,,,,,,,,,,,,,,,,,,,,,,,,,,,,,,,,,,,,,,,,,,,,,,,,,,,,,,,,,,1,001,2021_Oct_22_1713,eeg_contingent_digits,2021.2.3,60.42829155632036,
1.0,1.0,9.0,3.0,0,0,0,0,0,1,1,1,0,0,0,0,,,,,,,,,,,,,,,,,0.010156019998248667,None,0.48801431999891065,None,0.9540666200045962,None,"['num_4', 'return']","[0.42814769997494295, 0.5567378999840003]",39.21719910000684,None,,,,,,,,,,,,,,,,,,,,,,,,,,,,,1,001,2021_Oct_22_1713,eeg_contingent_digits,2021.2.3,60.42829155632036,
1.0,1.0,9.0,3.0,0,0,0,0,0,1,1,1,1,0,1,0,,,,,,,,,,,,,,,,,,,,,,,"['num_4', 'return']","[0.09077149999211542, 0.17943990000640042]",39.79478290001862,None,,,,,,,,,,,,,,,,,,,,,,,,,,,,,1,001,2021_Oct_22_1713,eeg_contingent_digits,2021.2.3,60.42829155632036,
1.0,1.0,9.0,3.0,0,0,0,0,0,1,1,1,2,0,2,0,,,,,,,,,,,,,,,,,,,,,,,"['num_4', 'return']","[0.09049370000138879, 0.13137340001412667]",39.99483290000353,None,,,,,,,,,,,,,,,,,,,,,,,,,,,,,1,001,2021_Oct_22_1713,eeg_contingent_digits,2021.2.3,60.42829155632036,
1.0,1.0,9.0,3.0,0,0,0,0,0,1,1,1,,,,,,,,,,,,,,,,,,,,,,,,,,,,,,,,,,,,,,,,,,,,,,,,,,,,,,,,,,,1,001,2021_Oct_22_1713,eeg_contingent_digits,2021.2.3,60.42829155632036,
2.0,8.0,0.0,1.0,0,0,0,0,0,2,2,2,0,0,0,0,,,,,,,,,,,,,,,,,0.01056281998171471,None,0.48771631997078657,None,0.9774453199643176,None,"['num_4', 'return']","[0.4093490999948699, 0.5128561000165064]",41.59676970000146,None,,,,,,,,,,,,,,,,,,,,,,,,,,,,,1,001,2021_Oct_22_1713,eeg_contingent_digits,2021.2.3,60.42829155632036,
2.0,8.0,0.0,1.0,0,0,0,0,0,2,2,2,1,0,1,0,,,,,,,,,,,,,,,,,,,,,,,"['num_4', 'return']","[0.07599250000203028, 0.1963753000018187]",42.130128700024216,None,,,,,,,,,,,,,,,,,,,,,,,,,,,,,1,001,2021_Oct_22_1713,eeg_contingent_digits,2021.2.3,60.42829155632036,
2.0,8.0,0.0,1.0,0,0,0,0,0,2,2,2,2,0,2,0,,,,,,,,,,,,,,,,,,,,,,,"['num_4', 'return']","[0.05030970001826063, 0.13113930000690743]",42.34728120002546,None,,,,,,,,,,,,,,,,,,,,,,,,,,,,,1,001,2021_Oct_22_1713,eeg_contingent_digits,2021.2.3,60.42829155632036,
2.0,8.0,0.0,1.0,0,0,0,0,0,2,2,2,,,,,,,,,,,,,,,,,,,,,,,,,,,,,,,,,,,,,,,,,,,,,,,,,,,,,,,,,,,1,001,2021_Oct_22_1713,eeg_contingent_digits,2021.2.3,60.42829155632036,
3.0,9.0,6.0,1.0,0,0,0,0,0,3,3,3,0,0,0,0,,,,,,,,,,,,,,,,,0.016539439995540306,None,0.48355673998594284,None,0.9668053399946075,None,"['num_4', 'return']","[0.4275253000087105, 0.5476546999998391]",43.95382740002242,None,,,,,,,,,,,,,,,,,,,,,,,,,,,,,1,001,2021_Oct_22_1713,eeg_contingent_digits,2021.2.3,60.42829155632036,
3.0,9.0,6.0,1.0,0,0,0,0,0,3,3,3,1,0,1,0,,,,,,,,,,,,,,,,,,,,,,,"['num_4', 'return']","[0.07336120001855306, 0.20101420002174564]",44.532381400000304,None,,,,,,,,,,,,,,,,,,,,,,,,,,,,,1,001,2021_Oct_22_1713,eeg_contingent_digits,2021.2.3,60.42829155632036,
3.0,9.0,6.0,1.0,0,0,0,0,0,3,3,3,2,0,2,0,,,,,,,,,,,,,,,,,,,,,,,"['num_4', 'return']","[0.021035299985669553, 0.10132099999464117]",44.76805170002626,None,,,,,,,,,,,,,,,,,,,,,,,,,,,,,1,001,2021_Oct_22_1713,eeg_contingent_digits,2021.2.3,60.42829155632036,
3.0,9.0,6.0,1.0,0,0,0,0,0,3,3,3,,,,,,,,,,,,,,,,,,,,,,,,,,,,,,,,,,,,,,,,,,,,,,,,,,,,,,,,,,,1,001,2021_Oct_22_1713,eeg_contingent_digits,2021.2.3,60.42829155632036,
4.0,8.0,1.0,5.0,0,0,0,0,0,4,4,4,0,0,0,0,,,,,,,,,,,,,,,,,0.0012545200006570667,None,0.46863462001783773,None,0.9537436200189404,None,"['num_4', 'return']","[0.45568730001104996, 0.5515496000007261]",46.349650300020585,None,,,,,,,,,,,,,,,,,,,,,,,,,,,,,1,001,2021_Oct_22_1713,eeg_contingent_digits,2021.2.3,60.42829155632036,
4.0,8.0,1.0,5.0,0,0,0,0,0,4,4,4,1,0,1,0,,,,,,,,,,,,,,,,,,,,,,,"['num_4', 'return']","[0.05575230001704767, 0.1664943000068888]",46.934902300010435,None,,,,,,,,,,,,,,,,,,,,,,,,,,,,,1,001,2021_Oct_22_1713,eeg_contingent_digits,2021.2.3,60.42829155632036,
4.0,8.0,1.0,5.0,0,0,0,0,0,4,4,4,2,0,2,0,,,,,,,,,,,,,,,,,,,,,,,"['num_4', 'return']","[0.025253600004361942, 0.11355290000210516]",47.133531900006346,None,,,,,,,,,,,,,,,,,,,,,,,,,,,,,1,001,2021_Oct_22_1713,eeg_contingent_digits,2021.2.3,60.42829155632036,
4.0,8.0,1.0,5.0,0,0,0,0,0,4,4,4,,,,,,,,,,,,,,,,,,,,,,,,,,,,,,,,,,,,,,,,,,,,,,,,,,,,,,,,,,,1,001,2021_Oct_22_1713,eeg_contingent_digits,2021.2.3,60.42829155632036,
5.0,4.0,1.0,0.0,0,0,0,0,0,5,5,5,0,0,0,0,,,,,,,,,,,,,,,,,0.010352020006394014,None,0.4865253200114239,None,0.9706214199832175,None,"['num_4', 'return']","[0.39734490000410005, 0.4551524000125937]",48.71214850002434,None,,,,,,,,,,,,,,,,,,,,,,,,,,,,,1,001,2021_Oct_22_1713,eeg_contingent_digits,2021.2.3,60.42829155632036,
5.0,4.0,1.0,0.0,0,0,0,0,0,5,5,5,1,0,1,0,,,,,,,,,,,,,,,,,,,,,,,"['num_4', 'return']","[0.09096279999357648, 0.2037560000026133]",49.18651680002222,None,,,,,,,,,,,,,,,,,,,,,,,,,,,,,1,001,2021_Oct_22_1713,eeg_contingent_digits,2021.2.3,60.42829155632036,
5.0,4.0,1.0,0.0,0,0,0,0,0,5,5,5,2,0,2,0,,,,,,,,,,,,,,,,,,,,,,,"['num_4', 'return']","[0.04272060000221245, 0.10656429998925887]",49.41929270001128,None,,,,,,,,,,,,,,,,,,,,,,,,,,,,,1,001,2021_Oct_22_1713,eeg_contingent_digits,2021.2.3,60.42829155632036,
5.0,4.0,1.0,0.0,0,0,0,0,0,5,5,5,,,,,,,,,,,,,,,,,,,,,,,,,,,,,,,,,,,,,,,,,,,,,,,,,,,,,,,,,,,1,001,2021_Oct_22_1713,eeg_contingent_digits,2021.2.3,60.42829155632036,
6.0,9.0,2.0,6.0,0,0,0,0,0,6,6,6,0,0,0,0,,,,,,,,,,,,,,,,,0.009461520006880164,None,0.48762391999480315,None,0.9751055200176779,None,"['num_4', 'return']","[0.49611369997728616, 0.5763289999740664]",51.00614040001528,None,,,,,,,,,,,,,,,,,,,,,,,,,,,,,1,001,2021_Oct_22_1713,eeg_contingent_digits,2021.2.3,60.42829155632036,
6.0,9.0,2.0,6.0,0,0,0,0,0,6,6,6,1,0,1,0,,,,,,,,,,,,,,,,,,,,,,,"['num_4', 'return']","[0.0651347000093665, 0.17684639999060892]",51.60547770000994,None,,,,,,,,,,,,,,,,,,,,,,,,,,,,,1,001,2021_Oct_22_1713,eeg_contingent_digits,2021.2.3,60.42829155632036,
6.0,9.0,2.0,6.0,0,0,0,0,0,6,6,6,2,0,2,0,,,,,,,,,,,,,,,,,,,,,,,"['num_4', 'return']","[0.02447750000283122, 0.11338140000589192]",51.805360199999996,None,,,,,,,,,,,,,,,,,,,,,,,,,,,,,1,001,2021_Oct_22_1713,eeg_contingent_digits,2021.2.3,60.42829155632036,
6.0,9.0,2.0,6.0,0,0,0,0,0,6,6,6,,,,,,,,,,,,,,,,,,,,,,,,,,,,,,,,,,,,,,,,,,,,,,,,,,,,,,,,,,,1,001,2021_Oct_22_1713,eeg_contingent_digits,2021.2.3,60.42829155632036,
7.0,2.0,3.0,0.0,0,0,0,0,0,7,7,7,0,0,0,0,,,,,,,,,,,,,,,,,0.006151519977720454,None,0.4789990199788008,None,0.962849119969178,None,"['num_4', 'return']","[0.3671007000084501, 0.49636970000574365]",53.389929400000256,None,,,,,,,,,,,,,,,,,,,,,,,,,,,,,1,001,2021_Oct_22_1713,eeg_contingent_digits,2021.2.3,60.42829155632036,
7.0,2.0,3.0,0.0,0,0,0,0,0,7,7,7,1,0,1,0,,,,,,,,,,,,,,,,,,,,,,,"['num_4', 'return']","[0.04029770000488497, 0.14467590002459474]",53.91721790001611,None,,,,,,,,,,,,,,,,,,,,,,,,,,,,,1,001,2021_Oct_22_1713,eeg_contingent_digits,2021.2.3,60.42829155632036,
7.0,2.0,3.0,0.0,0,0,0,0,0,7,7,7,2,0,2,0,,,,,,,,,,,,,,,,,,,,,,,"['num_4', 'return']","[0.025144799990812317, 0.09640330000547692]",54.092666600015946,None,,,,,,,,,,,,,,,,,,,,,,,,,,,,,1,001,2021_Oct_22_1713,eeg_contingent_digits,2021.2.3,60.42829155632036,
7.0,2.0,3.0,0.0,0,0,0,0,0,7,7,7,,,,,,,,,,,,,,,,,,,,,,,,,,,,,,,,,,,,,,,,,,,,,,,,,,,,,,,,,,,1,001,2021_Oct_22_1713,eeg_contingent_digits,2021.2.3,60.42829155632036,
8.0,1.0,9.0,2.0,0,0,0,0,0,8,8,8,0,0,0,0,,,,,,,,,,,,,,,,,0.007908619969384745,None,0.4826312199875247,None,0.9670793199620675,None,"['num_4', 'return']","[0.37320410000393167, 0.4844642000098247]",55.66544090001844,None,,,,,,,,,,,,,,,,,,,,,,,,,,,,,1,001,2021_Oct_22_1713,eeg_contingent_digits,2021.2.3,60.42829155632036,
8.0,1.0,9.0,2.0,0,0,0,0,0,8,8,8,1,0,1,0,,,,,,,,,,,,,,,,,,,,,,,"['num_4', 'return']","[0.04334839998045936, 0.1793279999983497]",56.186182300007204,None,,,,,,,,,,,,,,,,,,,,,,,,,,,,,1,001,2021_Oct_22_1713,eeg_contingent_digits,2021.2.3,60.42829155632036,
8.0,1.0,9.0,2.0,0,0,0,0,0,8,8,8,2,0,2,0,,,,,,,,,,,,,,,,,,,,,,,"['num_4', 'return']","[0.02128640000591986, 0.11703160000615753]",56.392206900025485,None,,,,,,,,,,,,,,,,,,,,,,,,,,,,,1,001,2021_Oct_22_1713,eeg_contingent_digits,2021.2.3,60.42829155632036,
8.0,1.0,9.0,2.0,0,0,0,0,0,8,8,8,,,,,,,,,,,,,,,,,,,,,,,,,,,,,,,,,,,,,,,,,,,,,,,,,,,,,,,,,,,1,001,2021_Oct_22_1713,eeg_contingent_digits,2021.2.3,60.42829155632036,
9.0,8.0,1.0,0.0,0,0,0,0,0,9,9,9,0,0,0,0,,,,,,,,,,,,,,,,,0.011070019972976297,None,0.47304801997961476,None,0.9558029199833982,None,"['num_4', 'return']","[0.3729841000167653, 0.4774189000017941]",57.976714500022354,None,,,,,,,,,,,,,,,,,,,,,,,,,,,,,1,001,2021_Oct_22_1713,eeg_contingent_digits,2021.2.3,60.42829155632036,
9.0,8.0,1.0,0.0,0,0,0,0,0,9,9,9,1,0,1,0,,,,,,,,,,,,,,,,,,,,,,,"['num_4', 'return']","[0.06202100001974031, 0.15822620000108145]",58.48780150001403,None,,,,,,,,,,,,,,,,,,,,,,,,,,,,,1,001,2021_Oct_22_1713,eeg_contingent_digits,2021.2.3,60.42829155632036,
9.0,8.0,1.0,0.0,0,0,0,0,0,9,9,9,2,0,2,0,,,,,,,,,,,,,,,,,,,,,,,"['num_4', 'return']","[0.0489225999917835, 0.10449239998706616]",58.677418100007344,None,,,,,,,,,,,,,,,,,,,,,,,,,,,,,1,001,2021_Oct_22_1713,eeg_contingent_digits,2021.2.3,60.42829155632036,
9.0,8.0,1.0,0.0,0,0,0,0,0,9,9,9,,,,,,,,,,,,,,,,,,,,,,,,,,,,,,,,,,,,,,,,,,,,,,,,,,,,,,,,,,,1,001,2021_Oct_22_1713,eeg_contingent_digits,2021.2.3,60.42829155632036,
,,,,0,0,0,0,,,,,,,,,,,,,,,,,,,,,,,,,,,,,,,,,,,58.80867070000386,None,,,,,,,,,,,,,,,,,,,,,,,,,,,1,001,2021_Oct_22_1713,eeg_contingent_digits,2021.2.3,60.42829155632036,
,,,,,,,,,,,,,,,,0,0,0,0,,,,,,,,,,,,,,,,,,,,,,,,,68.51002810001955,None,,,,,,,,,,,,,,,,,,,,,,,,,1,001,2021_Oct_22_1713,eeg_contingent_digits,2021.2.3,60.42829155632036,
0.0,6.0,2.0,5.0,,,,,,,,,,,,,,,,,0,0,0,0,0,0,0,0,0,0,0,0,,,,,,,,,,,,,,,78.52448570000706,None,81.3275245000259,None,81.3275245000259,None,81.3275245000259,None,81.3275245000259,None,81.3275245000259,None,0.007368140009930357,None,0.49123574001714587,None,0.9959386400005314,None,"['num_4', 'return']","[4.008912999997847, 4.248554199992213]",86.49301650002599,None,,,1,001,2021_Oct_22_1713,eeg_contingent_digits,2021.2.3,60.42829155632036,
0.0,6.0,2.0,5.0,,,,,,,,,,,,,,,,,0,0,0,0,0,0,0,0,1,0,1,0,,,,,,,,,,,,,,,,,,,,,,,,,,,,,,,,,"['num_4', 'return']","[0.1873681000142824, 0.39585420000366867]",90.77035289999912,None,,,1,001,2021_Oct_22_1713,eeg_contingent_digits,2021.2.3,60.42829155632036,
0.0,6.0,2.0,5.0,,,,,,,,,,,,,,,,,0,0,0,0,0,0,0,0,2,0,2,0,,,,,,,,,,,,,,,,,,,,,,,,,,,,,,,,,"['num_4', 'return']","[0.22577689998433925, 0.41029979998711497]",91.18788100001984,None,,,1,001,2021_Oct_22_1713,eeg_contingent_digits,2021.2.3,60.42829155632036,
0.0,6.0,2.0,5.0,,,,,,,,,,,,,,,,,0,0,0,0,0,0,0,0,,,,,,,,,,,,,,,,,,,,,,,,,,,,,,,,,,,,,,,,,None,None,1,001,2021_Oct_22_1713,eeg_contingent_digits,2021.2.3,60.42829155632036,
1.0,9.0,0.0,5.0,,,,,,,,,,,,,,,,,0,0,0,0,0,1,1,1,0,0,0,0,,,,,,,,,,,,,,,,,91.63939650001703,None,91.63939650001703,None,91.63939650001703,None,91.63939650001703,None,91.63939650001703,None,0.0015940199664328247,None,0.4662329199782107,None,0.9488151199766435,None,['return'],[6.0499910000071395],98.4606277999992,None,,,1,001,2021_Oct_22_1713,eeg_contingent_digits,2021.2.3,60.42829155632036,
1.0,9.0,0.0,5.0,,,,,,,,,,,,,,,,,0,0,0,0,0,1,1,1,1,0,1,0,,,,,,,,,,,,,,,,,,,,,,,,,,,,,,,,,"['num_4', 'return']","[0.170549900009064, 0.5228161000122782]",104.5310473999998,None,,,1,001,2021_Oct_22_1713,eeg_contingent_digits,2021.2.3,60.42829155632036,
1.0,9.0,0.0,5.0,,,,,,,,,,,,,,,,,0,0,0,0,0,1,1,1,2,0,2,0,,,,,,,,,,,,,,,,,,,,,,,,,,,,,,,,,"['num_4', 'return']","[0.06697889999486506, 0.45920579999801703]",105.08207470001071,None,,,1,001,2021_Oct_22_1713,eeg_contingent_digits,2021.2.3,60.42829155632036,
1.0,9.0,0.0,5.0,,,,,,,,,,,,,,,,,0,0,0,0,0,1,1,1,,,,,,,,,,,,,,,,,,,,,,,,,,,,,,,,,,,,,,,,,None,None,1,001,2021_Oct_22_1713,eeg_contingent_digits,2021.2.3,60.42829155632036,
2.0,3.0,2.0,1.0,,,,,,,,,,,,,,,,,0,0,0,0,0,2,2,2,0,0,0,0,,,,,,,,,,,,,,,,,105.58112380001694,None,105.58112380001694,None,105.58112380001694,None,105.58112380001694,None,105.58112380001694,None,0.0025126200052909553,None,0.4738083199772518,None,0.9573288199899253,None,"['num_4', 'return']","[0.7454821999999695, 0.9770338999805972]",112.24435340001946,None,,,1,001,2021_Oct_22_1713,eeg_contingent_digits,2021.2.3,60.42829155632036,
2.0,3.0,2.0,1.0,,,,,,,,,,,,,,,,,0,0,0,0,0,2,2,2,1,0,1,0,,,,,,,,,,,,,,,,,,,,,,,,,,,,,,,,,"['num_4', 'return']","[0.17372970000724308, 0.44627839999157004]",113.25596560002305,None,,,1,001,2021_Oct_22_1713,eeg_contingent_digits,2021.2.3,60.42829155632036,
2.0,3.0,2.0,1.0,,,,,,,,,,,,,,,,,0,0,0,0,0,2,2,2,2,0,2,0,,,,,,,,,,,,,,,,,,,,,,,,,,,,,,,,,"['num_4', 'return']","[0.5387562999967486, 0.9953248999954667]",113.72296830001869,None,,,1,001,2021_Oct_22_1713,eeg_contingent_digits,2021.2.3,60.42829155632036,
2.0,3.0,2.0,1.0,,,,,,,,,,,,,,,,,0,0,0,0,0,2,2,2,,,,,,,,,,,,,,,,,,,,,,,,,,,,,,,,,,,,,,,,,None,None,1,001,2021_Oct_22_1713,eeg_contingent_digits,2021.2.3,60.42829155632036,
3.0,0.0,1.0,4.0,,,,,,,,,,,,,,,,,0,0,0,0,0,3,3,3,0,0,0,0,,,,,,,,,,,,,,,,,114.75184570002602,None,114.75184570002602,None,114.75184570002602,None,114.75184570002602,None,114.75184570002602,None,0.0051258199964649975,None,0.47729701999924146,None,0.9681043199962005,None,"['num_4', 'return']","[0.3645855000067968, 0.58100109998486]",119.76857780001592,None,,,1,001,2021_Oct_22_1713,eeg_contingent_digits,2021.2.3,60.42829155632036,
3.0,0.0,1.0,4.0,,,,,,,,,,,,,,,,,0,0,0,0,0,3,3,3,1,0,1,0,,,,,,,,,,,,,,,,,,,,,,,,,,,,,,,,,"['num_4', 'return']","[0.23512090000440367, 0.41203770000720397]",120.37816030002432,None,,,1,001,2021_Oct_22_1713,eeg_contingent_digits,2021.2.3,60.42829155632036,
3.0,0.0,1.0,4.0,,,,,,,,,,,,,,,,,0,0,0,0,0,3,3,3,2,0,2,0,,,,,,,,,,,,,,,,,,,,,,,,,,,,,,,,,"['num_4', 'return']","[0.24172110002837144, 0.37876850002794527]",120.81177680002293,None,,,1,001,2021_Oct_22_1713,eeg_contingent_digits,2021.2.3,60.42829155632036,
