videoFile;condition;video;speaker;callSign;colour;number;seq;id;block;exp.thisRepN;exp.thisTrialN;exp.thisN;exp.thisIndex;training.thisRepN;training.thisTrialN;training.thisN;training.thisIndex;firstHalf.thisRepN;firstHalf.thisTrialN;firstHalf.thisN;firstHalf.thisIndex;blocksA.thisRepN;blocksA.thisTrialN;blocksA.thisN;blocksA.thisIndex;secondHalf.thisRepN;secondHalf.thisTrialN;secondHalf.thisN;secondHalf.thisIndex;blocksB.thisRepN;blocksB.thisTrialN;blocksB.thisN;blocksB.thisIndex;mouseClickOnCall.x;mouseClickOnCall.y;mouseClickOnCall.leftButton;mouseClickOnCall.midButton;mouseClickOnCall.rightButton;mouseClickOnCall.time;mouseClickOnCall.clicked_name;mouseClickOnColour.x;mouseClickOnColour.y;mouseClickOnColour.leftButton;mouseClickOnColour.midButton;mouseClickOnColour.rightButton;mouseClickOnColour.time;mouseClickOnColour.clicked_name;mouseClickOnNumber.x;mouseClickOnNumber.y;mouseClickOnNumber.leftButton;mouseClickOnNumber.midButton;mouseClickOnNumber.rightButton;mouseClickOnNumber.time;mouseClickOnNumber.clicked_name;callSignCorrect;colourCorrect;numberCorrect;participant;order;date;expName;psychopyVersion;frameRate
video/Training/zh_sp01_Ad_We_4_NVocInAudio_NoVideo.avi;vocoded;noVideo;sp01;Ad;We;4;;;;;;;;0;0;0;0;;;;;;;;;;;;;;;;;-0.42916666666666664;0.35833333333333334;1;0;0;59.117.940.000.001;call1;-0.029166666666666667;-0.3263888888888889;1;0;0;72.141.266.000.001;colour4;0.3958333333333333;-0.3055555555555556;1;0;0;8.061.259.600.000.080;number4;TRUE;TRUE;TRUE;1;1;2019_Nov_07_1551;MA_Theta_Exp;3.0.7;60.171.331.850.314.400
video/Training/zh_sp07_Ad_Ge_3_NVocInAudio_NoVideo.avi;vocoded;noVideo;sp07;Ad;Ge;3;;;;;;;;0;1;1;1;;;;;;;;;;;;;;;;;-0.39861111111111114;0.2986111111111111;1;0;0;54.745.788.000.000.100;call1;0.03611111111111111;0.2763888888888889;1;0;0;7.207.636.600.000.110;colour1;0.36666666666666664;-0.11527777777777778;1;0;0;79.465.020.000.000.000;number3;TRUE;TRUE;TRUE;1;1;2019_Nov_07_1551;MA_Theta_Exp;3.0.7;60.171.331.850.314.400
video/Training/zh_sp01_Dr_Ro_3_NVocInAudio_GlobalThetaInVideo.avi;vocoded;plusVideo;sp01;Dr;Ro;3;;;;;;;;0;2;2;2;;;;;;;;;;;;;;;;;-0.3958333333333333;-0.35138888888888886;1;0;0;537.107.160.000.005;call4;0.001388888888888889;-0.11666666666666667;1;0;0;6.055.389.500.000.040;colour3;0.38055555555555554;-0.0875;1;0;0;663.841.699.999.989;number3;FALSE;TRUE;TRUE;1;1;2019_Nov_07_1551;MA_Theta_Exp;3.0.7;60.171.331.850.314.400
video/Training/zh_sp07_Dr_Gr_4_NVocInAudio_GlobalThetaInVideo.avi;vocoded;plusVideo;sp07;Dr;Gr;4;;;;;;;;0;3;3;3;;;;;;;;;;;;;;;;;-0.4097222222222222;0.10972222222222222;1;0;0;6.307.855.000.000.010;call2;0.027777777777777776;0.10138888888888889;1;0;0;7.061.812.000.000.140;colour2;0.35555555555555557;-0.3458333333333333;1;0;0;7.791.720.700.000.040;number4;TRUE;TRUE;TRUE;1;1;2019_Nov_07_1551;MA_Theta_Exp;3.0.7;60.171.331.850.314.400
video/Training/zh_sp01_Ti_Gr_2_NoThetaInAudio_NoVideo.avi;noTheta;noVideo;sp01;Ti;Gr;2;;;;;;;;0;4;4;4;;;;;;;;;;;;;;;;;-0.39861111111111114;-0.11805555555555555;1;0;0;8.046.943.099.999.900;call3;-0.058333333333333334;0.04027777777777778;1;0;0;8.665.687.599.999.950;colour2;0.41944444444444445;0.08472222222222223;1;0;0;9.135.727.000.000.080;number2;TRUE;TRUE;TRUE;1;1;2019_Nov_07_1551;MA_Theta_Exp;3.0.7;60.171.331.850.314.400
video/Training/zh_sp07_Ti_Ro_1_NoThetaInAudio_NoVideo.avi;noTheta;noVideo;sp07;Ti;Ro;1;;;;;;;;0;5;5;5;;;;;;;;;;;;;;;;;-0.4361111111111111;-0.3861111111111111;1;0;0;4.834.990.999.999.940;call4;0.005555555555555556;-0.10138888888888889;1;0;0;5.490.451.099.999.970;colour3;0.45555555555555555;0.3013888888888889;1;0;0;61.529.835.999.999.700;number1;FALSE;TRUE;TRUE;1;1;2019_Nov_07_1551;MA_Theta_Exp;3.0.7;60.171.331.850.314.400
video/Training/zh_sp01_Un_Ge_1_NoThetaInAudio_GlobalThetaInVideo.avi;noTheta;plusVideo;sp01;Un;Ge;1;;;;;;;;0;6;6;6;;;;;;;;;;;;;;;;;-0.3958333333333333;0.10972222222222222;1;0;0;6.035.969.600.000.040;call2;0.034722222222222224;0.25416666666666665;1;0;0;7.453.163.600.000.150;colour1;0.44166666666666665;0.3125;1;0;0;7.936.246.900.000.010;number1;FALSE;TRUE;TRUE;1;1;2019_Nov_07_1551;MA_Theta_Exp;3.0.7;60.171.331.850.314.400
video/Training/zh_sp07_Un_We_2_NoThetaInAudio_GlobalThetaInVideo.avi;noTheta;plusVideo;sp07;Un;We;2;;;;;;;;0;7;7;7;;;;;;;;;;;;;;;;;-0.3902777777777778;0.07777777777777778;1;0;0;5.977.447.400.000.070;call2;-0.041666666666666664;-0.09722222222222222;1;0;0;667.838.729.999.994;colour3;0.4361111111111111;0.2791666666666667;1;0;0;731.053.339.999.994;number1;FALSE;FALSE;FALSE;1;1;2019_Nov_07_1551;MA_Theta_Exp;3.0.7;60.171.331.850.314.400
video/Training/zh_sp01_Ad_Ge_1_GlobalTheta_NoVideo.avi;globalTheta;noVideo;sp01;Ad;Ge;1;;;;;;;;0;8;8;8;;;;;;;;;;;;;;;;;-0.41944444444444445;-0.3402777777777778;1;0;0;67.547.568.999.998.400;call4;0.06944444444444445;0.075;1;0;0;7.387.153.299.999.900;colour2;0.4527777777777778;0.3194444444444444;1;0;0;7.792.066.900.000.000;number1;FALSE;FALSE;TRUE;1;1;2019_Nov_07_1551;MA_Theta_Exp;3.0.7;60.171.331.850.314.400
video/Training/zh_sp07_Ad_Ro_3_GlobalTheta_NoVideo.avi;globalTheta;noVideo;sp07;Ad;Ro;3;;;;;;;;0;9;9;9;;;;;;;;;;;;;;;;;-0.35555555555555557;0.05138888888888889;1;0;0;6.019.909.000.000.090;call2;-0.044444444444444446;0.07222222222222222;1;0;0;6.488.460.799.999.980;colour2;0.39305555555555555;-0.07777777777777778;1;0;0;7.052.860.199.999.940;number3;FALSE;FALSE;TRUE;1;1;2019_Nov_07_1551;MA_Theta_Exp;3.0.7;60.171.331.850.314.400
video/Experiment/zh_sp07_Dr_Gr_3_NVocInAudio_NoVideo.avi;vocoded;noVideo;sp07;Dr;Gr;3;0;2;flow/blocks/NVocInAudio_NoVideo_A.csv;;;;;;;;;0;0;0;0;0;0;0;22;;;;;;;;;-0.4361111111111111;0.1125;1;0;0;5.123.924.199.999.910;call2;-0.008333333333333333;0.1;1;0;0;5.848.912.299.999.930;colour2;0.3597222222222222;-0.11527777777777778;1;0;0;6.407.873.099.999.960;number3;TRUE;TRUE;TRUE;1;1;2019_Nov_07_1551;MA_Theta_Exp;3.0.7;60.171.331.850.314.400
video/Experiment/zh_sp01_Dr_We_4_NVocInAudio_NoVideo.avi;vocoded;noVideo;sp01;Dr;We;4;0;2;flow/blocks/NVocInAudio_NoVideo_A.csv;;;;;;;;;0;0;0;0;0;1;1;31;;;;;;;;;-0.3861111111111111;0.0625;1;0;0;5.462.041.899.999.800;call2;-0.022222222222222223;-0.36527777777777776;1;0;0;61.329.359.000.001.200;colour4;0.40694444444444444;-0.3194444444444444;1;0;0;6.634.732.400.000.070;number4;TRUE;TRUE;TRUE;1;1;2019_Nov_07_1551;MA_Theta_Exp;3.0.7;60.171.331.850.314.400
video/Experiment/zh_sp01_Ad_Ge_2_NVocInAudio_NoVideo.avi;vocoded;noVideo;sp01;Ad;Ge;2;0;2;flow/blocks/NVocInAudio_NoVideo_A.csv;;;;;;;;;0;0;0;0;0;2;2;1;;;;;;;;;-0.37222222222222223;0.2986111111111111;1;0;0;5.566.574.199.999.870;call1;-0.013888888888888888;0.3375;1;0;0;6.027.302.299.999.970;colour1;0.3375;0.125;1;0;0;6.711.639.400.000.190;number2;TRUE;TRUE;TRUE;1;1;2019_Nov_07_1551;MA_Theta_Exp;3.0.7;60.171.331.850.314.400
video/Experiment/zh_sp01_Dr_Ro_3_NVocInAudio_NoVideo.avi;vocoded;noVideo;sp01;Dr;Ro;3;0;2;flow/blocks/NVocInAudio_NoVideo_A.csv;;;;;;;;;0;0;0;0;0;3;3;26;;;;;;;;;-0.3680555555555556;0.0875;1;0;0;5.433.856.300.000.110;call2;-0.022222222222222223;-0.11666666666666667;1;0;0;6.000.797.899.999.950;colour3;0.4527777777777778;-0.1125;1;0;0;6.601.687.000.000.080;number3;TRUE;TRUE;TRUE;1;1;2019_Nov_07_1551;MA_Theta_Exp;3.0.7;60.171.331.850.314.400
video/Experiment/zh_sp01_Dr_We_3_NVocInAudio_NoVideo.avi;vocoded;noVideo;sp01;Dr;We;3;0;2;flow/blocks/NVocInAudio_NoVideo_A.csv;;;;;;;;;0;0;0;0;0;4;4;30;;;;;;;;;-0.37777777777777777;0.0875;1;0;0;5.006.469.700.000.020;call2;0.0;-0.3680555555555556;1;0;0;5.710.036.799.999.890;colour4;0.3972222222222222;-0.10694444444444444;1;0;0;6.523.803.699.999.910;number3;TRUE;TRUE;TRUE;1;1;2019_Nov_07_1551;MA_Theta_Exp;3.0.7;60.171.331.850.314.400
video/Experiment/zh_sp07_Ad_Ro_4_NVocInAudio_NoVideo.avi;vocoded;noVideo;sp07;Ad;Ro;4;0;2;flow/blocks/NVocInAudio_NoVideo_A.csv;;;;;;;;;0;0;0;0;0;5;5;11;;;;;;;;;-0.4263888888888889;0.2972222222222222;1;0;0;49.263.614.999.999.800;call1;-0.006944444444444444;-0.11527777777777778;1;0;0;582.926.469.999.984;colour3;0.35833333333333334;-0.36666666666666664;1;0;0;6.413.057.600.000.000;number4;TRUE;TRUE;TRUE;1;1;2019_Nov_07_1551;MA_Theta_Exp;3.0.7;60.171.331.850.314.400
video/Experiment/zh_sp07_Dr_Ge_2_NVocInAudio_NoVideo.avi;vocoded;noVideo;sp07;Dr;Ge;2;0;2;flow/blocks/NVocInAudio_NoVideo_A.csv;;;;;;;;;0;0;0;0;0;6;6;17;;;;;;;;;-0.3875;0.10416666666666667;1;0;0;49.181.422.999.999.900;call2;-0.05277777777777778;0.28055555555555556;1;0;0;5.551.194.099.999.970;colour1;0.3472222222222222;0.08055555555555556;1;0;0;6.134.853.000.000.020;number2;TRUE;TRUE;TRUE;1;1;2019_Nov_07_1551;MA_Theta_Exp;3.0.7;60.171.331.850.314.400
video/Experiment/zh_sp01_Ad_Gr_2_NVocInAudio_NoVideo.avi;vocoded;noVideo;sp01;Ad;Gr;2;0;2;flow/blocks/NVocInAudio_NoVideo_A.csv;;;;;;;;;0;0;0;0;0;7;7;5;;;;;;;;;-0.4236111111111111;0.3402777777777778;1;0;0;5.193.714.199.999.930;call1;-0.058333333333333334;0.1125;1;0;0;57.106.366.000.000.400;colour2;0.4152777777777778;0.12222222222222222;1;0;0;6.276.852.899.999.990;number2;TRUE;TRUE;TRUE;1;1;2019_Nov_07_1551;MA_Theta_Exp;3.0.7;60.171.331.850.314.400
video/Experiment/zh_sp01_Ad_Ro_3_NVocInAudio_NoVideo.avi;vocoded;noVideo;sp01;Ad;Ro;3;0;2;flow/blocks/NVocInAudio_NoVideo_A.csv;;;;;;;;;0;0;0;0;0;8;8;10;;;;;;;;;-0.33611111111111114;0.2972222222222222;1;0;0;5.119.387.299.999.970;call1;-0.04583333333333333;-0.11666666666666667;1;0;0;57.696.719.000.000.400;colour3;0.4152777777777778;-0.1125;1;0;0;6.306.738.600.000.010;number3;TRUE;TRUE;TRUE;1;1;2019_Nov_07_1551;MA_Theta_Exp;3.0.7;60.171.331.850.314.400
video/Experiment/zh_sp07_Dr_Ge_4_NVocInAudio_NoVideo.avi;vocoded;noVideo;sp07;Dr;Ge;4;0;2;flow/blocks/NVocInAudio_NoVideo_A.csv;;;;;;;;;0;0;0;0;0;9;9;19;;;;;;;;;-0.3902777777777778;0.10972222222222222;1;0;0;4.808.259.300.000.140;call2;0.025;0.2916666666666667;1;0;0;5.376.931.999.999.890;colour1;0.3958333333333333;-0.3013888888888889;1;0;0;6.010.970.300.000.050;number4;TRUE;TRUE;TRUE;1;1;2019_Nov_07_1551;MA_Theta_Exp;3.0.7;60.171.331.850.314.400
video/Experiment/zh_sp07_Ad_Gr_1_NVocInAudio_NoVideo.avi;vocoded;noVideo;sp07;Ad;Gr;1;0;2;flow/blocks/NVocInAudio_NoVideo_A.csv;;;;;;;;;0;0;0;0;0;10;10;4;;;;;;;;;-0.37222222222222223;0.32083333333333336;1;0;0;4.573.409.000.000.080;call1;-0.05555555555555555;0.10277777777777777;1;0;0;5.073.330.700.000.040;colour2;0.38472222222222224;0.2569444444444444;1;0;0;5.544.084.799.999.830;number1;TRUE;TRUE;TRUE;1;1;2019_Nov_07_1551;MA_Theta_Exp;3.0.7;60.171.331.850.314.400
video/Experiment/zh_sp01_Ad_Gr_3_NVocInAudio_NoVideo.avi;vocoded;noVideo;sp01;Ad;Gr;3;0;2;flow/blocks/NVocInAudio_NoVideo_A.csv;;;;;;;;;0;0;0;0;0;11;11;6;;;;;;;;;-0.3888888888888889;0.2972222222222222;1;0;0;503.336.440.000.021;call1;-0.04861111111111111;0.10138888888888889;1;0;0;5.567.255.500.000.100;colour2;0.36944444444444446;-0.11388888888888889;1;0;0;6.069.081.300.000.100;number3;TRUE;TRUE;TRUE;1;1;2019_Nov_07_1551;MA_Theta_Exp;3.0.7;60.171.331.850.314.400
video/Experiment/zh_sp07_Dr_We_1_NVocInAudio_NoVideo.avi;vocoded;noVideo;sp07;Dr;We;1;0;2;flow/blocks/NVocInAudio_NoVideo_A.csv;;;;;;;;;0;0;0;0;0;12;12;28;;;;;;;;;-0.42083333333333334;0.08472222222222223;1;0;0;4.467.140.899.999.770;call2;-0.05;-0.30972222222222223;1;0;0;5.117.620.499.999.700;colour4;0.4652777777777778;0.31527777777777777;1;0;0;5.852.728.500.000.010;number1;TRUE;TRUE;TRUE;1;1;2019_Nov_07_1551;MA_Theta_Exp;3.0.7;60.171.331.850.314.400
video/Experiment/zh_sp07_Dr_Gr_1_NVocInAudio_NoVideo.avi;vocoded;noVideo;sp07;Dr;Gr;1;0;2;flow/blocks/NVocInAudio_NoVideo_A.csv;;;;;;;;;0;0;0;0;0;13;13;20;;;;;;;;;-0.41388888888888886;0.05;1;0;0;4.755.781.200.000.000;call2;-0.004166666666666667;0.08055555555555556;1;0;0;5.237.926.799.999.960;colour2;0.39166666666666666;0.2722222222222222;1;0;0;5.677.694.700.000.300;number1;TRUE;TRUE;TRUE;1;1;2019_Nov_07_1551;MA_Theta_Exp;3.0.7;60.171.331.850.314.400
video/Experiment/zh_sp01_Ad_Gr_4_NVocInAudio_NoVideo.avi;vocoded;noVideo;sp01;Ad;Gr;4;0;2;flow/blocks/NVocInAudio_NoVideo_A.csv;;;;;;;;;0;0;0;0;0;14;14;7;;;;;;;;;-0.38333333333333336;0.3125;1;0;0;538.349.130.000.006;call1;-0.06666666666666667;0.10972222222222222;1;0;0;59.009.015.000.001.400;colour2;0.4166666666666667;-0.3333333333333333;1;0;0;6.503.288.500.000.050;number4;TRUE;TRUE;TRUE;1;1;2019_Nov_07_1551;MA_Theta_Exp;3.0.7;60.171.331.850.314.400
video/Experiment/zh_sp01_Dr_Ro_1_NVocInAudio_NoVideo.avi;vocoded;noVideo;sp01;Dr;Ro;1;0;2;flow/blocks/NVocInAudio_NoVideo_A.csv;;;;;;;;;0;0;0;0;0;15;15;24;;;;;;;;;-0.40694444444444444;0.10833333333333334;1;0;0;5.672.506.599.999.900;call2;-0.06944444444444445;-0.075;1;0;0;6.271.827.399.999.890;colour3;0.4111111111111111;0.24583333333333332;1;0;0;6.937.948.699.999.650;number1;TRUE;TRUE;TRUE;1;1;2019_Nov_07_1551;MA_Theta_Exp;3.0.7;60.171.331.850.314.400
video/Experiment/zh_sp01_Dr_Ge_1_NVocInAudio_NoVideo.avi;vocoded;noVideo;sp01;Dr;Ge;1;0;2;flow/blocks/NVocInAudio_NoVideo_A.csv;;;;;;;;;0;0;0;0;0;16;16;16;;;;;;;;;-0.3976851851851852;0.06805555555555555;1;0;0;5.714.703.800.000.270;call2;-0.056018518518518516;0.31805555555555554;1;0;0;6.281.819.499.999.980;colour1;0.39675925925925926;0.30694444444444446;1;0;0;6.748.648.999.999.650;number1;TRUE;TRUE;TRUE;1;1;2019_Nov_07_1551;MA_Theta_Exp;3.0.7;60.171.331.850.314.400
video/Experiment/zh_sp07_Dr_Ge_3_NVocInAudio_NoVideo.avi;vocoded;noVideo;sp07;Dr;Ge;3;0;2;flow/blocks/NVocInAudio_NoVideo_A.csv;;;;;;;;;0;0;0;0;0;17;17;18;;;;;;;;;-0.4462962962962963;0.08611111111111111;1;0;0;4.281.094.199.999.640;call2;-0.033796296296296297;0.2763888888888889;1;0;0;478.183.480.000.007;colour1;0.3537037037037037;-0.0625;1;0;0;5.385.844.399.999.760;number3;TRUE;TRUE;TRUE;1;1;2019_Nov_07_1551;MA_Theta_Exp;3.0.7;60.171.331.850.314.400
video/Experiment/zh_sp07_Ad_Ro_1_NVocInAudio_NoVideo.avi;vocoded;noVideo;sp07;Ad;Ro;1;0;2;flow/blocks/NVocInAudio_NoVideo_A.csv;;;;;;;;;0;0;0;0;0;18;18;8;;;;;;;;;-0.36712962962962964;0.3194444444444444;1;0;0;4.323.673.899.999.900;call1;-0.033796296296296297;-0.16111111111111112;1;0;0;4.889.840.599.999.840;colour3;0.4398148148148148;0.3055555555555556;1;0;0;54.613.346.000.001;number1;TRUE;TRUE;TRUE;1;1;2019_Nov_07_1551;MA_Theta_Exp;3.0.7;60.171.331.850.314.400
video/Experiment/zh_sp01_Dr_Gr_4_NVocInAudio_NoVideo.avi;vocoded;noVideo;sp01;Dr;Gr;4;0;2;flow/blocks/NVocInAudio_NoVideo_A.csv;;;;;;;;;0;0;0;0;0;19;19;23;;;;;;;;;-0.3837962962962963;0.09861111111111111;1;0;0;5.472.644.599.999.960;call2;0.037037037037037035;0.125;1;0;0;6.217.401.599.999.900;colour2;0.38287037037037036;-0.24305555555555555;1;0;0;6.789.822.700.000.050;number4;TRUE;TRUE;TRUE;1;1;2019_Nov_07_1551;MA_Theta_Exp;3.0.7;60.171.331.850.314.400
video/Experiment/zh_sp07_Ad_Ro_2_NVocInAudio_NoVideo.avi;vocoded;noVideo;sp07;Ad;Ro;2;0;2;flow/blocks/NVocInAudio_NoVideo_A.csv;;;;;;;;;0;0;0;0;0;20;20;9;;;;;;;;;-0.3296296296296296;0.10555555555555556;1;0;0;4.554.365.599.999.980;call2;-0.007407407407407408;-0.12222222222222222;1;0;0;50.062.840.999.999.000;colour3;0.4356481481481482;0.09027777777777778;1;0;0;5.604.028.699.999.610;number2;FALSE;TRUE;TRUE;1;1;2019_Nov_07_1551;MA_Theta_Exp;3.0.7;60.171.331.850.314.400
video/Experiment/zh_sp07_Ad_Ge_4_NVocInAudio_NoVideo.avi;vocoded;noVideo;sp07;Ad;Ge;4;0;2;flow/blocks/NVocInAudio_NoVideo_A.csv;;;;;;;;;0;0;0;0;0;21;21;3;;;;;;;;;-0.38935185185185184;0.30416666666666664;1;0;0;4.715.819.199.999.710;call1;0.04537037037037037;0.3194444444444444;1;0;0;513.260.530.000.025;colour1;0.3925925925925926;-0.3763888888888889;1;0;0;5.816.055.600.000.250;number4;TRUE;TRUE;TRUE;1;1;2019_Nov_07_1551;MA_Theta_Exp;3.0.7;60.171.331.850.314.400
video/Experiment/zh_sp01_Ad_Ge_3_NVocInAudio_NoVideo.avi;vocoded;noVideo;sp01;Ad;Ge;3;0;2;flow/blocks/NVocInAudio_NoVideo_A.csv;;;;;;;;;0;0;0;0;0;22;22;2;;;;;;;;;-0.4449074074074074;0.32083333333333336;1;0;0;5.708.667.500.000.040;call1;0.06481481481481481;0.2916666666666667;1;0;0;6.725.902.399.999.990;colour1;0.36064814814814816;-0.041666666666666664;1;0;0;7.472.961.899.999.970;number3;TRUE;TRUE;TRUE;1;1;2019_Nov_07_1551;MA_Theta_Exp;3.0.7;60.171.331.850.314.400
video/Experiment/zh_sp01_Ad_We_3_NVocInAudio_NoVideo.avi;vocoded;noVideo;sp01;Ad;We;3;0;2;flow/blocks/NVocInAudio_NoVideo_A.csv;;;;;;;;;0;0;0;0;0;23;23;14;;;;;;;;;-0.41712962962962963;0.3388888888888889;1;0;0;4.864.498.999.999.790;call1;-0.02824074074074074;-0.3736111111111111;1;0;0;55.144.021.999.999.400;colour4;0.4078703703703704;-0.16805555555555557;1;0;0;6.015.800.399.999.980;number3;TRUE;TRUE;TRUE;1;1;2019_Nov_07_1551;MA_Theta_Exp;3.0.7;60.171.331.850.314.400
video/Experiment/zh_sp01_Dr_Ro_4_NVocInAudio_NoVideo.avi;vocoded;noVideo;sp01;Dr;Ro;4;0;2;flow/blocks/NVocInAudio_NoVideo_A.csv;;;;;;;;;0;0;0;0;0;24;24;27;;;;;;;;;-0.36018518518518516;0.09027777777777778;1;0;0;52.584.468.000.000.000;call2;-0.047685185185185185;0.3;1;0;0;5.746.825.600.000.190;colour1;0.3523148148148148;-0.2916666666666667;1;0;0;6.611.014.999.999.950;number4;TRUE;FALSE;TRUE;1;1;2019_Nov_07_1551;MA_Theta_Exp;3.0.7;60.171.331.850.314.400
video/Experiment/zh_sp07_Dr_Gr_2_NVocInAudio_NoVideo.avi;vocoded;noVideo;sp07;Dr;Gr;2;0;2;flow/blocks/NVocInAudio_NoVideo_A.csv;;;;;;;;;0;0;0;0;0;25;25;21;;;;;;;;;-0.4351851851851852;0.09861111111111111;1;0;0;46.630.662.999.996.200;call2;-0.056018518518518516;0.1111111111111111;1;0;0;52.959.843.000.003.200;colour2;0.47175925925925927;0.10833333333333334;1;0;0;6.119.500.300.000.250;number2;TRUE;TRUE;TRUE;1;1;2019_Nov_07_1551;MA_Theta_Exp;3.0.7;60.171.331.850.314.400
video/Experiment/zh_sp07_Dr_We_2_NVocInAudio_NoVideo.avi;vocoded;noVideo;sp07;Dr;We;2;0;2;flow/blocks/NVocInAudio_NoVideo_A.csv;;;;;;;;;0;0;0;0;0;26;26;29;;;;;;;;;-0.39351851851851855;0.09722222222222222;1;0;0;447.728.189.999.998;call2;0.012037037037037037;-0.33055555555555555;1;0;0;5.694.542.199.999.880;colour4;0.4287037037037037;0.07361111111111111;1;0;0;6.427.964.200.000.130;number2;TRUE;TRUE;TRUE;1;1;2019_Nov_07_1551;MA_Theta_Exp;3.0.7;60.171.331.850.314.400
video/Experiment/zh_sp07_Dr_Ro_2_NVocInAudio_NoVideo.avi;vocoded;noVideo;sp07;Dr;Ro;2;0;2;flow/blocks/NVocInAudio_NoVideo_A.csv;;;;;;;;;0;0;0;0;0;27;27;25;;;;;;;;;-0.38935185185185184;0.09722222222222222;1;0;0;4.511.210.900.000.150;call2;-0.007407407407407408;-0.10138888888888889;1;0;0;4.998.109.300.000.120;colour3;0.4203703703703704;0.08611111111111111;1;0;0;5.460.325.399.999.870;number2;TRUE;TRUE;TRUE;1;1;2019_Nov_07_1551;MA_Theta_Exp;3.0.7;60.171.331.850.314.400
video/Experiment/zh_sp07_Ad_We_1_NVocInAudio_NoVideo.avi;vocoded;noVideo;sp07;Ad;We;1;0;2;flow/blocks/NVocInAudio_NoVideo_A.csv;;;;;;;;;0;0;0;0;0;28;28;12;;;;;;;;;-0.42962962962962964;0.3013888888888889;1;0;0;4.522.663.699.999.610;call1;-0.11157407407407408;-0.3263888888888889;1;0;0;5.222.305.299.999.780;colour4;0.4287037037037037;0.3277777777777778;1;0;0;636.182.510.000.026;number1;TRUE;TRUE;TRUE;1;1;2019_Nov_07_1551;MA_Theta_Exp;3.0.7;60.171.331.850.314.400
video/Experiment/zh_sp01_Ad_We_4_NVocInAudio_NoVideo.avi;vocoded;noVideo;sp01;Ad;We;4;0;2;flow/blocks/NVocInAudio_NoVideo_A.csv;;;;;;;;;0;0;0;0;0;29;29;15;;;;;;;;;-0.3851851851851852;0.3013888888888889;1;0;0;509.280.549.999.994;call1;0.055092592592592596;-0.4;1;0;0;5.765.590.800.000.150;colour4;0.48564814814814816;-0.30694444444444446;1;0;0;6.256.269.500.000.140;number4;TRUE;TRUE;TRUE;1;1;2019_Nov_07_1551;MA_Theta_Exp;3.0.7;60.171.331.850.314.400
video/Experiment/zh_sp07_Ad_Ge_1_NVocInAudio_NoVideo.avi;vocoded;noVideo;sp07;Ad;Ge;1;0;2;flow/blocks/NVocInAudio_NoVideo_A.csv;;;;;;;;;0;0;0;0;0;30;30;0;;;;;;;;;-0.350462962962963;0.2611111111111111;1;0;0;4.567.066.899.999.640;call1;0.06481481481481481;0.32916666666666666;1;0;0;5.035.211.900.000.370;colour1;0.4064814814814815;0.30972222222222223;1;0;0;5.499.957.400.000.310;number1;TRUE;TRUE;TRUE;1;1;2019_Nov_07_1551;MA_Theta_Exp;3.0.7;60.171.331.850.314.400
video/Experiment/zh_sp01_Ad_We_2_NVocInAudio_NoVideo.avi;vocoded;noVideo;sp01;Ad;We;2;0;2;flow/blocks/NVocInAudio_NoVideo_A.csv;;;;;;;;;0;0;0;0;0;31;31;13;;;;;;;;;-0.33796296296296297;0.3263888888888889;1;0;0;5.087.261.099.999.970;call1;-0.040740740740740744;-0.34305555555555556;1;0;0;580.924.559.999.994;colour4;0.45092592592592595;0.125;1;0;0;6.398.374.800.000.050;number2;TRUE;TRUE;TRUE;1;1;2019_Nov_07_1551;MA_Theta_Exp;3.0.7;60.171.331.850.314.400
video/Experiment/zh_sp01_Dr_Ge_4_NoThetaInAudio_GlobalThetaInVideo.avi;noTheta;plusVideo;sp01;Dr;Ge;4;1;3;flow/blocks/NoThetaInAudio_GlobalThetaInVideo_A.csv;;;;;;;;;0;1;1;1;0;0;0;19;;;;;;;;;-0.4212962962962963;0.2847222222222222;1;0;0;6.404.866.800.000.030;call1;-0.02962962962962963;0.2972222222222222;1;0;0;7.204.055.000.000.150;colour1;0.4134259259259259;0.06111111111111111;1;0;0;7.738.041.799.999.790;number2;FALSE;TRUE;FALSE;1;1;2019_Nov_07_1551;MA_Theta_Exp;3.0.7;60.171.331.850.314.400
video/Experiment/zh_sp01_Ad_Ge_3_NoThetaInAudio_GlobalThetaInVideo.avi;noTheta;plusVideo;sp01;Ad;Ge;3;1;3;flow/blocks/NoThetaInAudio_GlobalThetaInVideo_A.csv;;;;;;;;;0;1;1;1;0;1;1;2;;;;;;;;;-0.38796296296296295;0.12638888888888888;1;0;0;5.362.936.499.999.700;call2;0.006481481481481481;0.2791666666666667;1;0;0;58.890.112.999.997.600;colour1;0.4287037037037037;-0.0763888888888889;1;0;0;64.066.695.999.999.800;number3;FALSE;TRUE;TRUE;1;1;2019_Nov_07_1551;MA_Theta_Exp;3.0.7;60.171.331.850.314.400
video/Experiment/zh_sp01_Ad_Ro_4_NoThetaInAudio_GlobalThetaInVideo.avi;noTheta;plusVideo;sp01;Ad;Ro;4;1;3;flow/blocks/NoThetaInAudio_GlobalThetaInVideo_A.csv;;;;;;;;;0;1;1;1;0;2;2;11;;;;;;;;;-0.362962962962963;0.3416666666666667;1;0;0;507.279.219.999.964;call1;-0.026851851851851852;-0.1486111111111111;1;0;0;5.653.324.000.000.330;colour3;0.4675925925925926;-0.4;1;0;0;6.142.378.800.000.180;number4;TRUE;TRUE;TRUE;1;1;2019_Nov_07_1551;MA_Theta_Exp;3.0.7;60.171.331.850.314.400
video/Experiment/zh_sp07_Ad_Ro_1_NoThetaInAudio_GlobalThetaInVideo.avi;noTheta;plusVideo;sp07;Ad;Ro;1;1;3;flow/blocks/NoThetaInAudio_GlobalThetaInVideo_A.csv;;;;;;;;;0;1;1;1;0;3;3;8;;;;;;;;;-0.4101851851851852;0.1125;1;0;0;50.106.619.000.002.800;call2;0.023148148148148147;-0.1375;1;0;0;642.927.120.000.013;colour3;0.4412037037037037;0.2777777777777778;1;0;0;6.994.918.900.000.350;number1;FALSE;TRUE;TRUE;1;1;2019_Nov_07_1551;MA_Theta_Exp;3.0.7;60.171.331.850.314.400
video/Experiment/zh_sp07_Ad_We_3_NoThetaInAudio_GlobalThetaInVideo.avi;noTheta;plusVideo;sp07;Ad;We;3;1;3;flow/blocks/NoThetaInAudio_GlobalThetaInVideo_A.csv;;;;;;;;;0;1;1;1;0;4;4;14;;;;;;;;;-0.40185185185185185;0.30972222222222223;1;0;0;41.378.843.000.002.200;call1;-0.06435185185185185;-0.3541666666666667;1;0;0;48.046.862.999.999.500;colour4;0.4064814814814815;-0.13472222222222222;1;0;0;5.421.716.199.999.990;number3;TRUE;TRUE;TRUE;1;1;2019_Nov_07_1551;MA_Theta_Exp;3.0.7;60.171.331.850.314.400
video/Experiment/zh_sp07_Ad_We_1_NoThetaInAudio_GlobalThetaInVideo.avi;noTheta;plusVideo;sp07;Ad;We;1;1;3;flow/blocks/NoThetaInAudio_GlobalThetaInVideo_A.csv;;;;;;;;;0;1;1;1;0;5;5;12;;;;;;;;;-0.3962962962962963;0.2916666666666667;1;0;0;4.341.897.000.000.240;call1;-0.03518518518518519;-0.35138888888888886;1;0;0;4.943.060.700.000.380;colour4;0.3925925925925926;0.2833333333333333;1;0;0;5.643.150.700.000.200;number1;TRUE;TRUE;TRUE;1;1;2019_Nov_07_1551;MA_Theta_Exp;3.0.7;60.171.331.850.314.400
video/Experiment/zh_sp01_Ad_Gr_3_NoThetaInAudio_GlobalThetaInVideo.avi;noTheta;plusVideo;sp01;Ad;Gr;3;1;3;flow/blocks/NoThetaInAudio_GlobalThetaInVideo_A.csv;;;;;;;;;0;1;1;1;0;6;6;6;;;;;;;;;-0.3560185185185185;0.2791666666666667;1;0;0;5.132.538.299.999.850;call1;-0.033796296296296297;0.08055555555555556;1;0;0;5.614.157.300.000.440;colour2;0.4134259259259259;-0.10833333333333334;1;0;0;6.326.243.199.999.680;number3;TRUE;TRUE;TRUE;1;1;2019_Nov_07_1551;MA_Theta_Exp;3.0.7;60.171.331.850.314.400
video/Experiment/zh_sp07_Dr_Gr_4_NoThetaInAudio_GlobalThetaInVideo.avi;noTheta;plusVideo;sp07;Dr;Gr;4;1;3;flow/blocks/NoThetaInAudio_GlobalThetaInVideo_A.csv;;;;;;;;;0;1;1;1;0;7;7;23;;;;;;;;;-0.3587962962962963;0.33194444444444443;1;0;0;4.622.875.900.000.050;call1;0.02175925925925926;0.09861111111111111;1;0;0;5.040.894.799.999.930;colour2;0.41759259259259257;-0.2972222222222222;1;0;0;5.540.258.899.999.570;number4;FALSE;TRUE;TRUE;1;1;2019_Nov_07_1551;MA_Theta_Exp;3.0.7;60.171.331.850.314.400
video/Experiment/zh_sp01_Dr_We_4_NoThetaInAudio_GlobalThetaInVideo.avi;noTheta;plusVideo;sp01;Dr;We;4;1;3;flow/blocks/NoThetaInAudio_GlobalThetaInVideo_A.csv;;;;;;;;;0;1;1;1;0;8;8;31;;;;;;;;;-0.3337962962962963;0.10277777777777777;1;0;0;5.275.868.299.999.720;call2;-0.047685185185185185;-0.25555555555555554;1;0;0;5.792.293.299.999.980;colour4;0.37037037037037035;-0.3638888888888889;1;0;0;62.918.141.000.000.100;number4;TRUE;TRUE;TRUE;1;1;2019_Nov_07_1551;MA_Theta_Exp;3.0.7;60.171.331.850.314.400
video/Experiment/zh_sp01_Dr_Gr_2_NoThetaInAudio_GlobalThetaInVideo.avi;noTheta;plusVideo;sp01;Dr;Gr;2;1;3;flow/blocks/NoThetaInAudio_GlobalThetaInVideo_A.csv;;;;;;;;;0;1;1;1;0;9;9;21;;;;;;;;;-0.3476851851851852;0.07916666666666666;1;0;0;5.215.742.099.999.710;call2;0.028703703703703703;-0.31666666666666665;1;0;0;5.716.619.999.999.690;colour4;0.4050925925925926;-0.025;1;0;0;62.331.647.000.000.800;number3;TRUE;FALSE;FALSE;1;1;2019_Nov_07_1551;MA_Theta_Exp;3.0.7;60.171.331.850.314.400
video/Experiment/zh_sp01_Dr_Ge_2_NoThetaInAudio_GlobalThetaInVideo.avi;noTheta;plusVideo;sp01;Dr;Ge;2;1;3;flow/blocks/NoThetaInAudio_GlobalThetaInVideo_A.csv;;;;;;;;;0;1;1;1;0;10;10;17;;;;;;;;;-0.38101851851851853;0.2986111111111111;1;0;0;52.780.078.999.999.200;call1;-0.01574074074074074;0.2916666666666667;1;0;0;5.671.913.700.000.000;colour1;0.4023148148148148;0.1;1;0;0;6.122.335.300.000.030;number2;FALSE;TRUE;TRUE;1;1;2019_Nov_07_1551;MA_Theta_Exp;3.0.7;60.171.331.850.314.400
video/Experiment/zh_sp07_Dr_Ro_3_NoThetaInAudio_GlobalThetaInVideo.avi;noTheta;plusVideo;sp07;Dr;Ro;3;1;3;flow/blocks/NoThetaInAudio_GlobalThetaInVideo_A.csv;;;;;;;;;0;1;1;1;0;11;11;26;;;;;;;;;-0.41435185185185186;0.1361111111111111;1;0;0;4.258.242.099.999.730;call2;0.027314814814814816;-0.1111111111111111;1;0;0;4.807.265.500.000.080;colour3;0.41759259259259257;-0.14305555555555555;1;0;0;5.274.912.700.000.180;number3;TRUE;TRUE;TRUE;1;1;2019_Nov_07_1551;MA_Theta_Exp;3.0.7;60.171.331.850.314.400
video/Experiment/zh_sp07_Ad_We_2_NoThetaInAudio_GlobalThetaInVideo.avi;noTheta;plusVideo;sp07;Ad;We;2;1;3;flow/blocks/NoThetaInAudio_GlobalThetaInVideo_A.csv;;;;;;;;;0;1;1;1;0;12;12;13;;;;;;;;;-0.37546296296296294;0.275;1;0;0;4.385.074.499.999.970;call1;-0.02824074074074074;-0.3819444444444444;1;0;0;499.771.469.999.996;colour4;0.43287037037037035;0.06944444444444445;1;0;0;5.564.047.899.999.870;number2;TRUE;TRUE;TRUE;1;1;2019_Nov_07_1551;MA_Theta_Exp;3.0.7;60.171.331.850.314.400
video/Experiment/zh_sp07_Dr_Ro_1_NoThetaInAudio_GlobalThetaInVideo.avi;noTheta;plusVideo;sp07;Dr;Ro;1;1;3;flow/blocks/NoThetaInAudio_GlobalThetaInVideo_A.csv;;;;;;;;;0;1;1;1;0;13;13;24;;;;;;;;;-0.4185185185185185;0.29305555555555557;1;0;0;43.014.891.000.002.500;call1;-0.07407407407407407;-0.0625;1;0;0;4.780.380.700.000.020;colour3;0.4064814814814815;0.3194444444444444;1;0;0;5.364.036.800.000.120;number1;FALSE;TRUE;TRUE;1;1;2019_Nov_07_1551;MA_Theta_Exp;3.0.7;60.171.331.850.314.400
video/Experiment/zh_sp01_Ad_Gr_2_NoThetaInAudio_GlobalThetaInVideo.avi;noTheta;plusVideo;sp01;Ad;Gr;2;1;3;flow/blocks/NoThetaInAudio_GlobalThetaInVideo_A.csv;;;;;;;;;0;1;1;1;0;14;14;5;;;;;;;;;-0.3421296296296296;0.31666666666666665;1;0;0;53.890.409.000.000.500;call1;0.03564814814814815;0.09861111111111111;1;0;0;5.822.621.400.000.110;colour2;0.48148148148148145;0.08333333333333333;1;0;0;6.255.189.700.000.300;number2;TRUE;TRUE;TRUE;1;1;2019_Nov_07_1551;MA_Theta_Exp;3.0.7;60.171.331.850.314.400
video/Experiment/zh_sp01_Ad_Gr_1_NoThetaInAudio_GlobalThetaInVideo.avi;noTheta;plusVideo;sp01;Ad;Gr;1;1;3;flow/blocks/NoThetaInAudio_GlobalThetaInVideo_A.csv;;;;;;;;;0;1;1;1;0;15;15;4;;;;;;;;;-0.38657407407407407;0.325;1;0;0;5.175.019.499.999.960;call1;-0.000462962962962963;0.12638888888888888;1;0;0;5.973.976.499.999.930;colour2;0.4828703703703704;0.30416666666666664;1;0;0;6.473.565.600.000.250;number1;TRUE;TRUE;TRUE;1;1;2019_Nov_07_1551;MA_Theta_Exp;3.0.7;60.171.331.850.314.400
video/Experiment/zh_sp07_Dr_We_1_NoThetaInAudio_GlobalThetaInVideo.avi;noTheta;plusVideo;sp07;Dr;We;1;1;3;flow/blocks/NoThetaInAudio_GlobalThetaInVideo_A.csv;;;;;;;;;0;1;1;1;0;16;16;28;;;;;;;;;-0.41574074074074074;0.30277777777777776;1;0;0;4.427.109.799.999.920;call1;-0.03518518518518519;-0.36666666666666664;1;0;0;5.126.931.599.999.800;colour4;0.42453703703703705;0.27361111111111114;1;0;0;5.844.095.599.999.940;number1;FALSE;TRUE;TRUE;1;1;2019_Nov_07_1551;MA_Theta_Exp;3.0.7;60.171.331.850.314.400
video/Experiment/zh_sp01_Dr_Ro_2_NoThetaInAudio_GlobalThetaInVideo.avi;noTheta;plusVideo;sp01;Dr;Ro;2;1;3;flow/blocks/NoThetaInAudio_GlobalThetaInVideo_A.csv;;;;;;;;;0;1;1;1;0;17;17;25;;;;;;;;;-0.38657407407407407;0.10277777777777777;1;0;0;5.458.097.900.000.210;call2;-0.0837962962962963;0.06666666666666667;1;0;0;5.891.778.700.000.030;colour2;0.39537037037037037;0.09305555555555556;1;0;0;649.210.549.999.998;number2;TRUE;FALSE;TRUE;1;1;2019_Nov_07_1551;MA_Theta_Exp;3.0.7;60.171.331.850.314.400
video/Experiment/zh_sp07_Ad_Ge_2_NoThetaInAudio_GlobalThetaInVideo.avi;noTheta;plusVideo;sp07;Ad;Ge;2;1;3;flow/blocks/NoThetaInAudio_GlobalThetaInVideo_A.csv;;;;;;;;;0;1;1;1;0;18;18;1;;;;;;;;;-0.3699074074074074;0.30416666666666664;1;0;0;4.356.535.599.999.910;call1;0.010648148148148148;0.30694444444444446;1;0;0;47.703.999.000.000.200;colour1;0.4064814814814815;0.07777777777777778;1;0;0;5.204.135.899.999.980;number2;TRUE;TRUE;TRUE;1;1;2019_Nov_07_1551;MA_Theta_Exp;3.0.7;60.171.331.850.314.400
video/Experiment/zh_sp01_Dr_Ge_3_NoThetaInAudio_GlobalThetaInVideo.avi;noTheta;plusVideo;sp01;Dr;Ge;3;1;3;flow/blocks/NoThetaInAudio_GlobalThetaInVideo_A.csv;;;;;;;;;0;1;1;1;0;19;19;18;;;;;;;;;-0.4615740740740741;0.10416666666666667;1;0;0;5.017.266.899.999.860;call2;0.023148148148148147;0.32222222222222224;1;0;0;5.489.045.900.000.290;colour1;0.3662037037037037;-0.1111111111111111;1;0;0;606.593.329.999.987;number3;TRUE;TRUE;TRUE;1;1;2019_Nov_07_1551;MA_Theta_Exp;3.0.7;60.171.331.850.314.400
video/Experiment/zh_sp07_Dr_Ro_4_NoThetaInAudio_GlobalThetaInVideo.avi;noTheta;plusVideo;sp07;Dr;Ro;4;1;3;flow/blocks/NoThetaInAudio_GlobalThetaInVideo_A.csv;;;;;;;;;0;1;1;1;0;20;20;27;;;;;;;;;-0.38935185185185184;0.31527777777777777;1;0;0;4.664.166.699.999.890;call1;-0.018518518518518517;-0.09722222222222222;1;0;0;5.398.593.599.999.910;colour3;0.3592592592592593;-0.33194444444444443;1;0;0;59.349.019.999.999.600;number4;FALSE;TRUE;TRUE;1;1;2019_Nov_07_1551;MA_Theta_Exp;3.0.7;60.171.331.850.314.400
video/Experiment/zh_sp01_Ad_Ro_2_NoThetaInAudio_GlobalThetaInVideo.avi;noTheta;plusVideo;sp01;Ad;Ro;2;1;3;flow/blocks/NoThetaInAudio_GlobalThetaInVideo_A.csv;;;;;;;;;0;1;1;1;0;21;21;9;;;;;;;;;-0.41574074074074074;0.3055555555555556;1;0;0;4.919.018.900.000.080;call1;0.05648148148148148;-0.12083333333333333;1;0;0;5.484.920.800.000.050;colour3;0.3925925925925926;0.09444444444444444;1;0;0;60.684.017.999.997.100;number2;TRUE;TRUE;TRUE;1;1;2019_Nov_07_1551;MA_Theta_Exp;3.0.7;60.171.331.850.314.400
video/Experiment/zh_sp07_Ad_Gr_4_NoThetaInAudio_GlobalThetaInVideo.avi;noTheta;plusVideo;sp07;Ad;Gr;4;1;3;flow/blocks/NoThetaInAudio_GlobalThetaInVideo_A.csv;;;;;;;;;0;1;1;1;0;22;22;7;;;;;;;;;-0.43796296296296294;0.3125;1;0;0;421.527.690.000.039;call1;0.05092592592592592;0.03611111111111111;1;0;0;4.755.168.499.999.850;colour2;0.4009259259259259;-0.29444444444444445;1;0;0;5.296.276.999.999.910;number4;TRUE;TRUE;TRUE;1;1;2019_Nov_07_1551;MA_Theta_Exp;3.0.7;60.171.331.850.314.400
video/Experiment/zh_sp07_Dr_We_2_NoThetaInAudio_GlobalThetaInVideo.avi;noTheta;plusVideo;sp07;Dr;We;2;1;3;flow/blocks/NoThetaInAudio_GlobalThetaInVideo_A.csv;;;;;;;;;0;1;1;1;0;23;23;29;;;;;;;;;-0.35462962962962963;0.2652777777777778;1;0;0;4.629.461.799.999.710;call1;-0.02824074074074074;-0.38333333333333336;1;0;0;5.271.749.099.999.850;colour4;0.4064814814814815;-0.12361111111111112;1;0;0;57.410.940.999.998.200;number3;FALSE;TRUE;FALSE;1;1;2019_Nov_07_1551;MA_Theta_Exp;3.0.7;60.171.331.850.314.400
video/Experiment/zh_sp01_Dr_Gr_3_NoThetaInAudio_GlobalThetaInVideo.avi;noTheta;plusVideo;sp01;Dr;Gr;3;1;3;flow/blocks/NoThetaInAudio_GlobalThetaInVideo_A.csv;;;;;;;;;0;1;1;1;0;24;24;22;;;;;;;;;-0.36574074074074076;0.1125;1;0;0;51.405.071.999.997.700;call2;-0.4074074074074074;0.2625;1;0;0;6.540.479.199.999.930;colour2;0.337037037037037;-0.08888888888888889;1;0;0;922.333.209.999.988;number3;TRUE;TRUE;TRUE;1;1;2019_Nov_07_1551;MA_Theta_Exp;3.0.7;60.171.331.850.314.400
video/Experiment/zh_sp01_Ad_Ro_3_NoThetaInAudio_GlobalThetaInVideo.avi;noTheta;plusVideo;sp01;Ad;Ro;3;1;3;flow/blocks/NoThetaInAudio_GlobalThetaInVideo_A.csv;;;;;;;;;0;1;1;1;0;25;25;10;;;;;;;;;-0.3712962962962963;0.3625;1;0;0;491.909.829.999.986;call1;-0.03796296296296296;-0.075;1;0;0;5.502.334.400.000.100;colour3;0.43425925925925923;-0.09027777777777778;1;0;0;6.035.828.100.000.340;number3;TRUE;TRUE;TRUE;1;1;2019_Nov_07_1551;MA_Theta_Exp;3.0.7;60.171.331.850.314.400
video/Experiment/zh_sp07_Dr_Ge_1_NoThetaInAudio_GlobalThetaInVideo.avi;noTheta;plusVideo;sp07;Dr;Ge;1;1;3;flow/blocks/NoThetaInAudio_GlobalThetaInVideo_A.csv;;;;;;;;;0;1;1;1;0;26;26;16;;;;;;;;;-0.35462962962962963;0.25833333333333336;1;0;0;46.059.166.000.000.000;call1;0.08703703703703704;0.28194444444444444;1;0;0;50.250.774.000.001;colour1;0.038425925925925926;0.30972222222222223;1;0;0;5.539.394.999.999.780;number1;FALSE;TRUE;TRUE;1;1;2019_Nov_07_1551;MA_Theta_Exp;3.0.7;60.171.331.850.314.400
video/Experiment/zh_sp07_Ad_We_4_NoThetaInAudio_GlobalThetaInVideo.avi;noTheta;plusVideo;sp07;Ad;We;4;1;3;flow/blocks/NoThetaInAudio_GlobalThetaInVideo_A.csv;;;;;;;;;0;1;1;1;0;27;27;15;;;;;;;;;-0.4615740740740741;0.30277777777777776;1;0;0;43.171.158.999.998.600;call1;-0.06018518518518518;-0.3458333333333333;1;0;0;5.062.166.499.999.870;colour4;0.45231481481481484;-0.34444444444444444;1;0;0;556.170.259.999.999;number4;TRUE;TRUE;TRUE;1;1;2019_Nov_07_1551;MA_Theta_Exp;3.0.7;60.171.331.850.314.400
video/Experiment/zh_sp01_Ad_Ge_4_NoThetaInAudio_GlobalThetaInVideo.avi;noTheta;plusVideo;sp01;Ad;Ge;4;1;3;flow/blocks/NoThetaInAudio_GlobalThetaInVideo_A.csv;;;;;;;;;0;1;1;1;0;28;28;3;;;;;;;;;-0.42407407407407405;0.30694444444444446;1;0;0;5.454.725.900.000.080;call1;-0.018518518518518517;0.30833333333333335;1;0;0;589.395.710.000.008;colour1;0.35648148148148145;-0.30833333333333335;1;0;0;6.572.068.800.000.120;number4;TRUE;TRUE;TRUE;1;1;2019_Nov_07_1551;MA_Theta_Exp;3.0.7;60.171.331.850.314.400
video/Experiment/zh_sp07_Dr_Gr_1_NoThetaInAudio_GlobalThetaInVideo.avi;noTheta;plusVideo;sp07;Dr;Gr;1;1;3;flow/blocks/NoThetaInAudio_GlobalThetaInVideo_A.csv;;;;;;;;;0;1;1;1;0;29;29;20;;;;;;;;;-0.44074074074074077;0.044444444444444446;1;0;0;4.564.865.800.000.000;call2;-0.047685185185185185;0.1;1;0;0;52.960.189.999.998.800;colour2;0.36203703703703705;0.30277777777777776;1;0;0;5.909.100.300.000.310;number1;TRUE;TRUE;TRUE;1;1;2019_Nov_07_1551;MA_Theta_Exp;3.0.7;60.171.331.850.314.400
video/Experiment/zh_sp01_Dr_We_3_NoThetaInAudio_GlobalThetaInVideo.avi;noTheta;plusVideo;sp01;Dr;We;3;1;3;flow/blocks/NoThetaInAudio_GlobalThetaInVideo_A.csv;;;;;;;;;0;1;1;1;0;30;30;30;;;;;;;;;-0.32685185185185184;0.13194444444444445;1;0;0;4.981.116.699.999.800;call2;-0.06296296296296296;-0.3597222222222222;1;0;0;5.680.636.399.999.910;colour4;0.4162037037037037;-0.11805555555555555;1;0;0;6.198.379.299.999.940;number3;TRUE;TRUE;TRUE;1;1;2019_Nov_07_1551;MA_Theta_Exp;3.0.7;60.171.331.850.314.400
video/Experiment/zh_sp07_Ad_Ge_1_NoThetaInAudio_GlobalThetaInVideo.avi;noTheta;plusVideo;sp07;Ad;Ge;1;1;3;flow/blocks/NoThetaInAudio_GlobalThetaInVideo_A.csv;;;;;;;;;0;1;1;1;0;31;31;0;;;;;;;;;-0.38101851851851853;0.2972222222222222;1;0;0;4.345.209.300.000.070;call1;-0.032407407407407406;0.3236111111111111;1;0;0;5.144.572.199.999.850;colour1;0.3398148148148148;0.33194444444444443;1;0;0;5.777.587.200.000.190;number1;TRUE;TRUE;TRUE;1;1;2019_Nov_07_1551;MA_Theta_Exp;3.0.7;60.171.331.850.314.400
video/Experiment/zh_sp01_Dr_Gr_3_GlobalTheta_NoVideo.avi;globalTheta;noVideo;sp01;Dr;Gr;3;2;5;flow/blocks/GlobalTheta_NoVideo_A.csv;;;;;;;;;0;2;2;2;0;0;0;22;;;;;;;;;-0.3699074074074074;0.125;1;0;0;5.192.771.700.000.320;call2;-0.021296296296296296;0.11805555555555555;1;0;0;5.774.897.000.000.230;colour2;0.43287037037037035;-0.07777777777777778;1;0;0;63.262.431.000.002.800;number3;TRUE;TRUE;TRUE;1;1;2019_Nov_07_1551;MA_Theta_Exp;3.0.7;60.171.331.850.314.400
video/Experiment/zh_sp07_Ad_Gr_2_GlobalTheta_NoVideo.avi;globalTheta;noVideo;sp07;Ad;Gr;2;2;5;flow/blocks/GlobalTheta_NoVideo_A.csv;;;;;;;;;0;2;2;2;0;1;1;5;;;;;;;;;-0.4212962962962963;0.2902777777777778;1;0;0;439.213.460.000.019;call1;-0.0060185185185185185;0.005555555555555556;1;0;0;4.857.681.999.999.840;colour2;0.37175925925925923;0.31666666666666665;1;0;0;6.406.217.000.000.190;number1;TRUE;TRUE;FALSE;1;1;2019_Nov_07_1551;MA_Theta_Exp;3.0.7;60.171.331.850.314.400
video/Experiment/zh_sp01_Ad_Ge_1_GlobalTheta_NoVideo.avi;globalTheta;noVideo;sp01;Ad;Ge;1;2;5;flow/blocks/GlobalTheta_NoVideo_A.csv;;;;;;;;;0;2;2;2;0;2;2;0;;;;;;;;;-0.3851851851851852;0.33194444444444443;1;0;0;5.984.444.899.999.740;call1;0.03425925925925926;0.09444444444444444;1;0;0;7.186.683.900.000.380;colour2;0.38842592592592595;0.2763888888888889;1;0;0;7.690.071.800.000.160;number1;TRUE;FALSE;TRUE;1;1;2019_Nov_07_1551;MA_Theta_Exp;3.0.7;60.171.331.850.314.400
video/Experiment/zh_sp07_Ad_Gr_3_GlobalTheta_NoVideo.avi;globalTheta;noVideo;sp07;Ad;Gr;3;2;5;flow/blocks/GlobalTheta_NoVideo_A.csv;;;;;;;;;0;2;2;2;0;3;3;6;;;;;;;;;-0.43657407407407406;0.3388888888888889;1;0;0;4.482.208.299.999.910;call1;-0.01712962962962963;0.10138888888888889;1;0;0;4.955.105.999.999.880;colour2;0.3578703703703704;-0.0875;1;0;0;5.499.977.899.999.970;number3;TRUE;TRUE;TRUE;1;1;2019_Nov_07_1551;MA_Theta_Exp;3.0.7;60.171.331.850.314.400
video/Experiment/zh_sp07_Dr_Ge_4_GlobalTheta_NoVideo.avi;globalTheta;noVideo;sp07;Dr;Ge;4;2;5;flow/blocks/GlobalTheta_NoVideo_A.csv;;;;;;;;;0;2;2;2;0;4;4;19;;;;;;;;;-0.42268518518518516;0.12916666666666668;1;0;0;595.570.379.999.981;call2;0.038425925925925926;-0.09861111111111111;1;0;0;8.238.049.399.999.900;colour3;0.3537037037037037;-0.3;1;0;0;890.908.249.999.984;number4;TRUE;FALSE;TRUE;1;1;2019_Nov_07_1551;MA_Theta_Exp;3.0.7;60.171.331.850.314.400
video/Experiment/zh_sp07_Ad_Ro_2_GlobalTheta_NoVideo.avi;globalTheta;noVideo;sp07;Ad;Ro;2;2;5;flow/blocks/GlobalTheta_NoVideo_A.csv;;;;;;;;;0;2;2;2;0;5;5;9;;;;;;;;;-0.37962962962962965;0.2972222222222222;1;0;0;4.492.223.000.000.190;call1;-0.014351851851851852;-0.12638888888888888;1;0;0;511.038.120.000.012;colour3;0.43425925925925923;0.30277777777777776;1;0;0;5.712.796.600.000.270;number1;TRUE;TRUE;FALSE;1;1;2019_Nov_07_1551;MA_Theta_Exp;3.0.7;60.171.331.850.314.400
video/Experiment/zh_sp07_Dr_We_3_GlobalTheta_NoVideo.avi;globalTheta;noVideo;sp07;Dr;We;3;2;5;flow/blocks/GlobalTheta_NoVideo_A.csv;;;;;;;;;0;2;2;2;0;6;6;30;;;;;;;;;-0.3976851851851852;0.3013888888888889;1;0;0;4.119.664.300.000.290;call1;0.009259259259259259;-0.3541666666666667;1;0;0;47.987.889.999.999.400;colour4;0.3773148148148148;-0.1388888888888889;1;0;0;526.561.700.000.002;number3;FALSE;TRUE;TRUE;1;1;2019_Nov_07_1551;MA_Theta_Exp;3.0.7;60.171.331.850.314.400
video/Experiment/zh_sp07_Dr_Ge_1_GlobalTheta_NoVideo.avi;globalTheta;noVideo;sp07;Dr;Ge;1;2;5;flow/blocks/GlobalTheta_NoVideo_A.csv;;;;;;;;;0;2;2;2;0;7;7;16;;;;;;;;;-0.3560185185185185;0.2263888888888889;1;0;0;4.344.150.399.999.760;call1;0.11898148148148148;0.2611111111111111;1;0;0;4.938.125.900.000.150;colour1;0.3912037037037037;0.32916666666666666;1;0;0;5.826.594.399.999.970;number1;FALSE;TRUE;TRUE;1;1;2019_Nov_07_1551;MA_Theta_Exp;3.0.7;60.171.331.850.314.400
video/Experiment/zh_sp01_Ad_Gr_1_GlobalTheta_NoVideo.avi;globalTheta;noVideo;sp01;Ad;Gr;1;2;5;flow/blocks/GlobalTheta_NoVideo_A.csv;;;;;;;;;0;2;2;2;0;8;8;4;;;;;;;;;-0.39351851851851855;0.2625;1;0;0;5.131.612.300.000.140;call1;0.04537037037037037;0.1375;1;0;0;5.710.937.100.000.130;colour2;0.399537037037037;0.31527777777777777;1;0;0;6.199.803.299.999.980;number1;TRUE;TRUE;TRUE;1;1;2019_Nov_07_1551;MA_Theta_Exp;3.0.7;60.171.331.850.314.400
video/Experiment/zh_sp01_Dr_We_1_GlobalTheta_NoVideo.avi;globalTheta;noVideo;sp01;Dr;We;1;2;5;flow/blocks/GlobalTheta_NoVideo_A.csv;;;;;;;;;0;2;2;2;0;9;9;28;;;;;;;;;-0.44907407407407407;0.10138888888888889;1;0;0;4.977.575.599.999.900;call2;0.037037037037037035;-0.3;1;0;0;5.678.071.499.999.980;colour4;0.44814814814814813;0.2986111111111111;1;0;0;6.379.195.199.999.680;number1;TRUE;TRUE;TRUE;1;1;2019_Nov_07_1551;MA_Theta_Exp;3.0.7;60.171.331.850.314.400
video/Experiment/zh_sp01_Ad_We_2_GlobalTheta_NoVideo.avi;globalTheta;noVideo;sp01;Ad;We;2;2;5;flow/blocks/GlobalTheta_NoVideo_A.csv;;;;;;;;;0;2;2;2;0;10;10;13;;;;;;;;;-0.40046296296296297;0.3375;1;0;0;5.124.100.100.000.300;call1;0.009259259259259259;-0.31527777777777777;1;0;0;595.369.189.999.974;colour4;0.3925925925925926;0.28888888888888886;1;0;0;655.372.559.999.978;number1;TRUE;TRUE;FALSE;1;1;2019_Nov_07_1551;MA_Theta_Exp;3.0.7;60.171.331.850.314.400
video/Experiment/zh_sp01_Dr_Ro_2_GlobalTheta_NoVideo.avi;globalTheta;noVideo;sp01;Dr;Ro;2;2;5;flow/blocks/GlobalTheta_NoVideo_A.csv;;;;;;;;;0;2;2;2;0;11;11;25;;;;;;;;;-0.4046296296296296;0.13194444444444445;1;0;0;5.719.296.300.000.220;call2;0.0412037037037037;-0.09166666666666666;1;0;0;7.151.034.400.000.290;colour3;0.3939814814814815;0.08194444444444444;1;0;0;7.649.054.100.000.280;number2;TRUE;TRUE;TRUE;1;1;2019_Nov_07_1551;MA_Theta_Exp;3.0.7;60.171.331.850.314.400
video/Experiment/zh_sp01_Dr_Gr_2_GlobalTheta_NoVideo.avi;globalTheta;noVideo;sp01;Dr;Gr;2;2;5;flow/blocks/GlobalTheta_NoVideo_A.csv;;;;;;;;;0;2;2;2;0;12;12;21;;;;;;;;;-0.37962962962962965;0.1111111111111111;1;0;0;5.027.609.100.000.060;call2;-0.06851851851851852;0.1;1;0;0;539.429.599.999.994;colour2;0.31342592592592594;0.10555555555555556;1;0;0;579.405.399.999.996;number2;TRUE;TRUE;TRUE;1;1;2019_Nov_07_1551;MA_Theta_Exp;3.0.7;60.171.331.850.314.400
video/Experiment/zh_sp01_Dr_We_2_GlobalTheta_NoVideo.avi;globalTheta;noVideo;sp01;Dr;We;2;2;5;flow/blocks/GlobalTheta_NoVideo_A.csv;;;;;;;;;0;2;2;2;0;13;13;29;;;;;;;;;-0.3712962962962963;0.11666666666666667;1;0;0;5.100.115.499.999.900;call2;0.05092592592592592;-0.2861111111111111;1;0;0;5.630.298.999.999.920;colour4;0.4023148148148148;0.12361111111111112;1;0;0;7.229.362.600.000.050;number2;TRUE;TRUE;TRUE;1;1;2019_Nov_07_1551;MA_Theta_Exp;3.0.7;60.171.331.850.314.400
video/Experiment/zh_sp07_Dr_Ro_4_GlobalTheta_NoVideo.avi;globalTheta;noVideo;sp07;Dr;Ro;4;2;5;flow/blocks/GlobalTheta_NoVideo_A.csv;;;;;;;;;0;2;2;2;0;14;14;27;;;;;;;;;-0.38657407407407407;0.3375;1;0;0;4.605.447.699.999.780;call1;-0.014351851851851852;-0.10694444444444444;1;0;0;51.856.769.000.000.800;colour3;0.3648148148148148;-0.3277777777777778;1;0;0;5.660.414.700.000.270;number4;FALSE;TRUE;TRUE;1;1;2019_Nov_07_1551;MA_Theta_Exp;3.0.7;60.171.331.850.314.400
video/Experiment/zh_sp01_Dr_Ge_3_GlobalTheta_NoVideo.avi;globalTheta;noVideo;sp01;Dr;Ge;3;2;5;flow/blocks/GlobalTheta_NoVideo_A.csv;;;;;;;;;0;2;2;2;0;15;15;18;;;;;;;;;-0.3976851851851852;0.0763888888888889;1;0;0;5.158.414.600.000.010;call2;-0.0032407407407407406;0.3277777777777778;1;0;0;6.522.569.799.999.920;colour1;0.3925925925925926;-0.0375;1;0;0;727.307.860.000.019;number3;TRUE;TRUE;TRUE;1;1;2019_Nov_07_1551;MA_Theta_Exp;3.0.7;60.171.331.850.314.400
video/Experiment/zh_sp07_Dr_Ge_2_GlobalTheta_NoVideo.avi;globalTheta;noVideo;sp07;Dr;Ge;2;2;5;flow/blocks/GlobalTheta_NoVideo_A.csv;;;;;;;;;0;2;2;2;0;16;16;17;;;;;;;;;-0.3962962962962963;0.30972222222222223;1;0;0;46.001.704.000.000.200;call1;0.006481481481481481;0.275;1;0;0;4.983.478.300.000.110;colour1;0.48148148148148145;0.30416666666666664;1;0;0;5.433.370.100.000.040;number1;FALSE;TRUE;FALSE;1;1;2019_Nov_07_1551;MA_Theta_Exp;3.0.7;60.171.331.850.314.400
video/Experiment/zh_sp01_Dr_Gr_1_GlobalTheta_NoVideo.avi;globalTheta;noVideo;sp01;Dr;Gr;1;2;5;flow/blocks/GlobalTheta_NoVideo_A.csv;;;;;;;;;0;2;2;2;0;17;17;20;;;;;;;;;-0.3685185185185185;0.2791666666666667;1;0;0;57.234.793.000.002.300;call1;0.01898148148148148;0.06527777777777778;1;0;0;61.599.756.999.999.000;colour2;0.3773148148148148;0.2569444444444444;1;0;0;6.568.777.500.000.120;number1;FALSE;TRUE;TRUE;1;1;2019_Nov_07_1551;MA_Theta_Exp;3.0.7;60.171.331.850.314.400
video/Experiment/zh_sp07_Dr_Gr_4_GlobalTheta_NoVideo.avi;globalTheta;noVideo;sp07;Dr;Gr;4;2;5;flow/blocks/GlobalTheta_NoVideo_A.csv;;;;;;;;;0;2;2;2;0;18;18;23;;;;;;;;;-0.4101851851851852;0.06666666666666667;1;0;0;4.523.889.500.000.220;call2;0.023148148148148147;0.07777777777777778;1;0;0;4.992.090.800.000.360;colour2;0.4148148148148148;-0.10138888888888889;1;0;0;5.563.546.899.999.890;number3;TRUE;TRUE;FALSE;1;1;2019_Nov_07_1551;MA_Theta_Exp;3.0.7;60.171.331.850.314.400
video/Experiment/zh_sp01_Ad_Ge_3_GlobalTheta_NoVideo.avi;globalTheta;noVideo;sp01;Ad;Ge;3;2;5;flow/blocks/GlobalTheta_NoVideo_A.csv;;;;;;;;;0;2;2;2;0;19;19;2;;;;;;;;;-0.4393518518518518;0.28888888888888886;1;0;0;4.827.998.399.999.610;call1;0.052314814814814814;0.2875;1;0;0;581.088.150.000.005;colour1;0.3925925925925926;-0.12916666666666668;1;0;0;652.724.709.999.984;number3;TRUE;TRUE;TRUE;1;1;2019_Nov_07_1551;MA_Theta_Exp;3.0.7;60.171.331.850.314.400
video/Experiment/zh_sp01_Ad_Ge_2_GlobalTheta_NoVideo.avi;globalTheta;noVideo;sp01;Ad;Ge;2;2;5;flow/blocks/GlobalTheta_NoVideo_A.csv;;;;;;;;;0;2;2;2;0;20;20;1;;;;;;;;;-0.4074074074074074;0.3138888888888889;1;0;0;4.923.955.699.999.620;call1;0.027314814814814816;0.2638888888888889;1;0;0;5.441.835.799.999.800;colour1;0.36203703703703705;0.10277777777777777;1;0;0;5.923.891.100.000.210;number2;TRUE;TRUE;TRUE;1;1;2019_Nov_07_1551;MA_Theta_Exp;3.0.7;60.171.331.850.314.400
video/Experiment/zh_sp07_Ad_Ge_4_GlobalTheta_NoVideo.avi;globalTheta;noVideo;sp07;Ad;Ge;4;2;5;flow/blocks/GlobalTheta_NoVideo_A.csv;;;;;;;;;0;2;2;2;0;21;21;3;;;;;;;;;-0.4101851851851852;0.26666666666666666;1;0;0;4.830.300.799.999.800;call1;0.014814814814814815;0.26666666666666666;1;0;0;5.612.887.799.999.950;colour1;0.4134259259259259;-0.3013888888888889;1;0;0;6.198.148.299.999.950;number4;TRUE;TRUE;TRUE;1;1;2019_Nov_07_1551;MA_Theta_Exp;3.0.7;60.171.331.850.314.400
video/Experiment/zh_sp07_Dr_We_4_GlobalTheta_NoVideo.avi;globalTheta;noVideo;sp07;Dr;We;4;2;5;flow/blocks/GlobalTheta_NoVideo_A.csv;;;;;;;;;0;2;2;2;0;22;22;31;;;;;;;;;-0.4532407407407407;0.30277777777777776;1;0;0;52.489.292.000.000.200;call1;-0.05462962962962963;-0.34305555555555556;1;0;0;5.869.811.100.000.330;colour4;0.3314814814814815;-0.3277777777777778;1;0;0;62.831.411.000.001.900;number4;FALSE;TRUE;TRUE;1;1;2019_Nov_07_1551;MA_Theta_Exp;3.0.7;60.171.331.850.314.400
video/Experiment/zh_sp01_Dr_Ro_1_GlobalTheta_NoVideo.avi;globalTheta;noVideo;sp01;Dr;Ro;1;2;5;flow/blocks/GlobalTheta_NoVideo_A.csv;;;;;;;;;0;2;2;2;0;23;23;24;;;;;;;;;-0.39490740740740743;0.2986111111111111;1;0;0;53.709.883.999.999.800;call1;-0.03657407407407407;-0.075;1;0;0;5.965.042.599.999.830;colour3;0.4009259259259259;0.2972222222222222;1;0;0;6.765.841.900.000.390;number1;FALSE;TRUE;TRUE;1;1;2019_Nov_07_1551;MA_Theta_Exp;3.0.7;60.171.331.850.314.400
video/Experiment/zh_sp07_Ad_Ro_3_GlobalTheta_NoVideo.avi;globalTheta;noVideo;sp07;Ad;Ro;3;2;5;flow/blocks/GlobalTheta_NoVideo_A.csv;;;;;;;;;0;2;2;2;0;24;24;10;;;;;;;;;-0.362962962962963;0.3625;1;0;0;4.296.161.199.999.910;call1;-0.03657407407407407;0.12083333333333333;1;0;0;4.747.347.200.000.140;colour2;0.4162037037037037;-0.125;1;0;0;5.412.289.800.000.050;number3;TRUE;FALSE;TRUE;1;1;2019_Nov_07_1551;MA_Theta_Exp;3.0.7;60.171.331.850.314.400
video/Experiment/zh_sp07_Ad_We_4_GlobalTheta_NoVideo.avi;globalTheta;noVideo;sp07;Ad;We;4;2;5;flow/blocks/GlobalTheta_NoVideo_A.csv;;;;;;;;;0;2;2;2;0;25;25;15;;;;;;;;;-0.39351851851851855;0.30277777777777776;1;0;0;4.499.393.699.999.920;call1;-0.06712962962962964;-0.37916666666666665;1;0;0;521.605.610.000.006;colour4;0.3425925925925926;-0.12916666666666668;1;0;0;57.389.533.999.999;number3;TRUE;TRUE;FALSE;1;1;2019_Nov_07_1551;MA_Theta_Exp;3.0.7;60.171.331.850.314.400
video/Experiment/zh_sp07_Ad_Gr_4_GlobalTheta_NoVideo.avi;globalTheta;noVideo;sp07;Ad;Gr;4;2;5;flow/blocks/GlobalTheta_NoVideo_A.csv;;;;;;;;;0;2;2;2;0;26;26;7;;;;;;;;;-0.41712962962962963;0.3138888888888889;1;0;0;41.099.254.999.999.100;call1;-0.06296296296296296;0.06666666666666667;1;0;0;4.572.779.500.000.250;colour2;0.38287037037037036;-0.27361111111111114;1;0;0;5.106.812.199.999.690;number4;TRUE;TRUE;TRUE;1;1;2019_Nov_07_1551;MA_Theta_Exp;3.0.7;60.171.331.850.314.400
video/Experiment/zh_sp07_Ad_Ro_1_GlobalTheta_NoVideo.avi;globalTheta;noVideo;sp07;Ad;Ro;1;2;5;flow/blocks/GlobalTheta_NoVideo_A.csv;;;;;;;;;0;2;2;2;0;27;27;8;;;;;;;;;-0.4310185185185185;0.3277777777777778;1;0;0;43.738.406.000.002.200;call1;-0.07962962962962963;0.3236111111111111;1;0;0;4.774.430.800.000.110;colour1;0.4217592592592593;0.2722222222222222;1;0;0;5.209.643.600.000.160;number1;TRUE;FALSE;TRUE;1;1;2019_Nov_07_1551;MA_Theta_Exp;3.0.7;60.171.331.850.314.400
video/Experiment/zh_sp01_Ad_Ro_4_GlobalTheta_NoVideo.avi;globalTheta;noVideo;sp01;Ad;Ro;4;2;5;flow/blocks/GlobalTheta_NoVideo_A.csv;;;;;;;;;0;2;2;2;0;28;28;11;;;;;;;;;-0.40185185185185185;0.32222222222222224;1;0;0;5.073.725.700.000.060;call1;-0.021296296296296296;-0.10138888888888889;1;0;0;5.557.116.899.999.980;colour3;0.3773148148148148;-0.3138888888888889;1;0;0;6.027.970.200.000.250;number4;TRUE;TRUE;TRUE;1;1;2019_Nov_07_1551;MA_Theta_Exp;3.0.7;60.171.331.850.314.400
video/Experiment/zh_sp07_Ad_We_1_GlobalTheta_NoVideo.avi;globalTheta;noVideo;sp07;Ad;We;1;2;5;flow/blocks/GlobalTheta_NoVideo_A.csv;;;;;;;;;0;2;2;2;0;29;29;12;;;;;;;;;-0.350462962962963;0.32916666666666666;1;0;0;4.512.281.499.999.970;call1;-0.02546296296296296;-0.3111111111111111;1;0;0;5.217.867.099.999.690;colour4;0.3800925925925926;0.31805555555555554;1;0;0;5.843.556.400.000.120;number1;TRUE;TRUE;TRUE;1;1;2019_Nov_07_1551;MA_Theta_Exp;3.0.7;60.171.331.850.314.400
video/Experiment/zh_sp01_Dr_Ro_3_GlobalTheta_NoVideo.avi;globalTheta;noVideo;sp01;Dr;Ro;3;2;5;flow/blocks/GlobalTheta_NoVideo_A.csv;;;;;;;;;0;2;2;2;0;30;30;26;;;;;;;;;-0.42962962962962964;0.11388888888888889;1;0;0;4.777.529.300.000.420;call2;0.003703703703703704;-0.06388888888888888;1;0;0;5.526.621.400.000.290;colour3;0.4009259259259259;-0.0875;1;0;0;7.048.847.900.000.050;number3;TRUE;TRUE;TRUE;1;1;2019_Nov_07_1551;MA_Theta_Exp;3.0.7;60.171.331.850.314.400
video/Experiment/zh_sp01_Ad_We_3_GlobalTheta_NoVideo.avi;globalTheta;noVideo;sp01;Ad;We;3;2;5;flow/blocks/GlobalTheta_NoVideo_A.csv;;;;;;;;;0;2;2;2;0;31;31;14;;;;;;;;;-0.3907407407407407;0.3055555555555556;1;0;0;4.939.996.000.000.060;call1;0.0412037037037037;-0.3375;1;0;0;6.040.046.600.000.090;colour4;0.4023148148148148;-0.13472222222222222;1;0;0;6.589.339.599.999.670;number3;TRUE;TRUE;TRUE;1;1;2019_Nov_07_1551;MA_Theta_Exp;3.0.7;60.171.331.850.314.400
video/Experiment/zh_sp07_Dr_We_3_NVocInAudio_GlobalThetaInVideo.avi;vocoded;plusVideo;sp07;Dr;We;3;3;1;flow/blocks/NVocInAudio_GlobalThetaInVideo_A.csv;;;;;;;;;0;3;3;3;0;0;0;30;;;;;;;;;-0.4212962962962963;0.15;1;0;0;4.279.129.099.999.860;call2;-0.010185185185185186;-0.37916666666666665;1;0;0;5.017.322.400.000.010;colour4;0.36064814814814816;-0.08194444444444444;1;0;0;5.596.171.099.999.990;number3;TRUE;TRUE;TRUE;1;1;2019_Nov_07_1551;MA_Theta_Exp;3.0.7;60.171.331.850.314.400
video/Experiment/zh_sp07_Ad_Ge_3_NVocInAudio_GlobalThetaInVideo.avi;vocoded;plusVideo;sp07;Ad;Ge;3;3;1;flow/blocks/NVocInAudio_GlobalThetaInVideo_A.csv;;;;;;;;;0;3;3;3;0;1;1;2;;;;;;;;;-0.45046296296296295;0.32083333333333336;1;0;0;5.427.031.200.000.320;call1;0.003703703703703704;0.3527777777777778;1;0;0;6.093.760.400.000.060;colour1;0.39537037037037037;-0.10138888888888889;1;0;0;6.659.737.600.000.420;number3;TRUE;TRUE;TRUE;1;1;2019_Nov_07_1551;MA_Theta_Exp;3.0.7;60.171.331.850.314.400
video/Experiment/zh_sp01_Ad_Gr_2_NVocInAudio_GlobalThetaInVideo.avi;vocoded;plusVideo;sp01;Ad;Gr;2;3;1;flow/blocks/NVocInAudio_GlobalThetaInVideo_A.csv;;;;;;;;;0;3;3;3;0;2;2;5;;;;;;;;;-0.4462962962962963;0.3263888888888889;1;0;0;504.067.299.999.997;call1;0.005092592592592593;0.12083333333333333;1;0;0;5.542.268.400.000.010;colour2;0.4134259259259259;0.09583333333333334;1;0;0;5.939.970.699.999.770;number2;TRUE;TRUE;TRUE;1;1;2019_Nov_07_1551;MA_Theta_Exp;3.0.7;60.171.331.850.314.400
video/Experiment/zh_sp07_Ad_Ro_4_NVocInAudio_GlobalThetaInVideo.avi;vocoded;plusVideo;sp07;Ad;Ro;4;3;1;flow/blocks/NVocInAudio_GlobalThetaInVideo_A.csv;;;;;;;;;0;3;3;3;0;3;3;11;;;;;;;;;-0.42407407407407405;0.3013888888888889;1;0;0;4.752.960.599.999.820;call1;0.006481481481481481;-0.10555555555555556;1;0;0;5.286.365.899.999.960;colour3;0.36064814814814816;-0.33055555555555555;1;0;0;5.846.524.600.000.060;number4;TRUE;TRUE;TRUE;1;1;2019_Nov_07_1551;MA_Theta_Exp;3.0.7;60.171.331.850.314.400
video/Experiment/zh_sp01_Ad_We_3_NVocInAudio_GlobalThetaInVideo.avi;vocoded;plusVideo;sp01;Ad;We;3;3;1;flow/blocks/NVocInAudio_GlobalThetaInVideo_A.csv;;;;;;;;;0;3;3;3;0;4;4;14;;;;;;;;;-0.4074074074074074;0.30694444444444446;1;0;0;491.845.289.999.992;call1;0.010648148148148148;-0.3611111111111111;1;0;0;55.510.003.999.997.900;colour4;0.36342592592592593;-0.10138888888888889;1;0;0;6.051.794.900.000.000;number3;TRUE;TRUE;TRUE;1;1;2019_Nov_07_1551;MA_Theta_Exp;3.0.7;60.171.331.850.314.400
video/Experiment/zh_sp01_Dr_Gr_1_NVocInAudio_GlobalThetaInVideo.avi;vocoded;plusVideo;sp01;Dr;Gr;1;3;1;flow/blocks/NVocInAudio_GlobalThetaInVideo_A.csv;;;;;;;;;0;3;3;3;0;5;5;20;;;;;;;;;-0.4337962962962963;0.10972222222222222;1;0;0;5.105.767.700.000.340;call2;-0.07546296296296297;0.06666666666666667;1;0;0;5.523.096.800.000.070;colour2;0.37453703703703706;0.24583333333333332;1;0;0;5.972.642.799.999.900;number1;TRUE;TRUE;TRUE;1;1;2019_Nov_07_1551;MA_Theta_Exp;3.0.7;60.171.331.850.314.400
video/Experiment/zh_sp07_Ad_We_1_NVocInAudio_GlobalThetaInVideo.avi;vocoded;plusVideo;sp07;Ad;We;1;3;1;flow/blocks/NVocInAudio_GlobalThetaInVideo_A.csv;;;;;;;;;0;3;3;3;0;6;6;12;;;;;;;;;-0.3337962962962963;0.3125;1;0;0;4.425.030.999.999.760;call1;-0.010185185185185186;-0.3680555555555556;1;0;0;5.108.975.399.999.960;colour4;0.41898148148148145;0.30277777777777776;1;0;0;58.094.584.000.000.300;number1;TRUE;TRUE;TRUE;1;1;2019_Nov_07_1551;MA_Theta_Exp;3.0.7;60.171.331.850.314.400
video/Experiment/zh_sp07_Ad_Ro_2_NVocInAudio_GlobalThetaInVideo.avi;vocoded;plusVideo;sp07;Ad;Ro;2;3;1;flow/blocks/NVocInAudio_GlobalThetaInVideo_A.csv;;;;;;;;;0;3;3;3;0;7;7;9;;;;;;;;;-0.3699074074074074;0.32916666666666666;1;0;0;4.342.176.999.999.990;call1;0.02175925925925926;-0.07361111111111111;1;0;0;4.852.153.499.999.980;colour3;0.3537037037037037;0.14027777777777778;1;0;0;5.303.785.899.999.630;number2;TRUE;TRUE;TRUE;1;1;2019_Nov_07_1551;MA_Theta_Exp;3.0.7;60.171.331.850.314.400
video/Experiment/zh_sp01_Dr_We_4_NVocInAudio_GlobalThetaInVideo.avi;vocoded;plusVideo;sp01;Dr;We;4;3;1;flow/blocks/NVocInAudio_GlobalThetaInVideo_A.csv;;;;;;;;;0;3;3;3;0;8;8;31;;;;;;;;;-0.3699074074074074;0.29305555555555557;1;0;0;5.489.310.399.999.790;call1;0.016203703703703703;-0.3236111111111111;1;0;0;642.326.950.000.006;colour4;0.4009259259259259;-0.2972222222222222;1;0;0;6.866.776.399.999.700;number4;FALSE;TRUE;TRUE;1;1;2019_Nov_07_1551;MA_Theta_Exp;3.0.7;60.171.331.850.314.400
video/Experiment/zh_sp01_Ad_Ge_4_NVocInAudio_GlobalThetaInVideo.avi;vocoded;plusVideo;sp01;Ad;Ge;4;3;1;flow/blocks/NVocInAudio_GlobalThetaInVideo_A.csv;;;;;;;;;0;3;3;3;0;9;9;3;;;;;;;;;-0.4351851851851852;0.31805555555555554;1;0;0;5.037.212.000.000.180;call1;-0.05740740740740741;0.28055555555555556;1;0;0;5.454.180.599.999.740;colour1;0.4689814814814815;-0.3402777777777778;1;0;0;61.197.423.000.003.200;number4;TRUE;TRUE;TRUE;1;1;2019_Nov_07_1551;MA_Theta_Exp;3.0.7;60.171.331.850.314.400
video/Experiment/zh_sp07_Ad_Ro_1_NVocInAudio_GlobalThetaInVideo.avi;vocoded;plusVideo;sp07;Ad;Ro;1;3;1;flow/blocks/NVocInAudio_GlobalThetaInVideo_A.csv;;;;;;;;;0;3;3;3;0;10;10;8;;;;;;;;;-0.3699074074074074;0.3277777777777778;1;0;0;4.370.964.300.000.190;call1;-0.022685185185185187;-0.075;1;0;0;4.844.734.499.999.950;colour3;0.39814814814814814;0.28888888888888886;1;0;0;5.387.805.599.999.860;number1;TRUE;TRUE;TRUE;1;1;2019_Nov_07_1551;MA_Theta_Exp;3.0.7;60.171.331.850.314.400
video/Experiment/zh_sp07_Ad_Ro_3_NVocInAudio_GlobalThetaInVideo.avi;vocoded;plusVideo;sp07;Ad;Ro;3;3;1;flow/blocks/NVocInAudio_GlobalThetaInVideo_A.csv;;;;;;;;;0;3;3;3;0;11;11;10;;;;;;;;;-0.36574074074074076;0.30972222222222223;1;0;0;4.366.631.299.999.880;call1;-0.02546296296296296;-0.05416666666666667;1;0;0;4.916.753.299.999.980;colour3;0.42453703703703705;-0.07083333333333333;1;0;0;5.455.830.800.000.050;number3;TRUE;TRUE;TRUE;1;1;2019_Nov_07_1551;MA_Theta_Exp;3.0.7;60.171.331.850.314.400
video/Experiment/zh_sp07_Dr_Ge_3_NVocInAudio_GlobalThetaInVideo.avi;vocoded;plusVideo;sp07;Dr;Ge;3;3;1;flow/blocks/NVocInAudio_GlobalThetaInVideo_A.csv;;;;;;;;;0;3;3;3;0;12;12;18;;;;;;;;;-0.42962962962962964;0.1125;1;0;0;53.891.458.000.002.700;call2;0.03148148148148148;-0.12638888888888888;1;0;0;6.922.138.099.999.750;colour3;0.48009259259259257;-0.12361111111111112;1;0;0;7.376.103.200.000.210;number3;TRUE;FALSE;TRUE;1;1;2019_Nov_07_1551;MA_Theta_Exp;3.0.7;60.171.331.850.314.400
video/Experiment/zh_sp01_Dr_Gr_4_NVocInAudio_GlobalThetaInVideo.avi;vocoded;plusVideo;sp01;Dr;Gr;4;3;1;flow/blocks/NVocInAudio_GlobalThetaInVideo_A.csv;;;;;;;;;0;3;3;3;0;13;13;23;;;;;;;;;-0.34074074074074073;0.10972222222222222;1;0;0;5.173.383.199.999.980;call2;0.020370370370370372;0.07083333333333333;1;0;0;56.046.424.999.999.500;colour2;0.46620370370370373;-0.33055555555555555;1;0;0;6.121.018.899.999.850;number4;TRUE;TRUE;TRUE;1;1;2019_Nov_07_1551;MA_Theta_Exp;3.0.7;60.171.331.850.314.400
video/Experiment/zh_sp07_Ad_Ge_1_NVocInAudio_GlobalThetaInVideo.avi;vocoded;plusVideo;sp07;Ad;Ge;1;3;1;flow/blocks/NVocInAudio_GlobalThetaInVideo_A.csv;;;;;;;;;0;3;3;3;0;14;14;0;;;;;;;;;-0.40185185185185185;0.28055555555555556;1;0;0;438.879.820.000.011;call1;-0.06851851851851852;0.32916666666666666;1;0;0;4.876.463.200.000.210;colour1;0.38564814814814813;0.28888888888888886;1;0;0;5.357.767.599.999.980;number1;TRUE;TRUE;TRUE;1;1;2019_Nov_07_1551;MA_Theta_Exp;3.0.7;60.171.331.850.314.400
video/Experiment/zh_sp01_Dr_Ge_2_NVocInAudio_GlobalThetaInVideo.avi;vocoded;plusVideo;sp01;Dr;Ge;2;3;1;flow/blocks/NVocInAudio_GlobalThetaInVideo_A.csv;;;;;;;;;0;3;3;3;0;15;15;17;;;;;;;;;-0.39351851851851855;0.10833333333333334;1;0;0;5.058.890.799.999.970;call2;0.03981481481481482;0.33194444444444443;1;0;0;565.886.780.000.028;colour1;0.4564814814814815;0.07916666666666666;1;0;0;6.163.563.000.000.060;number2;TRUE;TRUE;TRUE;1;1;2019_Nov_07_1551;MA_Theta_Exp;3.0.7;60.171.331.850.314.400
video/Experiment/zh_sp01_Dr_Gr_2_NVocInAudio_GlobalThetaInVideo.avi;vocoded;plusVideo;sp01;Dr;Gr;2;3;1;flow/blocks/NVocInAudio_GlobalThetaInVideo_A.csv;;;;;;;;;0;3;3;3;0;16;16;21;;;;;;;;;-0.4337962962962963;0.10138888888888889;1;0;0;50.916.041.000.000.400;call2;0.03287037037037037;0.10972222222222222;1;0;0;5.523.248.499.999.680;colour2;0.38981481481481484;0.12916666666666668;1;0;0;5.955.993.000.000.030;number2;TRUE;TRUE;TRUE;1;1;2019_Nov_07_1551;MA_Theta_Exp;3.0.7;60.171.331.850.314.400
video/Experiment/zh_sp01_Ad_We_2_NVocInAudio_GlobalThetaInVideo.avi;vocoded;plusVideo;sp01;Ad;We;2;3;1;flow/blocks/NVocInAudio_GlobalThetaInVideo_A.csv;;;;;;;;;0;3;3;3;0;17;17;13;;;;;;;;;-0.39490740740740743;0.2902777777777778;1;0;0;49.998.388.000.003.600;call1;-0.001851851851851852;-0.32916666666666666;1;0;0;56.014.916.999.997.600;colour4;0.34120370370370373;0.11666666666666667;1;0;0;6.171.973.699.999.850;number2;TRUE;TRUE;TRUE;1;1;2019_Nov_07_1551;MA_Theta_Exp;3.0.7;60.171.331.850.314.400
video/Experiment/zh_sp07_Dr_Gr_3_NVocInAudio_GlobalThetaInVideo.avi;vocoded;plusVideo;sp07;Dr;Gr;3;3;1;flow/blocks/NVocInAudio_GlobalThetaInVideo_A.csv;;;;;;;;;0;3;3;3;0;18;18;22;;;;;;;;;-0.3976851851851852;0.08194444444444444;1;0;0;5.513.339.000.000.080;call2;0.02175925925925926;0.09583333333333334;1;0;0;6.406.085.399.999.930;colour2;0.4287037037037037;-0.11666666666666667;1;0;0;7.018.669.999.999.920;number3;TRUE;TRUE;TRUE;1;1;2019_Nov_07_1551;MA_Theta_Exp;3.0.7;60.171.331.850.314.400
video/Experiment/zh_sp01_Ad_Ge_2_NVocInAudio_GlobalThetaInVideo.avi;vocoded;plusVideo;sp01;Ad;Ge;2;3;1;flow/blocks/NVocInAudio_GlobalThetaInVideo_A.csv;;;;;;;;;0;3;3;3;0;19;19;1;;;;;;;;;-0.4115740740740741;0.275;1;0;0;5.500.622.399.999.880;call1;-0.03796296296296296;0.13055555555555556;1;0;0;6.099.885.600.000.100;colour2;0.39814814814814814;0.12083333333333333;1;0;0;716.737.860.000.012;number2;TRUE;FALSE;TRUE;1;1;2019_Nov_07_1551;MA_Theta_Exp;3.0.7;60.171.331.850.314.400
video/Experiment/zh_sp01_Dr_Ge_1_NVocInAudio_GlobalThetaInVideo.avi;vocoded;plusVideo;sp01;Dr;Ge;1;3;1;flow/blocks/NVocInAudio_GlobalThetaInVideo_A.csv;;;;;;;;;0;3;3;3;0;20;20;16;;;;;;;;;-0.3990740740740741;0.14027777777777778;1;0;0;4.900.262.699.999.980;call2;-0.046296296296296294;0.3277777777777778;1;0;0;5.450.189.199.999.840;colour1;0.41203703703703703;0.3375;1;0;0;5.966.495.099.999.970;number1;TRUE;TRUE;TRUE;1;1;2019_Nov_07_1551;MA_Theta_Exp;3.0.7;60.171.331.850.314.400
video/Experiment/zh_sp07_Dr_We_1_NVocInAudio_GlobalThetaInVideo.avi;vocoded;plusVideo;sp07;Dr;We;1;3;1;flow/blocks/NVocInAudio_GlobalThetaInVideo_A.csv;;;;;;;;;0;3;3;3;0;21;21;28;;;;;;;;;-0.3921296296296296;0.12222222222222222;1;0;0;4.596.765.799.999.950;call2;-0.031018518518518518;-0.2986111111111111;1;0;0;5.175.423.200.000.290;colour4;0.4064814814814815;0.2916666666666667;1;0;0;5.825.392.400.000.050;number1;TRUE;TRUE;TRUE;1;1;2019_Nov_07_1551;MA_Theta_Exp;3.0.7;60.171.331.850.314.400
video/Experiment/zh_sp01_Dr_Ro_3_NVocInAudio_GlobalThetaInVideo.avi;vocoded;plusVideo;sp01;Dr;Ro;3;3;1;flow/blocks/NVocInAudio_GlobalThetaInVideo_A.csv;;;;;;;;;0;3;3;3;0;22;22;26;;;;;;;;;-0.43657407407407406;0.09722222222222222;1;0;0;5.030.685.000.000.170;call2;-0.010185185185185186;-0.12083333333333333;1;0;0;6.241.634.299.999.980;colour3;0.4550925925925926;-0.09305555555555556;1;0;0;6.691.700.900.000.340;number3;TRUE;TRUE;TRUE;1;1;2019_Nov_07_1551;MA_Theta_Exp;3.0.7;60.171.331.850.314.400
video/Experiment/zh_sp01_Ad_We_4_NVocInAudio_GlobalThetaInVideo.avi;vocoded;plusVideo;sp01;Ad;We;4;3;1;flow/blocks/NVocInAudio_GlobalThetaInVideo_A.csv;;;;;;;;;0;3;3;3;0;23;23;15;;;;;;;;;-0.4115740740740741;0.2861111111111111;1;0;0;5.014.317.199.999.820;call1;-0.011574074074074073;-0.37222222222222223;1;0;0;5.641.913.299.999.940;colour4;0.43842592592592594;-0.35694444444444445;1;0;0;6.041.743.000.000.220;number4;TRUE;TRUE;TRUE;1;1;2019_Nov_07_1551;MA_Theta_Exp;3.0.7;60.171.331.850.314.400
video/Experiment/zh_sp07_Dr_Ro_1_NVocInAudio_GlobalThetaInVideo.avi;vocoded;plusVideo;sp07;Dr;Ro;1;3;1;flow/blocks/NVocInAudio_GlobalThetaInVideo_A.csv;;;;;;;;;0;3;3;3;0;24;24;24;;;;;;;;;-0.362962962962963;0.05694444444444444;1;0;0;4.495.726.300.000.110;call2;0.012037037037037037;-0.1;1;0;0;5.080.910.000.000.130;colour3;0.39537037037037037;0.30416666666666664;1;0;0;5.645.656.400.000.000;number1;TRUE;TRUE;TRUE;1;1;2019_Nov_07_1551;MA_Theta_Exp;3.0.7;60.171.331.850.314.400
video/Experiment/zh_sp07_Ad_Gr_1_NVocInAudio_GlobalThetaInVideo.avi;vocoded;plusVideo;sp07;Ad;Gr;1;3;1;flow/blocks/NVocInAudio_GlobalThetaInVideo_A.csv;;;;;;;;;0;3;3;3;0;25;25;4;;;;;;;;;-0.3560185185185185;0.30416666666666664;1;0;0;4.398.125.400.000.020;call1;0.023148148148148147;0.0625;1;0;0;4.850.131.199.999.850;colour2;0.37453703703703706;0.3;1;0;0;5.494.516.199.999.900;number1;TRUE;TRUE;TRUE;1;1;2019_Nov_07_1551;MA_Theta_Exp;3.0.7;60.171.331.850.314.400
video/Experiment/zh_sp01_Dr_We_2_NVocInAudio_GlobalThetaInVideo.avi;vocoded;plusVideo;sp01;Dr;We;2;3;1;flow/blocks/NVocInAudio_GlobalThetaInVideo_A.csv;;;;;;;;;0;3;3;3;0;26;26;29;;;;;;;;;-0.38935185185185184;0.07916666666666666;1;0;0;5.045.368.099.999.900;call2;-0.033796296296296297;-0.3347222222222222;1;0;0;5.630.805.699.999.650;colour4;0.4412037037037037;0.06666666666666667;1;0;0;61.879.414;number2;TRUE;TRUE;TRUE;1;1;2019_Nov_07_1551;MA_Theta_Exp;3.0.7;60.171.331.850.314.400
video/Experiment/zh_sp01_Dr_Ro_2_NVocInAudio_GlobalThetaInVideo.avi;vocoded;plusVideo;sp01;Dr;Ro;2;3;1;flow/blocks/NVocInAudio_GlobalThetaInVideo_A.csv;;;;;;;;;0;3;3;3;0;27;27;25;;;;;;;;;-0.4101851851851852;0.09861111111111111;1;0;0;5.111.073.000.000.030;call2;-0.05462962962962963;-0.0875;1;0;0;5.577.811.499.999.820;colour3;0.3175925925925926;0.13194444444444445;1;0;0;59.983.916.999.999.500;number2;TRUE;TRUE;TRUE;1;1;2019_Nov_07_1551;MA_Theta_Exp;3.0.7;60.171.331.850.314.400
video/Experiment/zh_sp07_Ad_Gr_3_NVocInAudio_GlobalThetaInVideo.avi;vocoded;plusVideo;sp07;Ad;Gr;3;3;1;flow/blocks/NVocInAudio_GlobalThetaInVideo_A.csv;;;;;;;;;0;3;3;3;0;28;28;6;;;;;;;;;-0.3421296296296296;0.3486111111111111;1;0;0;4.610.882.899.999.970;call1;-0.02824074074074074;0.13333333333333333;1;0;0;5.050.649.799.999.970;colour2;0.3912037037037037;-0.09444444444444444;1;0;0;5.509.531.600.000.170;number3;TRUE;TRUE;TRUE;1;1;2019_Nov_07_1551;MA_Theta_Exp;3.0.7;60.171.331.850.314.400
video/Experiment/zh_sp07_Dr_Ge_4_NVocInAudio_GlobalThetaInVideo.avi;vocoded;plusVideo;sp07;Dr;Ge;4;3;1;flow/blocks/NVocInAudio_GlobalThetaInVideo_A.csv;;;;;;;;;0;3;3;3;0;29;29;19;;;;;;;;;-0.3837962962962963;0.10416666666666667;1;0;0;46.196.021.999.999.100;call2;-0.032407407407407406;0.275;1;0;0;513.408.550.000.031;colour1;0.37175925925925923;-0.30277777777777776;1;0;0;58.190.811.999.998.000;number4;TRUE;TRUE;TRUE;1;1;2019_Nov_07_1551;MA_Theta_Exp;3.0.7;60.171.331.850.314.400
video/Experiment/zh_sp01_Ad_Gr_4_NVocInAudio_GlobalThetaInVideo.avi;vocoded;plusVideo;sp01;Ad;Gr;4;3;1;flow/blocks/NVocInAudio_GlobalThetaInVideo_A.csv;;;;;;;;;0;3;3;3;0;30;30;7;;;;;;;;;-0.36574074074074076;0.3347222222222222;1;0;0;5.011.351.300.000.110;call1;0.016203703703703703;0.06388888888888888;1;0;0;5.411.407.899.999.630;colour2;0.41898148148148145;-0.4083333333333333;1;0;0;5.947.444.899.999.930;number4;TRUE;TRUE;TRUE;1;1;2019_Nov_07_1551;MA_Theta_Exp;3.0.7;60.171.331.850.314.400
video/Experiment/zh_sp07_Dr_Ro_4_NVocInAudio_GlobalThetaInVideo.avi;vocoded;plusVideo;sp07;Dr;Ro;4;3;1;flow/blocks/NVocInAudio_GlobalThetaInVideo_A.csv;;;;;;;;;0;3;3;3;0;31;31;27;;;;;;;;;-0.4310185185185185;0.11805555555555555;1;0;0;4.424.490.800.000.050;call2;0.03148148148148148;-0.03194444444444444;1;0;0;4.962.171.300.000.130;colour3;0.38564814814814813;-0.3138888888888889;1;0;0;54.577.618.000.002.900;number4;TRUE;TRUE;TRUE;1;1;2019_Nov_07_1551;MA_Theta_Exp;3.0.7;60.171.331.850.314.400
video/Experiment/zh_sp01_Dr_We_1_NoThetaInAudio_NoVideo.avi;noTheta;noVideo;sp01;Dr;We;1;4;4;flow/blocks/NoThetaInAudio_NoVideo_A.csv;;;;;;;;;0;4;4;4;0;0;0;28;;;;;;;;;-0.42268518518518516;0.10277777777777777;1;0;0;5.097.988.200.000.140;call2;0.000925925925925926;-0.26666666666666666;1;0;0;6.081.395.100.000.000;colour4;0.3578703703703704;0.30694444444444446;1;0;0;67.304.926.000.001.600;number1;TRUE;TRUE;TRUE;1;1;2019_Nov_07_1551;MA_Theta_Exp;3.0.7;60.171.331.850.314.400
video/Experiment/zh_sp07_Dr_Gr_2_NoThetaInAudio_NoVideo.avi;noTheta;noVideo;sp07;Dr;Gr;2;4;4;flow/blocks/NoThetaInAudio_NoVideo_A.csv;;;;;;;;;0;4;4;4;0;1;1;21;;;;;;;;;-0.3907407407407407;0.09861111111111111;1;0;0;4.642.541.900.000.190;call2;0.03425925925925926;0.12083333333333333;1;0;0;5.074.760.499.999.680;colour2;0.4425925925925926;0.09583333333333334;1;0;0;5.428.386.800.000.220;number2;TRUE;TRUE;TRUE;1;1;2019_Nov_07_1551;MA_Theta_Exp;3.0.7;60.171.331.850.314.400
video/Experiment/zh_sp07_Ad_Ro_1_NoThetaInAudio_NoVideo.avi;noTheta;noVideo;sp07;Ad;Ro;1;4;4;flow/blocks/NoThetaInAudio_NoVideo_A.csv;;;;;;;;;0;4;4;4;0;2;2;8;;;;;;;;;-0.37546296296296294;0.32222222222222224;1;0;0;4.159.484.999.999.670;call1;0.006481481481481481;-0.13055555555555556;1;0;0;4.709.796.099.999.940;colour3;0.4050925925925926;0.31666666666666665;1;0;0;5.231.836.299.999.940;number1;TRUE;TRUE;TRUE;1;1;2019_Nov_07_1551;MA_Theta_Exp;3.0.7;60.171.331.850.314.400
video/Experiment/zh_sp07_Ad_Ro_2_NoThetaInAudio_NoVideo.avi;noTheta;noVideo;sp07;Ad;Ro;2;4;4;flow/blocks/NoThetaInAudio_NoVideo_A.csv;;;;;;;;;0;4;4;4;0;3;3;9;;;;;;;;;-0.40185185185185185;0.3111111111111111;1;0;0;4.313.188.900.000.110;call1;-0.03518518518518519;-0.044444444444444446;1;0;0;4.722.848.300.000.350;colour3;0.40370370370370373;0.15138888888888888;1;0;0;5.168.268.299.999.900;number2;TRUE;TRUE;TRUE;1;1;2019_Nov_07_1551;MA_Theta_Exp;3.0.7;60.171.331.850.314.400
video/Experiment/zh_sp01_Dr_Ro_4_NoThetaInAudio_NoVideo.avi;noTheta;noVideo;sp01;Dr;Ro;4;4;4;flow/blocks/NoThetaInAudio_NoVideo_A.csv;;;;;;;;;0;4;4;4;0;4;4;27;;;;;;;;;-0.43657407407407406;0.14722222222222223;1;0;0;4.855.381.200.000.010;call2;-0.0824074074074074;-0.0625;1;0;0;5.222.085.100.000.180;colour3;0.3912037037037037;-0.31805555555555554;1;0;0;5.723.406.600.000.080;number4;TRUE;TRUE;TRUE;1;1;2019_Nov_07_1551;MA_Theta_Exp;3.0.7;60.171.331.850.314.400
video/Experiment/zh_sp07_Dr_Gr_1_NoThetaInAudio_NoVideo.avi;noTheta;noVideo;sp07;Dr;Gr;1;4;4;flow/blocks/NoThetaInAudio_NoVideo_A.csv;;;;;;;;;0;4;4;4;0;5;5;20;;;;;;;;;-0.4449074074074074;0.10138888888888889;1;0;0;4.337.775.999.999.840;call2;-0.010185185185185186;0.08888888888888889;1;0;0;4.706.527.499.999.990;colour2;0.3537037037037037;0.25555555555555554;1;0;0;5.182.992.999.999.890;number1;TRUE;TRUE;TRUE;1;1;2019_Nov_07_1551;MA_Theta_Exp;3.0.7;60.171.331.850.314.400
video/Experiment/zh_sp01_Dr_Ro_3_NoThetaInAudio_NoVideo.avi;noTheta;noVideo;sp01;Dr;Ro;3;4;4;flow/blocks/NoThetaInAudio_NoVideo_A.csv;;;;;;;;;0;4;4;4;0;6;6;26;;;;;;;;;-0.38935185185185184;0.09444444444444444;1;0;0;4.857.735.199.999.750;call2;-0.05740740740740741;-0.09861111111111111;1;0;0;5.258.993.500.000.080;colour3;0.4398148148148148;-0.07361111111111111;1;0;0;5.674.527.699.999.990;number3;TRUE;TRUE;TRUE;1;1;2019_Nov_07_1551;MA_Theta_Exp;3.0.7;60.171.331.850.314.400
video/Experiment/zh_sp07_Dr_Ge_1_NoThetaInAudio_NoVideo.avi;noTheta;noVideo;sp07;Dr;Ge;1;4;4;flow/blocks/NoThetaInAudio_NoVideo_A.csv;;;;;;;;;0;4;4;4;0;7;7;16;;;;;;;;;-0.3712962962962963;0.325;1;0;0;4.249.909.399.999.970;call1;-0.05740740740740741;0.32222222222222224;1;0;0;4.616.062.099.999.900;colour1;0.3662037037037037;0.32916666666666666;1;0;0;5.015.809.900.000.020;number1;FALSE;TRUE;TRUE;1;1;2019_Nov_07_1551;MA_Theta_Exp;3.0.7;60.171.331.850.314.400
video/Experiment/zh_sp07_Ad_Ge_4_NoThetaInAudio_NoVideo.avi;noTheta;noVideo;sp07;Ad;Ge;4;4;4;flow/blocks/NoThetaInAudio_NoVideo_A.csv;;;;;;;;;0;4;4;4;0;8;8;3;;;;;;;;;-0.3560185185185185;0.32222222222222224;1;0;0;4.606.415.199.999.900;call1;-0.021296296296296296;0.31666666666666665;1;0;0;5.074.163.899.999.800;colour1;0.3925925925925926;-0.24305555555555555;1;0;0;5.556.996.400.000.110;number4;TRUE;TRUE;TRUE;1;1;2019_Nov_07_1551;MA_Theta_Exp;3.0.7;60.171.331.850.314.400
video/Experiment/zh_sp01_Ad_We_2_NoThetaInAudio_NoVideo.avi;noTheta;noVideo;sp01;Ad;We;2;4;4;flow/blocks/NoThetaInAudio_NoVideo_A.csv;;;;;;;;;0;4;4;4;0;9;9;13;;;;;;;;;-0.42962962962962964;0.30416666666666664;1;0;0;490.516.770.000.022;call1;-0.014351851851851852;-0.35;1;0;0;5.524.516.400.000.260;colour4;0.40370370370370373;0.07222222222222222;1;0;0;60.510.873.999.996.800;number2;TRUE;TRUE;TRUE;1;1;2019_Nov_07_1551;MA_Theta_Exp;3.0.7;60.171.331.850.314.400
video/Experiment/zh_sp07_Dr_Ge_4_NoThetaInAudio_NoVideo.avi;noTheta;noVideo;sp07;Dr;Ge;4;4;4;flow/blocks/NoThetaInAudio_NoVideo_A.csv;;;;;;;;;0;4;4;4;0;10;10;19;;;;;;;;;-0.38935185185185184;0.2986111111111111;1;0;0;4.717.249.199.999.960;call1;-0.018518518518518517;0.2763888888888889;1;0;0;5.068.661.199.999.950;colour1;0.3800925925925926;-0.29444444444444445;1;0;0;57.335.401.000.000.200;number4;FALSE;TRUE;TRUE;1;1;2019_Nov_07_1551;MA_Theta_Exp;3.0.7;60.171.331.850.314.400
video/Experiment/zh_sp01_Dr_We_2_NoThetaInAudio_NoVideo.avi;noTheta;noVideo;sp01;Dr;We;2;4;4;flow/blocks/NoThetaInAudio_NoVideo_A.csv;;;;;;;;;0;4;4;4;0;11;11;29;;;;;;;;;-0.350462962962963;0.14027777777777778;1;0;0;5.218.722.000.000.070;call2;0.0023148148148148147;-0.3277777777777778;1;0;0;6.485.027.599.999.730;colour4;0.41064814814814815;0.1361111111111111;1;0;0;71.410.743.000.001.200;number2;TRUE;TRUE;TRUE;1;1;2019_Nov_07_1551;MA_Theta_Exp;3.0.7;60.171.331.850.314.400
video/Experiment/zh_sp01_Ad_We_4_NoThetaInAudio_NoVideo.avi;noTheta;noVideo;sp01;Ad;We;4;4;4;flow/blocks/NoThetaInAudio_NoVideo_A.csv;;;;;;;;;0;4;4;4;0;12;12;15;;;;;;;;;-0.40324074074074073;0.3263888888888889;1;0;0;4.871.064.599.999.950;call1;0.005092592592592593;-0.3;1;0;0;5.372.567.599.999.910;colour4;0.45231481481481484;-0.28888888888888886;1;0;0;5.874.014.500.000.150;number4;TRUE;TRUE;TRUE;1;1;2019_Nov_07_1551;MA_Theta_Exp;3.0.7;60.171.331.850.314.400
video/Experiment/zh_sp01_Dr_Gr_4_NoThetaInAudio_NoVideo.avi;noTheta;noVideo;sp01;Dr;Gr;4;4;4;flow/blocks/NoThetaInAudio_NoVideo_A.csv;;;;;;;;;0;4;4;4;0;13;13;23;;;;;;;;;-0.4074074074074074;0.1;1;0;0;5.253.677.199.999.850;call2;0.037037037037037035;0.12777777777777777;1;0;0;5.789.469.300.000.290;colour2;0.3925925925925926;-0.2847222222222222;1;0;0;6.302.979.300.000.060;number4;TRUE;TRUE;TRUE;1;1;2019_Nov_07_1551;MA_Theta_Exp;3.0.7;60.171.331.850.314.400
video/Experiment/zh_sp01_Ad_We_3_NoThetaInAudio_NoVideo.avi;noTheta;noVideo;sp01;Ad;We;3;4;4;flow/blocks/NoThetaInAudio_NoVideo_A.csv;;;;;;;;;0;4;4;4;0;14;14;14;;;;;;;;;-0.3699074074074074;0.35694444444444445;1;0;0;5.024.906.099.999.950;call1;0.03564814814814815;-0.31527777777777777;1;0;0;5.657.828.800.000.060;colour4;0.42314814814814816;-0.07222222222222222;1;0;0;6.109.002.700.000.010;number3;TRUE;TRUE;TRUE;1;1;2019_Nov_07_1551;MA_Theta_Exp;3.0.7;60.171.331.850.314.400
video/Experiment/zh_sp01_Ad_Ro_4_NoThetaInAudio_NoVideo.avi;noTheta;noVideo;sp01;Ad;Ro;4;4;4;flow/blocks/NoThetaInAudio_NoVideo_A.csv;;;;;;;;;0;4;4;4;0;15;15;11;;;;;;;;;-0.425462962962963;0.3125;1;0;0;5.489.254.300.000.080;call1;-0.02546296296296296;-0.125;1;0;0;6.105.693.099.999.820;colour3;0.3814814814814815;-0.3611111111111111;1;0;0;6.656.489.299.999.970;number4;TRUE;TRUE;TRUE;1;1;2019_Nov_07_1551;MA_Theta_Exp;3.0.7;60.171.331.850.314.400
video/Experiment/zh_sp01_Ad_We_1_NoThetaInAudio_NoVideo.avi;noTheta;noVideo;sp01;Ad;We;1;4;4;flow/blocks/NoThetaInAudio_NoVideo_A.csv;;;;;;;;;0;4;4;4;0;16;16;12;;;;;;;;;-0.3726851851851852;0.325;1;0;0;527.997.890.000.006;call1;-0.001851851851851852;-0.3138888888888889;1;0;0;5.862.365.899.999.980;colour4;0.41064814814814815;0.29305555555555557;1;0;0;6.445.255.800.000.260;number1;TRUE;TRUE;TRUE;1;1;2019_Nov_07_1551;MA_Theta_Exp;3.0.7;60.171.331.850.314.400
video/Experiment/zh_sp07_Ad_Ge_2_NoThetaInAudio_NoVideo.avi;noTheta;noVideo;sp07;Ad;Ge;2;4;4;flow/blocks/NoThetaInAudio_NoVideo_A.csv;;;;;;;;;0;4;4;4;0;17;17;1;;;;;;;;;-0.39490740740740743;0.33055555555555555;1;0;0;4.346.897.900.000.380;call1;0.03425925925925926;0.31805555555555554;1;0;0;4.730.172.800.000.210;colour1;0.4050925925925926;0.06805555555555555;1;0;0;51.154.725.999.999.700;number2;TRUE;TRUE;TRUE;1;1;2019_Nov_07_1551;MA_Theta_Exp;3.0.7;60.171.331.850.314.400
video/Experiment/zh_sp07_Ad_Ge_1_NoThetaInAudio_NoVideo.avi;noTheta;noVideo;sp07;Ad;Ge;1;4;4;flow/blocks/NoThetaInAudio_NoVideo_A.csv;;;;;;;;;0;4;4;4;0;18;18;0;;;;;;;;;-0.36157407407407405;0.30277777777777776;1;0;0;4.309.396.399.999.960;call1;0.016203703703703703;0.2916666666666667;1;0;0;4.675.549.500.000.210;colour1;0.38287037037037036;0.3055555555555556;1;0;0;5.025.616.100.000.200;number1;TRUE;TRUE;TRUE;1;1;2019_Nov_07_1551;MA_Theta_Exp;3.0.7;60.171.331.850.314.400
video/Experiment/zh_sp01_Ad_Ro_3_NoThetaInAudio_NoVideo.avi;noTheta;noVideo;sp01;Ad;Ro;3;4;4;flow/blocks/NoThetaInAudio_NoVideo_A.csv;;;;;;;;;0;4;4;4;0;19;19;10;;;;;;;;;-0.41435185185185186;0.27361111111111114;1;0;0;4.865.874.399.999.930;call1;-0.049074074074074076;-0.0125;1;0;0;5.364.612.900.000.330;colour3;0.46620370370370373;-0.09444444444444444;1;0;0;6.482.225.000.000.190;number3;TRUE;TRUE;TRUE;1;1;2019_Nov_07_1551;MA_Theta_Exp;3.0.7;60.171.331.850.314.400
video/Experiment/zh_sp07_Ad_Gr_1_NoThetaInAudio_NoVideo.avi;noTheta;noVideo;sp07;Ad;Gr;1;4;4;flow/blocks/NoThetaInAudio_NoVideo_A.csv;;;;;;;;;0;4;4;4;0;20;20;4;;;;;;;;;-0.3699074074074074;0.30277777777777776;1;0;0;4.492.530.500.000.150;call1;-0.026851851851851852;0.07083333333333333;1;0;0;4.976.080.599.999.930;colour2;0.38425925925925924;0.3138888888888889;1;0;0;5.444.894.500.000.370;number1;TRUE;TRUE;TRUE;1;1;2019_Nov_07_1551;MA_Theta_Exp;3.0.7;60.171.331.850.314.400
video/Experiment/zh_sp07_Ad_Gr_2_NoThetaInAudio_NoVideo.avi;noTheta;noVideo;sp07;Ad;Gr;2;4;4;flow/blocks/NoThetaInAudio_NoVideo_A.csv;;;;;;;;;0;4;4;4;0;21;21;5;;;;;;;;;-0.38101851851851853;0.3138888888888889;1;0;0;44.326.083.000.000.800;call1;-0.033796296296296297;0.075;1;0;0;4.872.118.599.999.790;colour2;0.43425925925925923;0.10555555555555556;1;0;0;5.313.152.100.000.020;number2;TRUE;TRUE;TRUE;1;1;2019_Nov_07_1551;MA_Theta_Exp;3.0.7;60.171.331.850.314.400
video/Experiment/zh_sp07_Dr_Ro_1_NoThetaInAudio_NoVideo.avi;noTheta;noVideo;sp07;Dr;Ro;1;4;4;flow/blocks/NoThetaInAudio_NoVideo_A.csv;;;;;;;;;0;4;4;4;0;22;22;24;;;;;;;;;-0.412962962962963;0.059722222222222225;1;0;0;4.274.503.399.999.950;call2;-0.040740740740740744;-0.10416666666666667;1;0;0;4.677.714.000.000.370;colour3;0.4273148148148148;0.30972222222222223;1;0;0;5.155.498.499.999.790;number1;TRUE;TRUE;TRUE;1;1;2019_Nov_07_1551;MA_Theta_Exp;3.0.7;60.171.331.850.314.400
video/Experiment/zh_sp01_Ad_Ge_3_NoThetaInAudio_NoVideo.avi;noTheta;noVideo;sp01;Ad;Ge;3;4;4;flow/blocks/NoThetaInAudio_NoVideo_A.csv;;;;;;;;;0;4;4;4;0;23;23;2;;;;;;;;;-0.4185185185185185;0.30833333333333335;1;0;0;49.287.773.000.000.900;call1;-0.03935185185185185;0.2625;1;0;0;53.118.131.999.999.600;colour1;0.3787037037037037;-0.1111111111111111;1;0;0;5.830.515.599.999.670;number3;TRUE;TRUE;TRUE;1;1;2019_Nov_07_1551;MA_Theta_Exp;3.0.7;60.171.331.850.314.400
video/Experiment/zh_sp07_Dr_Gr_3_NoThetaInAudio_NoVideo.avi;noTheta;noVideo;sp07;Dr;Gr;3;4;4;flow/blocks/NoThetaInAudio_NoVideo_A.csv;;;;;;;;;0;4;4;4;0;24;24;22;;;;;;;;;-0.3574074074074074;0.07083333333333333;1;0;0;4.493.283.899.999.820;call2;0.00787037037037037;0.09861111111111111;1;0;0;486.008.240.000.001;colour2;0.44675925925925924;-0.175;1;0;0;5.309.884.799.999.960;number3;TRUE;TRUE;TRUE;1;1;2019_Nov_07_1551;MA_Theta_Exp;3.0.7;60.171.331.850.314.400
video/Experiment/zh_sp01_Dr_Ge_3_NoThetaInAudio_NoVideo.avi;noTheta;noVideo;sp01;Dr;Ge;3;4;4;flow/blocks/NoThetaInAudio_NoVideo_A.csv;;;;;;;;;0;4;4;4;0;25;25;18;;;;;;;;;-0.38796296296296295;0.09027777777777778;1;0;0;5.044.296.000.000.030;call2;0.009259259259259259;0.2652777777777778;1;0;0;551.080.200.000.024;colour1;0.4398148148148148;-0.15694444444444444;1;0;0;6.294.836.699.999.900;number3;TRUE;TRUE;TRUE;1;1;2019_Nov_07_1551;MA_Theta_Exp;3.0.7;60.171.331.850.314.400
video/Experiment/zh_sp07_Dr_We_4_NoThetaInAudio_NoVideo.avi;noTheta;noVideo;sp07;Dr;We;4;4;4;flow/blocks/NoThetaInAudio_NoVideo_A.csv;;;;;;;;;0;4;4;4;0;26;26;31;;;;;;;;;-0.37546296296296294;0.08472222222222223;1;0;0;438.509.490.000.024;call2;0.03148148148148148;-0.32916666666666666;1;0;0;58.831.663.000.000.800;colour4;0.449537037037037;-0.3263888888888889;1;0;0;7.082.489.500.000.060;number4;TRUE;TRUE;TRUE;1;1;2019_Nov_07_1551;MA_Theta_Exp;3.0.7;60.171.331.850.314.400
video/Experiment/zh_sp07_Ad_Gr_4_NoThetaInAudio_NoVideo.avi;noTheta;noVideo;sp07;Ad;Gr;4;4;4;flow/blocks/NoThetaInAudio_NoVideo_A.csv;;;;;;;;;0;4;4;4;0;27;27;7;;;;;;;;;-0.3699074074074074;0.2777777777777778;1;0;0;4.439.566.199.999.710;call1;-0.001851851851851852;0.06666666666666667;1;0;0;4.823.040.299.999.770;colour2;0.45231481481481484;-0.34305555555555556;1;0;0;5.522.506.599.999.810;number4;TRUE;TRUE;TRUE;1;1;2019_Nov_07_1551;MA_Theta_Exp;3.0.7;60.171.331.850.314.400
video/Experiment/zh_sp01_Dr_We_3_NoThetaInAudio_NoVideo.avi;noTheta;noVideo;sp01;Dr;We;3;4;4;flow/blocks/NoThetaInAudio_NoVideo_A.csv;;;;;;;;;0;4;4;4;0;28;28;30;;;;;;;;;-0.3837962962962963;0.08472222222222223;1;0;0;5.543.131.799.999.620;call2;0.000925925925925926;-0.2875;1;0;0;60.802.936.000.000.000;colour4;0.4398148148148148;-0.11388888888888889;1;0;0;6.696.544.200.000.060;number3;TRUE;TRUE;TRUE;1;1;2019_Nov_07_1551;MA_Theta_Exp;3.0.7;60.171.331.850.314.400
video/Experiment/zh_sp01_Dr_Ro_2_NoThetaInAudio_NoVideo.avi;noTheta;noVideo;sp01;Dr;Ro;2;4;4;flow/blocks/NoThetaInAudio_NoVideo_A.csv;;;;;;;;;0;4;4;4;0;29;29;25;;;;;;;;;-0.3921296296296296;0.10972222222222222;1;0;0;5.078.558.299.999.710;call2;-0.007407407407407408;-0.12222222222222222;1;0;0;6.085.396.500.000.110;colour3;0.4537037037037037;0.05;1;0;0;6.531.803.700.000.180;number2;TRUE;TRUE;TRUE;1;1;2019_Nov_07_1551;MA_Theta_Exp;3.0.7;60.171.331.850.314.400
video/Experiment/zh_sp07_Dr_Ge_2_NoThetaInAudio_NoVideo.avi;noTheta;noVideo;sp07;Dr;Ge;2;4;4;flow/blocks/NoThetaInAudio_NoVideo_A.csv;;;;;;;;;0;4;4;4;0;30;30;17;;;;;;;;;-0.4199074074074074;0.11666666666666667;1;0;0;4.386.297.099.999.860;call2;-0.02824074074074074;0.2611111111111111;1;0;0;4.819.977.799.999.830;colour1;0.37453703703703706;0.13055555555555556;1;0;0;5.242.728.700.000.040;number2;TRUE;TRUE;TRUE;1;1;2019_Nov_07_1551;MA_Theta_Exp;3.0.7;60.171.331.850.314.400
video/Experiment/zh_sp01_Ad_Gr_3_NoThetaInAudio_NoVideo.avi;noTheta;noVideo;sp01;Ad;Gr;3;4;4;flow/blocks/NoThetaInAudio_NoVideo_A.csv;;;;;;;;;0;4;4;4;0;31;31;6;;;;;;;;;-0.3726851851851852;0.28888888888888886;1;0;0;5.073.721.100.000.050;call1;0.03148148148148148;-0.14305555555555555;1;0;0;7.439.528.200.000.040;colour3;0.49537037037037035;-0.16111111111111112;1;0;0;79.732.647.000.000.700;number3;TRUE;FALSE;TRUE;1;1;2019_Nov_07_1551;MA_Theta_Exp;3.0.7;60.171.331.850.314.400
video/Experiment/zh_sp07_Un_We_2_NVocInAudio_GlobalThetaInVideo.avi;vocoded;plusVideo;sp07;Un;We;2;0;1;flow/blocks/NVocInAudio_GlobalThetaInVideo_B.csv;;;;;;;;;;;;;;;;;0;0;0;0;0;0;0;29;-0.4115740740740741;-0.2916666666666667;1;0;0;4.977.366.400.000.390;call4;0.02175925925925926;-0.3263888888888889;1;0;0;5.360.818.200.000.260;colour4;0.32175925925925924;0.020833333333333332;1;0;0;5.838.626.200.000.360;number2;TRUE;TRUE;TRUE;1;1;2019_Nov_07_1551;MA_Theta_Exp;3.0.7;60.171.331.850.314.400
video/Experiment/zh_sp07_Un_Gr_2_NVocInAudio_GlobalThetaInVideo.avi;vocoded;plusVideo;sp07;Un;Gr;2;0;1;flow/blocks/NVocInAudio_GlobalThetaInVideo_B.csv;;;;;;;;;;;;;;;;;0;0;0;0;0;1;1;21;-0.41712962962962963;-0.3013888888888889;1;0;0;4.575.529.799.999.910;call4;0.05092592592592592;0.1;1;0;0;5.941.727.399.999.760;colour2;0.4787037037037037;0.10972222222222222;1;0;0;635.913.279.999.977;number2;TRUE;TRUE;TRUE;1;1;2019_Nov_07_1551;MA_Theta_Exp;3.0.7;60.171.331.850.314.400
video/Experiment/zh_sp01_Ti_Ro_4_NVocInAudio_GlobalThetaInVideo.avi;vocoded;plusVideo;sp01;Ti;Ro;4;0;1;flow/blocks/NVocInAudio_GlobalThetaInVideo_B.csv;;;;;;;;;;;;;;;;;0;0;0;0;0;2;2;11;-0.45601851851851855;-0.18472222222222223;1;0;0;5.125.594.199.999.790;call3;-0.05185185185185185;-0.08472222222222223;1;0;0;5.609.102.800.000.070;colour3;0.38425925925925924;-0.3402777777777778;1;0;0;6.109.143.099.999.980;number4;TRUE;TRUE;TRUE;1;1;2019_Nov_07_1551;MA_Theta_Exp;3.0.7;60.171.331.850.314.400
video/Experiment/zh_sp07_Ti_Gr_4_NVocInAudio_GlobalThetaInVideo.avi;vocoded;plusVideo;sp07;Ti;Gr;4;0;1;flow/blocks/NVocInAudio_GlobalThetaInVideo_B.csv;;;;;;;;;;;;;;;;;0;0;0;0;0;3;3;7;-0.4615740740740741;-0.11388888888888889;1;0;0;485.987.329.999.989;call3;0.017592592592592594;0.05694444444444444;1;0;0;5.410.053.099.999.910;colour2;0.41759259259259257;-0.31666666666666665;1;0;0;5.876.151.299.999.940;number4;TRUE;TRUE;TRUE;1;1;2019_Nov_07_1551;MA_Theta_Exp;3.0.7;60.171.331.850.314.400
video/Experiment/zh_sp01_Un_We_4_NVocInAudio_GlobalThetaInVideo.avi;vocoded;plusVideo;sp01;Un;We;4;0;1;flow/blocks/NVocInAudio_GlobalThetaInVideo_B.csv;;;;;;;;;;;;;;;;;0;0;0;0;0;4;4;31;-0.4101851851851852;-0.3125;1;0;0;510.570.800.000.005;call4;-0.04490740740740741;-0.3458333333333333;1;0;0;5.538.187.499.999.820;colour4;0.39814814814814814;-0.29444444444444445;1;0;0;6.438.621.899.999.810;number4;TRUE;TRUE;TRUE;1;1;2019_Nov_07_1551;MA_Theta_Exp;3.0.7;60.171.331.850.314.400
video/Experiment/zh_sp01_Un_Ge_3_NVocInAudio_GlobalThetaInVideo.avi;vocoded;plusVideo;sp01;Un;Ge;3;0;1;flow/blocks/NVocInAudio_GlobalThetaInVideo_B.csv;;;;;;;;;;;;;;;;;0;0;0;0;0;5;5;18;-0.38657407407407407;-0.3125;1;0;0;491.752.839.999.981;call4;-0.008796296296296297;0.35694444444444445;1;0;0;5.601.159.800.000.000;colour1;0.38564814814814813;-0.07777777777777778;1;0;0;6.234.715.600.000.070;number3;TRUE;TRUE;TRUE;1;1;2019_Nov_07_1551;MA_Theta_Exp;3.0.7;60.171.331.850.314.400
video/Experiment/zh_sp01_Un_We_3_NVocInAudio_GlobalThetaInVideo.avi;vocoded;plusVideo;sp01;Un;We;3;0;1;flow/blocks/NVocInAudio_GlobalThetaInVideo_B.csv;;;;;;;;;;;;;;;;;0;0;0;0;0;6;6;30;-0.3851851851851852;-0.29583333333333334;1;0;0;4.919.881.400.000.120;call4;0.024537037037037038;-0.2972222222222222;1;0;0;5.386.767.599.999.980;colour4;0.42314814814814816;-0.14027777777777778;1;0;0;6.320.193.600.000.030;number3;TRUE;TRUE;TRUE;1;1;2019_Nov_07_1551;MA_Theta_Exp;3.0.7;60.171.331.850.314.400
video/Experiment/zh_sp07_Ti_Ge_3_NVocInAudio_GlobalThetaInVideo.avi;vocoded;plusVideo;sp07;Ti;Ge;3;0;1;flow/blocks/NVocInAudio_GlobalThetaInVideo_B.csv;;;;;;;;;;;;;;;;;0;0;0;0;0;7;7;2;-0.3726851851851852;-0.08611111111111111;1;0;0;4.946.438.299.999.950;call3;0.03564814814814815;0.31805555555555554;1;0;0;5.565.093.100.000.010;colour1;0.41898148148148145;-0.06944444444444445;1;0;0;6.180.237.000.000.030;number3;TRUE;TRUE;TRUE;1;1;2019_Nov_07_1551;MA_Theta_Exp;3.0.7;60.171.331.850.314.400
video/Experiment/zh_sp07_Un_Ge_1_NVocInAudio_GlobalThetaInVideo.avi;vocoded;plusVideo;sp07;Un;Ge;1;0;1;flow/blocks/NVocInAudio_GlobalThetaInVideo_B.csv;;;;;;;;;;;;;;;;;0;0;0;0;0;8;8;16;-0.37824074074074077;-0.30972222222222223;1;0;0;4.429.987.299.999.990;call4;0.04814814814814815;0.34444444444444444;1;0;0;5.330.507.399.999.980;colour1;0.43425925925925923;0.30416666666666664;1;0;0;5.996.068.099.999.770;number1;TRUE;TRUE;TRUE;1;1;2019_Nov_07_1551;MA_Theta_Exp;3.0.7;60.171.331.850.314.400
video/Experiment/zh_sp07_Un_Gr_3_NVocInAudio_GlobalThetaInVideo.avi;vocoded;plusVideo;sp07;Un;Gr;3;0;1;flow/blocks/NVocInAudio_GlobalThetaInVideo_B.csv;;;;;;;;;;;;;;;;;0;0;0;0;0;9;9;22;-0.38935185185185184;-0.35138888888888886;1;0;0;4.324.760.499.999.680;call4;-0.004629629629629629;0.10555555555555556;1;0;0;4.926.505.300.000.370;colour2;0.45231481481481484;-0.09861111111111111;1;0;0;5.447.036.400.000.340;number3;TRUE;TRUE;TRUE;1;1;2019_Nov_07_1551;MA_Theta_Exp;3.0.7;60.171.331.850.314.400
video/Experiment/zh_sp01_Un_We_1_NVocInAudio_GlobalThetaInVideo.avi;vocoded;plusVideo;sp01;Un;We;1;0;1;flow/blocks/NVocInAudio_GlobalThetaInVideo_B.csv;;;;;;;;;;;;;;;;;0;0;0;0;0;10;10;28;-0.42407407407407405;-0.30416666666666664;1;0;0;5.092.498.499.999.690;call4;-0.02546296296296296;-0.30972222222222223;1;0;0;5.509.253.499.999.880;colour4;0.4203703703703704;0.2791666666666667;1;0;0;6.142.506.499.999.850;number1;TRUE;TRUE;TRUE;1;1;2019_Nov_07_1551;MA_Theta_Exp;3.0.7;60.171.331.850.314.400
video/Experiment/zh_sp07_Ti_Ge_4_NVocInAudio_GlobalThetaInVideo.avi;vocoded;plusVideo;sp07;Ti;Ge;4;0;1;flow/blocks/NVocInAudio_GlobalThetaInVideo_B.csv;;;;;;;;;;;;;;;;;0;0;0;0;0;11;11;3;-0.4060185185185185;-0.1486111111111111;1;0;0;436.875.289.999.989;call3;0.028703703703703703;0.3055555555555556;1;0;0;4.871.590.499.999.910;colour1;0.41064814814814815;-0.2902777777777778;1;0;0;5.535.507.099.999.900;number4;TRUE;TRUE;TRUE;1;1;2019_Nov_07_1551;MA_Theta_Exp;3.0.7;60.171.331.850.314.400
video/Experiment/zh_sp07_Ti_Ro_2_NVocInAudio_GlobalThetaInVideo.avi;vocoded;plusVideo;sp07;Ti;Ro;2;0;1;flow/blocks/NVocInAudio_GlobalThetaInVideo_B.csv;;;;;;;;;;;;;;;;;0;0;0;0;0;12;12;9;-0.38101851851851853;-0.12777777777777777;1;0;0;45.625.004.999.997.100;call3;-0.09074074074074075;-0.0875;1;0;0;4.995.897.899.999.810;colour3;0.4050925925925926;0.10555555555555556;1;0;0;6.117.392.500.000.270;number2;TRUE;TRUE;TRUE;1;1;2019_Nov_07_1551;MA_Theta_Exp;3.0.7;60.171.331.850.314.400
video/Experiment/zh_sp01_Ti_Ro_3_NVocInAudio_GlobalThetaInVideo.avi;vocoded;plusVideo;sp01;Ti;Ro;3;0;1;flow/blocks/NVocInAudio_GlobalThetaInVideo_B.csv;;;;;;;;;;;;;;;;;0;0;0;0;0;13;13;10;-0.38796296296296295;-0.13333333333333333;1;0;0;4.883.660.800.000.140;call3;0.027314814814814816;-0.09583333333333334;1;0;0;53.499.534.999.996.200;colour3;0.43703703703703706;-0.10416666666666667;1;0;0;5.802.553.099.999.840;number3;TRUE;TRUE;TRUE;1;1;2019_Nov_07_1551;MA_Theta_Exp;3.0.7;60.171.331.850.314.400
video/Experiment/zh_sp01_Ti_Gr_1_NVocInAudio_GlobalThetaInVideo.avi;vocoded;plusVideo;sp01;Ti;Gr;1;0;1;flow/blocks/NVocInAudio_GlobalThetaInVideo_B.csv;;;;;;;;;;;;;;;;;0;0;0;0;0;14;14;4;-0.3921296296296296;-0.11388888888888889;1;0;0;5.089.884.699.999.850;call3;-0.000462962962962963;0.10416666666666667;1;0;0;5.534.664.299.999.800;colour2;0.3787037037037037;0.30972222222222223;1;0;0;5.968.529.799.999.940;number1;TRUE;TRUE;TRUE;1;1;2019_Nov_07_1551;MA_Theta_Exp;3.0.7;60.171.331.850.314.400
video/Experiment/zh_sp07_Un_Ge_2_NVocInAudio_GlobalThetaInVideo.avi;vocoded;plusVideo;sp07;Un;Ge;2;0;1;flow/blocks/NVocInAudio_GlobalThetaInVideo_B.csv;;;;;;;;;;;;;;;;;0;0;0;0;0;15;15;17;-0.3990740740740741;-0.30416666666666664;1;0;0;4.240.692.799.999.570;call4;0.07175925925925926;0.30833333333333335;1;0;0;492.392.289.999.998;colour1;0.41759259259259257;0.05277777777777778;1;0;0;5.408.943.400.000.220;number2;TRUE;TRUE;TRUE;1;1;2019_Nov_07_1551;MA_Theta_Exp;3.0.7;60.171.331.850.314.400
video/Experiment/zh_sp07_Un_Gr_4_NVocInAudio_GlobalThetaInVideo.avi;vocoded;plusVideo;sp07;Un;Gr;4;0;1;flow/blocks/NVocInAudio_GlobalThetaInVideo_B.csv;;;;;;;;;;;;;;;;;0;0;0;0;0;16;16;23;-0.40324074074074073;-0.33611111111111114;1;0;0;47.043.023.999.999.600;call4;-0.03796296296296296;0.1486111111111111;1;0;0;53.211.474.999.998.200;colour2;0.4217592592592593;-0.30833333333333335;1;0;0;5.907.868.100.000.080;number4;TRUE;TRUE;TRUE;1;1;2019_Nov_07_1551;MA_Theta_Exp;3.0.7;60.171.331.850.314.400
video/Experiment/zh_sp07_Un_Ro_1_NVocInAudio_GlobalThetaInVideo.avi;vocoded;plusVideo;sp07;Un;Ro;1;0;1;flow/blocks/NVocInAudio_GlobalThetaInVideo_B.csv;;;;;;;;;;;;;;;;;0;0;0;0;0;17;17;24;-0.425462962962963;-0.3458333333333333;1;0;0;53.103.658.999.998.500;call4;-0.012962962962962963;-0.1486111111111111;1;0;0;5.811.211.400.000.040;colour3;0.36898148148148147;0.2986111111111111;1;0;0;6.313.409.899.999.890;number1;TRUE;TRUE;TRUE;1;1;2019_Nov_07_1551;MA_Theta_Exp;3.0.7;60.171.331.850.314.400
video/Experiment/zh_sp01_Un_Ge_4_NVocInAudio_GlobalThetaInVideo.avi;vocoded;plusVideo;sp01;Un;Ge;4;0;1;flow/blocks/NVocInAudio_GlobalThetaInVideo_B.csv;;;;;;;;;;;;;;;;;0;0;0;0;0;18;18;19;-0.3921296296296296;-0.30972222222222223;1;0;0;5.114.919.999.999.980;call4;-0.024074074074074074;0.3458333333333333;1;0;0;5.681.781.799.999.950;colour1;0.42314814814814816;-0.3472222222222222;1;0;0;6.381.195.099.999.780;number4;TRUE;TRUE;TRUE;1;1;2019_Nov_07_1551;MA_Theta_Exp;3.0.7;60.171.331.850.314.400
video/Experiment/zh_sp01_Un_Ro_4_NVocInAudio_GlobalThetaInVideo.avi;vocoded;plusVideo;sp01;Un;Ro;4;0;1;flow/blocks/NVocInAudio_GlobalThetaInVideo_B.csv;;;;;;;;;;;;;;;;;0;0;0;0;0;19;19;27;-0.3768518518518518;-0.3333333333333333;1;0;0;5.167.838.899.999.870;call4;0.009259259259259259;0.26666666666666666;1;0;0;6.249.649.599.999.880;colour1;0.37592592592592594;-0.2625;1;0;0;6.834.110.399.999.640;number4;TRUE;FALSE;TRUE;1;1;2019_Nov_07_1551;MA_Theta_Exp;3.0.7;60.171.331.850.314.400
video/Experiment/zh_sp01_Ti_Ge_2_NVocInAudio_GlobalThetaInVideo.avi;vocoded;plusVideo;sp01;Ti;Ge;2;0;1;flow/blocks/NVocInAudio_GlobalThetaInVideo_B.csv;;;;;;;;;;;;;;;;;0;0;0;0;0;20;20;1;-0.4115740740740741;-0.13472222222222222;1;0;0;5.078.771.399.999.820;call3;0.00787037037037037;0.3111111111111111;1;0;0;561.674.929.999.981;colour1;0.4064814814814815;0.10833333333333334;1;0;0;6.014.340.100.000.020;number2;TRUE;TRUE;TRUE;1;1;2019_Nov_07_1551;MA_Theta_Exp;3.0.7;60.171.331.850.314.400
video/Experiment/zh_sp07_Ti_We_1_NVocInAudio_GlobalThetaInVideo.avi;vocoded;plusVideo;sp07;Ti;We;1;0;1;flow/blocks/NVocInAudio_GlobalThetaInVideo_B.csv;;;;;;;;;;;;;;;;;0;0;0;0;0;21;21;12;-0.42407407407407405;-0.0875;1;0;0;4.262.331.499.999.610;call3;-0.024074074074074074;-0.3277777777777778;1;0;0;4.695.671.800.000.120;colour4;0.35648148148148145;0.2361111111111111;1;0;0;52.620.701.999.999.200;number1;TRUE;TRUE;TRUE;1;1;2019_Nov_07_1551;MA_Theta_Exp;3.0.7;60.171.331.850.314.400
video/Experiment/zh_sp07_Ti_Gr_3_NVocInAudio_GlobalThetaInVideo.avi;vocoded;plusVideo;sp07;Ti;Gr;3;0;1;flow/blocks/NVocInAudio_GlobalThetaInVideo_B.csv;;;;;;;;;;;;;;;;;0;0;0;0;0;22;22;6;-0.37407407407407406;-0.10694444444444444;1;0;0;4.343.416.000.000.160;call3;-0.05324074074074074;0.09722222222222222;1;0;0;4.810.396.100.000.160;colour2;0.37453703703703706;-0.06944444444444445;1;0;0;53.289.151.000.003.500;number3;TRUE;TRUE;TRUE;1;1;2019_Nov_07_1551;MA_Theta_Exp;3.0.7;60.171.331.850.314.400
video/Experiment/zh_sp07_Ti_We_3_NVocInAudio_GlobalThetaInVideo.avi;vocoded;plusVideo;sp07;Ti;We;3;0;1;flow/blocks/NVocInAudio_GlobalThetaInVideo_B.csv;;;;;;;;;;;;;;;;;0;0;0;0;0;23;23;14;-0.4351851851851852;-0.09305555555555556;1;0;0;4.472.120.999.999.780;call3;-0.000462962962962963;-0.30833333333333335;1;0;0;4.986.107.499.999.880;colour4;0.42314814814814816;-0.05138888888888889;1;0;0;5.502.963.800.000.080;number3;TRUE;TRUE;TRUE;1;1;2019_Nov_07_1551;MA_Theta_Exp;3.0.7;60.171.331.850.314.400
video/Experiment/zh_sp01_Ti_We_2_NVocInAudio_GlobalThetaInVideo.avi;vocoded;plusVideo;sp01;Ti;We;2;0;1;flow/blocks/NVocInAudio_GlobalThetaInVideo_B.csv;;;;;;;;;;;;;;;;;0;0;0;0;0;24;24;13;-0.4351851851851852;-0.0875;1;0;0;5.031.464.400.000.000;call3;-0.04490740740740741;-0.3;1;0;0;5.481.930.999.999.800;colour4;0.3800925925925926;0.04722222222222222;1;0;0;59.480.138.000.003.500;number2;TRUE;TRUE;TRUE;1;1;2019_Nov_07_1551;MA_Theta_Exp;3.0.7;60.171.331.850.314.400
video/Experiment/zh_sp01_Un_Ro_2_NVocInAudio_GlobalThetaInVideo.avi;vocoded;plusVideo;sp01;Un;Ro;2;0;1;flow/blocks/NVocInAudio_GlobalThetaInVideo_B.csv;;;;;;;;;;;;;;;;;0;0;0;0;0;25;25;25;-0.412962962962963;-0.3416666666666667;1;0;0;5.143.001.500.000.080;call4;-0.08101851851851852;-0.1111111111111111;1;0;0;5.576.520.300.000.080;colour3;0.462037037037037;0.14583333333333334;1;0;0;6.127.772.399.999.680;number2;TRUE;TRUE;TRUE;1;1;2019_Nov_07_1551;MA_Theta_Exp;3.0.7;60.171.331.850.314.400
video/Experiment/zh_sp07_Ti_Gr_2_NVocInAudio_GlobalThetaInVideo.avi;vocoded;plusVideo;sp07;Ti;Gr;2;0;1;flow/blocks/NVocInAudio_GlobalThetaInVideo_B.csv;;;;;;;;;;;;;;;;;0;0;0;0;0;26;26;5;-0.45046296296296295;-0.10972222222222222;1;0;0;47.318.663.000.000.900;call3;0.038425925925925926;0.1;1;0;0;52.465.572.000.000.900;colour2;0.4787037037037037;0.14305555555555555;1;0;0;5.646.714.299.999.980;number2;TRUE;TRUE;TRUE;1;1;2019_Nov_07_1551;MA_Theta_Exp;3.0.7;60.171.331.850.314.400
video/Experiment/zh_sp01_Ti_Ro_1_NVocInAudio_GlobalThetaInVideo.avi;vocoded;plusVideo;sp01;Ti;Ro;1;0;1;flow/blocks/NVocInAudio_GlobalThetaInVideo_B.csv;;;;;;;;;;;;;;;;;0;0;0;0;0;27;27;8;-0.40046296296296297;-0.13194444444444445;1;0;0;5.220.878.900.000.110;call3;0.037037037037037035;-0.1;1;0;0;5.587.556.500.000.110;colour3;0.4217592592592593;0.24166666666666667;1;0;0;6.059.459.900.000.090;number1;TRUE;TRUE;TRUE;1;1;2019_Nov_07_1551;MA_Theta_Exp;3.0.7;60.171.331.850.314.400
video/Experiment/zh_sp01_Un_Ro_3_NVocInAudio_GlobalThetaInVideo.avi;vocoded;plusVideo;sp01;Un;Ro;3;0;1;flow/blocks/NVocInAudio_GlobalThetaInVideo_B.csv;;;;;;;;;;;;;;;;;0;0;0;0;0;28;28;26;-0.3574074074074074;-0.34305555555555556;1;0;0;55.043.498;call4;-0.018518518518518517;-0.10833333333333334;1;0;0;5.927.425.099.999.700;colour3;0.37453703703703706;-0.14305555555555555;1;0;0;6.371.293.799.999.870;number3;TRUE;TRUE;TRUE;1;1;2019_Nov_07_1551;MA_Theta_Exp;3.0.7;60.171.331.850.314.400
video/Experiment/zh_sp01_Un_Gr_1_NVocInAudio_GlobalThetaInVideo.avi;vocoded;plusVideo;sp01;Un;Gr;1;0;1;flow/blocks/NVocInAudio_GlobalThetaInVideo_B.csv;;;;;;;;;;;;;;;;;0;0;0;0;0;29;29;20;-0.39351851851851855;-0.33194444444444443;1;0;0;515.440.129.999.979;call4;0.053703703703703705;0.06944444444444445;1;0;0;5.656.075.599.999.890;colour2;0.3662037037037037;0.28888888888888886;1;0;0;623.794.369.999.996;number1;TRUE;TRUE;TRUE;1;1;2019_Nov_07_1551;MA_Theta_Exp;3.0.7;60.171.331.850.314.400
video/Experiment/zh_sp01_Ti_Ge_1_NVocInAudio_GlobalThetaInVideo.avi;vocoded;plusVideo;sp01;Ti;Ge;1;0;1;flow/blocks/NVocInAudio_GlobalThetaInVideo_B.csv;;;;;;;;;;;;;;;;;0;0;0;0;0;30;30;0;-0.4393518518518518;-0.14166666666666666;1;0;0;5.189.151.600.000.050;call3;0.024537037037037038;0.2875;1;0;0;5.689.817.699.999.820;colour1;0.4148148148148148;0.34444444444444444;1;0;0;6.110.641.000.000.210;number1;TRUE;TRUE;TRUE;1;1;2019_Nov_07_1551;MA_Theta_Exp;3.0.7;60.171.331.850.314.400
video/Experiment/zh_sp07_Ti_We_4_NVocInAudio_GlobalThetaInVideo.avi;vocoded;plusVideo;sp07;Ti;We;4;0;1;flow/blocks/NVocInAudio_GlobalThetaInVideo_B.csv;;;;;;;;;;;;;;;;;0;0;0;0;0;31;31;15;-0.41574074074074074;-0.10972222222222222;1;0;0;4.412.456.099.999.870;call3;0.060648148148148145;-0.35694444444444445;1;0;0;4.912.392.400.000.040;colour4;0.43703703703703706;-0.26666666666666666;1;0;0;53.628.303.000.000.400;number4;TRUE;TRUE;TRUE;1;1;2019_Nov_07_1551;MA_Theta_Exp;3.0.7;60.171.331.850.314.400
video/Experiment/zh_sp01_Ti_Gr_3_NoThetaInAudio_NoVideo.avi;noTheta;noVideo;sp01;Ti;Gr;3;1;4;flow/blocks/NoThetaInAudio_NoVideo_B.csv;;;;;;;;;;;;;;;;;0;1;1;1;0;0;0;6;-0.40046296296296297;-0.07083333333333333;1;0;0;4.893.607.299.999.980;call3;-0.012962962962962963;0.10694444444444444;1;0;0;5.356.831.600.000.070;colour2;0.37037037037037035;-0.13055555555555556;1;0;0;6.939.918.000.000.030;number3;TRUE;TRUE;TRUE;1;1;2019_Nov_07_1551;MA_Theta_Exp;3.0.7;60.171.331.850.314.400
video/Experiment/zh_sp07_Un_Ro_1_NoThetaInAudio_NoVideo.avi;noTheta;noVideo;sp07;Un;Ro;1;1;4;flow/blocks/NoThetaInAudio_NoVideo_B.csv;;;;;;;;;;;;;;;;;0;1;1;1;0;1;1;24;-0.3837962962962963;-0.4097222222222222;1;0;0;4.499.699.299.999.970;call4;0.0023148148148148147;-0.08055555555555556;1;0;0;5.952.105.700.000.170;colour3;0.3509259259259259;0.21805555555555556;1;0;0;6.436.044.699.999.910;number1;TRUE;TRUE;TRUE;1;1;2019_Nov_07_1551;MA_Theta_Exp;3.0.7;60.171.331.850.314.400
video/Experiment/zh_sp07_Un_Gr_3_NoThetaInAudio_NoVideo.avi;noTheta;noVideo;sp07;Un;Gr;3;1;4;flow/blocks/NoThetaInAudio_NoVideo_B.csv;;;;;;;;;;;;;;;;;0;1;1;1;0;2;2;22;-0.3962962962962963;-0.12777777777777777;1;0;0;4.473.868.300.000.040;call3;-0.032407407407407406;0.09166666666666666;1;0;0;4.961.081.500.000.090;colour2;0.3537037037037037;-0.07916666666666666;1;0;0;5.394.911.599.999.880;number3;FALSE;TRUE;TRUE;1;1;2019_Nov_07_1551;MA_Theta_Exp;3.0.7;60.171.331.850.314.400
video/Experiment/zh_sp01_Ti_Ge_3_NoThetaInAudio_NoVideo.avi;noTheta;noVideo;sp01;Ti;Ge;3;1;4;flow/blocks/NoThetaInAudio_NoVideo_B.csv;;;;;;;;;;;;;;;;;0;1;1;1;0;3;3;2;-0.42962962962962964;-0.1125;1;0;0;5.019.878.600.000.080;call3;0.02175925925925926;0.29444444444444445;1;0;0;5.586.331.900.000.000;colour1;0.3578703703703704;-0.04583333333333333;1;0;0;6.119.872.900.000.240;number3;TRUE;TRUE;TRUE;1;1;2019_Nov_07_1551;MA_Theta_Exp;3.0.7;60.171.331.850.314.400
video/Experiment/zh_sp07_Un_Gr_4_NoThetaInAudio_NoVideo.avi;noTheta;noVideo;sp07;Un;Gr;4;1;4;flow/blocks/NoThetaInAudio_NoVideo_B.csv;;;;;;;;;;;;;;;;;0;1;1;1;0;4;4;23;-0.32685185185185184;-0.3;1;0;0;4.331.076.999.999.820;call4;-0.022685185185185187;0.05138888888888889;1;0;0;4.768.150.699.999.750;colour2;0.35648148148148145;-0.2375;1;0;0;5.212.310.400.000.200;number4;TRUE;TRUE;TRUE;1;1;2019_Nov_07_1551;MA_Theta_Exp;3.0.7;60.171.331.850.314.400
video/Experiment/zh_sp01_Un_Ro_2_NoThetaInAudio_NoVideo.avi;noTheta;noVideo;sp01;Un;Ro;2;1;4;flow/blocks/NoThetaInAudio_NoVideo_B.csv;;;;;;;;;;;;;;;;;0;1;1;1;0;5;5;25;-0.40185185185185185;-0.3013888888888889;1;0;0;4.969.306.599.999.980;call4;0.0023148148148148147;-0.1388888888888889;1;0;0;5.430.700.599.999.900;colour3;0.337037037037037;0.09722222222222222;1;0;0;5.883.039.300.000.290;number2;TRUE;TRUE;TRUE;1;1;2019_Nov_07_1551;MA_Theta_Exp;3.0.7;60.171.331.850.314.400
video/Experiment/zh_sp01_Ti_Ro_1_NoThetaInAudio_NoVideo.avi;noTheta;noVideo;sp01;Ti;Ro;1;1;4;flow/blocks/NoThetaInAudio_NoVideo_B.csv;;;;;;;;;;;;;;;;;0;1;1;1;0;6;6;8;-0.4546296296296296;-0.11666666666666667;1;0;0;50.740.326.000.000.000;call3;-0.0712962962962963;-0.09305555555555556;1;0;0;550.484.490.000.008;colour3;0.3787037037037037;0.26666666666666666;1;0;0;6.271.863.899.999.970;number1;TRUE;TRUE;TRUE;1;1;2019_Nov_07_1551;MA_Theta_Exp;3.0.7;60.171.331.850.314.400
