TrialID,NFB_digit1,NFB_digit2,NFB_digit3,practice_block.thisRepN,practice_block.thisTrialN,practice_block.thisN,practice_block.thisIndex,practice_trials.thisRepN,practice_trials.thisTrialN,practice_trials.thisN,practice_trials.thisIndex,response_practice.thisRepN,response_practice.thisTrialN,response_practice.thisN,response_practice.thisIndex,calibration_block.thisRepN,calibration_block.thisTrialN,calibration_block.thisN,calibration_block.thisIndex,experimental_block.thisRepN,experimental_block.thisTrialN,experimental_block.thisN,experimental_block.thisIndex,exp_trials.thisRepN,exp_trials.thisTrialN,exp_trials.thisN,exp_trials.thisIndex,response_exp.thisRepN,response_exp.thisTrialN,response_exp.thisN,response_exp.thisIndex,Digit1_clear.started,Digit1_clear.stopped,Digit2_clear.started,Digit2_clear.stopped,Digit3_clear.started,Digit3_clear.stopped,key_resp_3.keys,key_resp_3.rt,key_resp_3.started,key_resp_3.stopped,text_4.started,text_4.stopped,text_5.started,text_5.stopped,Begin.started,Begin.stopped,Fixation.started,Fixation.stopped,text_6.started,text_6.stopped,text_2.started,text_2.stopped,text_7.started,text_7.stopped,text_8.started,text_8.stopped,sound_digit1.started,sound_digit1.stopped,sound_digit2.started,sound_digit2.stopped,sound_digit3.started,sound_digit3.stopped,key_resp.keys,key_resp.rt,key_resp.started,key_resp.stopped,Begin_3.started,Begin_3.stopped,participant,session,date,expName,psychopyVersion,frameRate,
0.0,6.0,2.0,4.0,0,0,0,0,0,0,0,0,0,0,0,0,,,,,,,,,,,,,,,,,0.011322939972160384,None,0.4726442399842199,None,0.9572408399835695,None,"['num_4', 'return']","[0.5379336000187322, 0.6737896999984514]",18.32275260001188,None,,,,,,,,,,,,,,,,,,,,,,,,,,,,,1,001,2021_Oct_22_1643,eeg_contingent_digits,2021.2.3,60.370432968567115,
0.0,6.0,2.0,4.0,0,0,0,0,0,0,0,0,1,0,1,0,,,,,,,,,,,,,,,,,,,,,,,"['num_4', 'return']","[0.10772560001350939, 0.23622720001731068]",19.0158783000079,None,,,,,,,,,,,,,,,,,,,,,,,,,,,,,1,001,2021_Oct_22_1643,eeg_contingent_digits,2021.2.3,60.370432968567115,
0.0,6.0,2.0,4.0,0,0,0,0,0,0,0,0,2,0,2,0,,,,,,,,,,,,,,,,,,,,,,,"['num_4', 'return']","[0.10522599998512305, 0.18498839999665506]",19.282657700008713,None,,,,,,,,,,,,,,,,,,,,,,,,,,,,,1,001,2021_Oct_22_1643,eeg_contingent_digits,2021.2.3,60.370432968567115,
0.0,6.0,2.0,4.0,0,0,0,0,0,0,0,0,,,,,,,,,,,,,,,,,,,,,,,,,,,,,,,,,,,,,,,,,,,,,,,,,,,,,,,,,,,1,001,2021_Oct_22_1643,eeg_contingent_digits,2021.2.3,60.370432968567115,
1.0,1.0,9.0,3.0,0,0,0,0,0,1,1,1,0,0,0,0,,,,,,,,,,,,,,,,,0.0005607699858956039,None,0.48302506998879835,None,0.9677240700111724,None,"['num_4', 'return']","[0.4124780000129249, 0.5168425000156276]",20.967645700002322,None,,,,,,,,,,,,,,,,,,,,,,,,,,,,,1,001,2021_Oct_22_1643,eeg_contingent_digits,2021.2.3,60.370432968567115,
1.0,1.0,9.0,3.0,0,0,0,0,0,1,1,1,1,0,1,0,,,,,,,,,,,,,,,,,,,,,,,"['num_4', 'return']","[0.07744990001083352, 0.17159760001231916]",21.520231900009094,None,,,,,,,,,,,,,,,,,,,,,,,,,,,,,1,001,2021_Oct_22_1643,eeg_contingent_digits,2021.2.3,60.370432968567115,
1.0,1.0,9.0,3.0,0,0,0,0,0,1,1,1,2,0,2,0,,,,,,,,,,,,,,,,,,,,,,,"['num_4', 'return']","[0.07050070000695996, 0.14961449999827892]",21.717853300011484,None,,,,,,,,,,,,,,,,,,,,,,,,,,,,,1,001,2021_Oct_22_1643,eeg_contingent_digits,2021.2.3,60.370432968567115,
1.0,1.0,9.0,3.0,0,0,0,0,0,1,1,1,,,,,,,,,,,,,,,,,,,,,,,,,,,,,,,,,,,,,,,,,,,,,,,,,,,,,,,,,,,1,001,2021_Oct_22_1643,eeg_contingent_digits,2021.2.3,60.370432968567115,
2.0,8.0,0.0,1.0,0,0,0,0,0,2,2,2,0,0,0,0,,,,,,,,,,,,,,,,,0.000688269967213273,None,0.48516726997331716,None,0.9522415699902922,None,"['num_4', 'return']","[0.2745895000116434, 0.38621530000818893]",23.353565500001423,None,,,,,,,,,,,,,,,,,,,,,,,,,,,,,1,001,2021_Oct_22_1643,eeg_contingent_digits,2021.2.3,60.370432968567115,
2.0,8.0,0.0,1.0,0,0,0,0,0,2,2,2,1,0,1,0,,,,,,,,,,,,,,,,,,,,,,,"['num_4', 'return']","[0.063353300007293, 0.184530900005484]",23.780252500000643,None,,,,,,,,,,,,,,,,,,,,,,,,,,,,,1,001,2021_Oct_22_1643,eeg_contingent_digits,2021.2.3,60.370432968567115,
2.0,8.0,0.0,1.0,0,0,0,0,0,2,2,2,2,0,2,0,,,,,,,,,,,,,,,,,,,,,,,"['num_4', 'return']","[0.04912219999823719, 0.1134394999826327]",23.987002300011227,None,,,,,,,,,,,,,,,,,,,,,,,,,,,,,1,001,2021_Oct_22_1643,eeg_contingent_digits,2021.2.3,60.370432968567115,
2.0,8.0,0.0,1.0,0,0,0,0,0,2,2,2,,,,,,,,,,,,,,,,,,,,,,,,,,,,,,,,,,,,,,,,,,,,,,,,,,,,,,,,,,,1,001,2021_Oct_22_1643,eeg_contingent_digits,2021.2.3,60.370432968567115,
3.0,9.0,6.0,1.0,0,0,0,0,0,3,3,3,0,0,0,0,,,,,,,,,,,,,,,,,0.0002676699950825423,None,0.46833066997351125,None,0.9569046699907631,None,"['num_4', 'return']","[0.39188590002595447, 0.4734335000102874]",25.571619599999394,None,,,,,,,,,,,,,,,,,,,,,,,,,,,,,1,001,2021_Oct_22_1643,eeg_contingent_digits,2021.2.3,60.370432968567115,
3.0,9.0,6.0,1.0,0,0,0,0,0,3,3,3,1,0,1,0,,,,,,,,,,,,,,,,,,,,,,,['return'],[0.1802670000179205],26.07199050000054,None,,,,,,,,,,,,,,,,,,,,,,,,,,,,,1,001,2021_Oct_22_1643,eeg_contingent_digits,2021.2.3,60.370432968567115,
3.0,9.0,6.0,1.0,0,0,0,0,0,3,3,3,2,0,2,0,,,,,,,,,,,,,,,,,,,,,,,"['num_4', 'return']","[0.08602919999975711, 0.11769310000818223]",26.269817199994577,None,,,,,,,,,,,,,,,,,,,,,,,,,,,,,1,001,2021_Oct_22_1643,eeg_contingent_digits,2021.2.3,60.370432968567115,
3.0,9.0,6.0,1.0,0,0,0,0,0,3,3,3,,,,,,,,,,,,,,,,,,,,,,,,,,,,,,,,,,,,,,,,,,,,,,,,,,,,,,,,,,,1,001,2021_Oct_22_1643,eeg_contingent_digits,2021.2.3,60.370432968567115,
4.0,8.0,1.0,5.0,0,0,0,0,0,4,4,4,0,0,0,0,,,,,,,,,,,,,,,,,0.0011689700186252594,None,0.49189577001379803,None,0.9696106700284872,None,"['num_4', 'return']","[0.4009592999937013, 0.4894952999893576]",27.883029999997234,None,,,,,,,,,,,,,,,,,,,,,,,,,,,,,1,001,2021_Oct_22_1643,eeg_contingent_digits,2021.2.3,60.370432968567115,
4.0,8.0,1.0,5.0,0,0,0,0,0,4,4,4,1,0,1,0,,,,,,,,,,,,,,,,,,,,,,,"['num_4', 'return']","[0.06880820001242682, 0.14939579999190755]",28.40700740000466,None,,,,,,,,,,,,,,,,,,,,,,,,,,,,,1,001,2021_Oct_22_1643,eeg_contingent_digits,2021.2.3,60.370432968567115,
4.0,8.0,1.0,5.0,0,0,0,0,0,4,4,4,2,0,2,0,,,,,,,,,,,,,,,,,,,,,,,"['num_4', 'return']","[0.062383799988310784, 0.12659880000865087]",28.59079099999508,None,,,,,,,,,,,,,,,,,,,,,,,,,,,,,1,001,2021_Oct_22_1643,eeg_contingent_digits,2021.2.3,60.370432968567115,
4.0,8.0,1.0,5.0,0,0,0,0,0,4,4,4,,,,,,,,,,,,,,,,,,,,,,,,,,,,,,,,,,,,,,,,,,,,,,,,,,,,,,,,,,,1,001,2021_Oct_22_1643,eeg_contingent_digits,2021.2.3,60.370432968567115,
5.0,4.0,1.0,0.0,0,0,0,0,0,5,5,5,0,0,0,0,,,,,,,,,,,,,,,,,0.0010088699928019196,None,0.4839587699971162,None,0.9746773699880578,None,"['num_4', 'return']","[0.6177084999799263, 0.7060008999833371]",30.21816369998851,None,,,,,,,,,,,,,,,,,,,,,,,,,,,,,1,001,2021_Oct_22_1643,eeg_contingent_digits,2021.2.3,60.370432968567115,
5.0,4.0,1.0,0.0,0,0,0,0,0,5,5,5,1,0,1,0,,,,,,,,,,,,,,,,,,,,,,,"['num_4', 'return']","[0.07223380001960322, 0.14372009999351576]",30.96393729999545,None,,,,,,,,,,,,,,,,,,,,,,,,,,,,,1,001,2021_Oct_22_1643,eeg_contingent_digits,2021.2.3,60.370432968567115,
5.0,4.0,1.0,0.0,0,0,0,0,0,5,5,5,2,0,2,0,,,,,,,,,,,,,,,,,,,,,,,"['num_4', 'return']","[0.06783240000368096, 0.11661050000111572]",31.143525999999838,None,,,,,,,,,,,,,,,,,,,,,,,,,,,,,1,001,2021_Oct_22_1643,eeg_contingent_digits,2021.2.3,60.370432968567115,
5.0,4.0,1.0,0.0,0,0,0,0,0,5,5,5,,,,,,,,,,,,,,,,,,,,,,,,,,,,,,,,,,,,,,,,,,,,,,,,,,,,,,,,,,,1,001,2021_Oct_22_1643,eeg_contingent_digits,2021.2.3,60.370432968567115,
6.0,9.0,2.0,6.0,0,0,0,0,0,6,6,6,0,0,0,0,,,,,,,,,,,,,,,,,0.00601956999162212,None,0.4859076699940488,None,0.9626576699956786,None,"['num_4', 'return']","[0.4734177000063937, 0.5696923999930732]",32.73841690001427,None,,,,,,,,,,,,,,,,,,,,,,,,,,,,,1,001,2021_Oct_22_1643,eeg_contingent_digits,2021.2.3,60.370432968567115,
6.0,9.0,2.0,6.0,0,0,0,0,0,6,6,6,1,0,1,0,,,,,,,,,,,,,,,,,,,,,,,"['num_4', 'return']","[0.0759091000072658, 0.1641898000088986]",33.32818810001481,None,,,,,,,,,,,,,,,,,,,,,,,,,,,,,1,001,2021_Oct_22_1643,eeg_contingent_digits,2021.2.3,60.370432968567115,
6.0,9.0,2.0,6.0,0,0,0,0,0,6,6,6,2,0,2,0,,,,,,,,,,,,,,,,,,,,,,,['num_4'],[0.06740470000659116],33.512534400011646,None,,,,,,,,,,,,,,,,,,,,,,,,,,,,,1,001,2021_Oct_22_1643,eeg_contingent_digits,2021.2.3,60.370432968567115,
6.0,9.0,2.0,6.0,0,0,0,0,0,6,6,6,,,,,,,,,,,,,,,,,,,,,,,,,,,,,,,,,,,,,,,,,,,,,,,,,,,,,,,,,,,1,001,2021_Oct_22_1643,eeg_contingent_digits,2021.2.3,60.370432968567115,
7.0,2.0,3.0,0.0,0,0,0,0,0,7,7,7,0,0,0,0,,,,,,,,,,,,,,,,,0.010362469998653978,None,0.48783366999123245,None,0.9546735699987039,None,"['num_4', 'return']","[0.3309589000127744, 0.42608890001429245]",35.121475199994165,None,,,,,,,,,,,,,,,,,,,,,,,,,,,,,1,001,2021_Oct_22_1643,eeg_contingent_digits,2021.2.3,60.370432968567115,
7.0,2.0,3.0,0.0,0,0,0,0,0,7,7,7,1,0,1,0,,,,,,,,,,,,,,,,,,,,,,,"['num_4', 'return']","[0.04529719997663051, 0.1414879999938421]",35.590500199992675,None,,,,,,,,,,,,,,,,,,,,,,,,,,,,,1,001,2021_Oct_22_1643,eeg_contingent_digits,2021.2.3,60.370432968567115,
7.0,2.0,3.0,0.0,0,0,0,0,0,7,7,7,2,0,2,0,,,,,,,,,,,,,,,,,,,,,,,"['num_4', 'return']","[0.048684600013075396, 0.1295133999956306]",35.763109599996824,None,,,,,,,,,,,,,,,,,,,,,,,,,,,,,1,001,2021_Oct_22_1643,eeg_contingent_digits,2021.2.3,60.370432968567115,
7.0,2.0,3.0,0.0,0,0,0,0,0,7,7,7,,,,,,,,,,,,,,,,,,,,,,,,,,,,,,,,,,,,,,,,,,,,,,,,,,,,,,,,,,,1,001,2021_Oct_22_1643,eeg_contingent_digits,2021.2.3,60.370432968567115,
8.0,1.0,9.0,2.0,0,0,0,0,0,8,8,8,0,0,0,0,,,,,,,,,,,,,,,,,0.0005971700011286885,None,0.490837970020948,None,0.9516017700079829,None,"['num_4', 'return']","[0.39929970001685433, 0.47948510001879185]",37.36440739998943,None,,,,,,,,,,,,,,,,,,,,,,,,,,,,,1,001,2021_Oct_22_1643,eeg_contingent_digits,2021.2.3,60.370432968567115,
8.0,1.0,9.0,2.0,0,0,0,0,0,8,8,8,1,0,1,0,,,,,,,,,,,,,,,,,,,,,,,"['num_4', 'return']","[0.07498269999632612, 0.17120030001387931]",37.86477200000081,None,,,,,,,,,,,,,,,,,,,,,,,,,,,,,1,001,2021_Oct_22_1643,eeg_contingent_digits,2021.2.3,60.370432968567115,
8.0,1.0,9.0,2.0,0,0,0,0,0,8,8,8,2,0,2,0,,,,,,,,,,,,,,,,,,,,,,,"['num_4', 'return']","[0.03337889999966137, 0.08944480001810007]",38.0662755999947,None,,,,,,,,,,,,,,,,,,,,,,,,,,,,,1,001,2021_Oct_22_1643,eeg_contingent_digits,2021.2.3,60.370432968567115,
8.0,1.0,9.0,2.0,0,0,0,0,0,8,8,8,,,,,,,,,,,,,,,,,,,,,,,,,,,,,,,,,,,,,,,,,,,,,,,,,,,,,,,,,,,1,001,2021_Oct_22_1643,eeg_contingent_digits,2021.2.3,60.370432968567115,
9.0,8.0,1.0,0.0,0,0,0,0,0,9,9,9,0,0,0,0,,,,,,,,,,,,,,,,,0.01583353997557424,None,0.49914463999448344,None,0.9654251399915665,None,"['num_4', 'return']","[0.25095330001204275, 0.37183059999370016]",39.64158470000257,None,,,,,,,,,,,,,,,,,,,,,,,,,,,,,1,001,2021_Oct_22_1643,eeg_contingent_digits,2021.2.3,60.370432968567115,
9.0,8.0,1.0,0.0,0,0,0,0,0,9,9,9,1,0,1,0,,,,,,,,,,,,,,,,,,,,,,,"['num_4', 'return']","[0.047738199995364994, 0.16771589999552816]",40.035926799988374,None,,,,,,,,,,,,,,,,,,,,,,,,,,,,,1,001,2021_Oct_22_1643,eeg_contingent_digits,2021.2.3,60.370432968567115,
9.0,8.0,1.0,0.0,0,0,0,0,0,9,9,9,2,0,2,0,,,,,,,,,,,,,,,,,,,,,,,"['num_4', 'return']","[0.01780269999289885, 0.12215730000752956]",40.23387470000307,None,,,,,,,,,,,,,,,,,,,,,,,,,,,,,1,001,2021_Oct_22_1643,eeg_contingent_digits,2021.2.3,60.370432968567115,
9.0,8.0,1.0,0.0,0,0,0,0,0,9,9,9,,,,,,,,,,,,,,,,,,,,,,,,,,,,,,,,,,,,,,,,,,,,,,,,,,,,,,,,,,,1,001,2021_Oct_22_1643,eeg_contingent_digits,2021.2.3,60.370432968567115,
,,,,0,0,0,0,,,,,,,,,,,,,,,,,,,,,,,,,,,,,,,,,,,40.38091649999842,None,,,,,,,,,,,,,,,,,,,,,,,,,,,1,001,2021_Oct_22_1643,eeg_contingent_digits,2021.2.3,60.370432968567115,
,,,,,,,,,,,,,,,,0,0,0,0,,,,,,,,,,,,,,,,,,,,,,,,,56.47282270001597,None,,,,,,,,,,,,,,,,,,,,,,,,,1,001,2021_Oct_22_1643,eeg_contingent_digits,2021.2.3,60.370432968567115,
0.0,5.0,4.0,1.0,,,,,,,,,,,,,,,,,0,0,0,0,0,0,0,0,0,0,0,0,,,,,,,,,,,,,,,66.48609970000689,None,69.39402760000667,None,69.39402760000667,None,69.39402760000667,None,69.39402760000667,None,69.39402760000667,None,0.0021476699912454933,None,0.46792496999842115,None,0.9506187700026203,None,"['num_4', 'return']","[0.7662750000017695, 0.9347229000122752]",74.02181539998855,None,,,1,001,2021_Oct_22_1643,eeg_contingent_digits,2021.2.3,60.370432968567115,
0.0,5.0,4.0,1.0,,,,,,,,,,,,,,,,,0,0,0,0,0,0,0,0,1,0,1,0,,,,,,,,,,,,,,,,,,,,,,,,,,,,,,,,,"['num_4', 'return']","[0.1769629999762401, 0.33565079999971204]",74.97958549999748,None,,,1,001,2021_Oct_22_1643,eeg_contingent_digits,2021.2.3,60.370432968567115,
0.0,5.0,4.0,1.0,,,,,,,,,,,,,,,,,0,0,0,0,0,0,0,0,2,0,2,0,,,,,,,,,,,,,,,,,,,,,,,,,,,,,,,,,"['num_4', 'return']","[0.14331519999541342, 0.2875549000164028]",75.34847699999227,None,,,1,001,2021_Oct_22_1643,eeg_contingent_digits,2021.2.3,60.370432968567115,
0.0,5.0,4.0,1.0,,,,,,,,,,,,,,,,,0,0,0,0,0,0,0,0,,,,,,,,,,,,,,,,,,,,,,,,,,,,,,,,,,,,,,,,,None,None,1,001,2021_Oct_22_1643,eeg_contingent_digits,2021.2.3,60.370432968567115,
1.0,5.0,8.0,2.0,,,,,,,,,,,,,,,,,0,0,0,0,0,1,1,1,0,0,0,0,,,,,,,,,,,,,,,,,75.67691660000128,None,75.67691660000128,None,75.67691660000128,None,75.67691660000128,None,75.67691660000128,None,0.011740139976609498,None,0.4868125399807468,None,0.9704717399727087,None,"['num_4', 'return']","[0.7489158999815118, 0.9321124999842141]",80.5677386999887,None,,,1,001,2021_Oct_22_1643,eeg_contingent_digits,2021.2.3,60.370432968567115,
1.0,5.0,8.0,2.0,,,,,,,,,,,,,,,,,0,0,0,0,0,1,1,1,1,0,1,0,,,,,,,,,,,,,,,,,,,,,,,,,,,,,,,,,"['num_4', 'return']","[0.23796340002445504, 0.35737920002429746]",81.53441089999978,None,,,1,001,2021_Oct_22_1643,eeg_contingent_digits,2021.2.3,60.370432968567115,
1.0,5.0,8.0,2.0,,,,,,,,,,,,,,,,,0,0,0,0,0,1,1,1,2,0,2,0,,,,,,,,,,,,,,,,,,,,,,,,,,,,,,,,,"['num_4', 'return']","[0.18171319999964908, 0.3098389000224415]",81.91830320001463,None,,,1,001,2021_Oct_22_1643,eeg_contingent_digits,2021.2.3,60.370432968567115,
1.0,5.0,8.0,2.0,,,,,,,,,,,,,,,,,0,0,0,0,0,1,1,1,,,,,,,,,,,,,,,,,,,,,,,,,,,,,,,,,,,,,,,,,None,None,1,001,2021_Oct_22_1643,eeg_contingent_digits,2021.2.3,60.370432968567115,
2.0,0.0,2.0,1.0,,,,,,,,,,,,,,,,,0,0,0,0,0,2,2,2,0,0,0,0,,,,,,,,,,,,,,,,,82.27642229999765,None,82.27642229999765,None,82.27642229999765,None,82.27642229999765,None,82.27642229999765,None,0.01281524999649264,None,0.4836558499955572,None,0.9670398499874864,None,"['num_4', 'return']","[0.5511276999895927, 0.7117223000095692]",91.09245950001059,None,,,1,001,2021_Oct_22_1643,eeg_contingent_digits,2021.2.3,60.370432968567115,
2.0,0.0,2.0,1.0,,,,,,,,,,,,,,,,,0,0,0,0,0,2,2,2,1,0,1,0,,,,,,,,,,,,,,,,,,,,,,,,,,,,,,,,,"['num_4', 'return']","[0.23300730000482872, 0.33712979999836534]",91.8266544000071,None,,,1,001,2021_Oct_22_1643,eeg_contingent_digits,2021.2.3,60.370432968567115,
2.0,0.0,2.0,1.0,,,,,,,,,,,,,,,,,0,0,0,0,0,2,2,2,2,0,2,0,,,,,,,,,,,,,,,,,,,,,,,,,,,,,,,,,"['num_4', 'return']","[0.2818727999983821, 0.48167429998284206]",92.1938242999895,None,,,1,001,2021_Oct_22_1643,eeg_contingent_digits,2021.2.3,60.370432968567115,
2.0,0.0,2.0,1.0,,,,,,,,,,,,,,,,,0,0,0,0,0,2,2,2,,,,,,,,,,,,,,,,,,,,,,,,,,,,,,,,,,,,,,,,,None,None,1,001,2021_Oct_22_1643,eeg_contingent_digits,2021.2.3,60.370432968567115,
3.0,9.0,8.0,6.0,,,,,,,,,,,,,,,,,0,0,0,0,0,3,3,3,0,0,0,0,,,,,,,,,,,,,,,,,92.72898869999335,None,92.72898869999335,None,92.72898869999335,None,92.72898869999335,None,92.72898869999335,None,0.0026231800147797912,None,0.48760377999860793,None,0.9483849800017197,None,"['num_4', 'return']","[0.5168518999998923, 0.6697167999809608]",103.11074309999822,None,,,1,001,2021_Oct_22_1643,eeg_contingent_digits,2021.2.3,60.370432968567115,
3.0,9.0,8.0,6.0,,,,,,,,,,,,,,,,,0,0,0,0,0,3,3,3,1,0,1,0,,,,,,,,,,,,,,,,,,,,,,,,,,,,,,,,,"['num_4', 'return']","[0.2168649999948684, 0.35264270001789555]",103.80262579998816,None,,,1,001,2021_Oct_22_1643,eeg_contingent_digits,2021.2.3,60.370432968567115,
3.0,9.0,8.0,6.0,,,,,,,,,,,,,,,,,0,0,0,0,0,3,3,3,2,0,2,0,,,,,,,,,,,,,,,,,,,,,,,,,,,,,,,,,"['num_4', 'return']","[0.17866169998887926, 0.35357969999313354]",104.18621640000492,None,,,1,001,2021_Oct_22_1643,eeg_contingent_digits,2021.2.3,60.370432968567115,
3.0,9.0,8.0,6.0,,,,,,,,,,,,,,,,,0,0,0,0,0,3,3,3,,,,,,,,,,,,,,,,,,,,,,,,,,,,,,,,,,,,,,,,,104.63954279999598,None,1,001,2021_Oct_22_1643,eeg_contingent_digits,2021.2.3,60.370432968567115,
4.0,3.0,8.0,0.0,,,,,,,,,,,,,,,,,0,0,0,0,0,4,4,4,0,0,0,0,,,,,,,,,,,,,,,,,108.87470119999489,None,108.87470119999489,None,108.87470119999489,None,108.87470119999489,None,108.87470119999489,None,5.9470010455697775e-05,None,0.47424286999739707,None,0.9413554700149689,None,"['num_4', 'return']","[0.45706840002094395, 0.6182659000041895]",113.73822349999682,None,,,1,001,2021_Oct_22_1643,eeg_contingent_digits,2021.2.3,60.370432968567115,
4.0,3.0,8.0,0.0,,,,,,,,,,,,,,,,,0,0,0,0,0,4,4,4,1,0,1,0,,,,,,,,,,,,,,,,,,,,,,,,,,,,,,,,,"['num_4', 'return']","[0.17681229999288917, 0.3449890000047162]",114.37920150000718,None,,,1,001,2021_Oct_22_1643,eeg_contingent_digits,2021.2.3,60.370432968567115,
4.0,3.0,8.0,0.0,,,,,,,,,,,,,,,,,0,0,0,0,0,4,4,4,2,0,2,0,,,,,,,,,,,,,,,,,,,,,,,,,,,,,,,,,"['num_4', 'return']","[0.24252400000113994, 0.4175923000148032]",114.74563429999398,None,,,1,001,2021_Oct_22_1643,eeg_contingent_digits,2021.2.3,60.370432968567115,
4.0,3.0,8.0,0.0,,,,,,,,,,,,,,,,,0,0,0,0,0,4,4,4,,,,,,,,,,,,,,,,,,,,,,,,,,,,,,,,,,,,,,,,,None,None,1,001,2021_Oct_22_1643,eeg_contingent_digits,2021.2.3,60.370432968567115,
5.0,5.0,9.0,3.0,,,,,,,,,,,,,,,,,0,0,0,0,0,5,5,5,0,0,0,0,,,,,,,,,,,,,,,,,115.21140679999371,None,115.21140679999371,None,115.21140679999371,None,115.21140679999371,None,115.21140679999371,None,0.006794379965867847,None,0.48382737996871583,None,0.9682388799847104,None,"['num_4', 'return']","[0.4692168000037782, 0.6613987000018824]",127.8625769999926,None,,,1,001,2021_Oct_22_1643,eeg_contingent_digits,2021.2.3,60.370432968567115,
5.0,5.0,9.0,3.0,,,,,,,,,,,,,,,,,0,0,0,0,0,5,5,5,1,0,1,0,,,,,,,,,,,,,,,,,,,,,,,,,,,,,,,,,"['num_4', 'return']","[0.16685189999407157, 0.3669105999870226]",128.55692900001304,None,,,1,001,2021_Oct_22_1643,eeg_contingent_digits,2021.2.3,60.370432968567115,
5.0,5.0,9.0,3.0,,,,,,,,,,,,,,,,,0,0,0,0,0,5,5,5,2,0,2,0,,,,,,,,,,,,,,,,,,,,,,,,,,,,,,,,,"['num_4', 'return']","[0.11817709999741055, 0.3428841999848373]",128.95701410001493,None,,,1,001,2021_Oct_22_1643,eeg_contingent_digits,2021.2.3,60.370432968567115,
5.0,5.0,9.0,3.0,,,,,,,,,,,,,,,,,0,0,0,0,0,5,5,5,,,,,,,,,,,,,,,,,,,,,,,,,,,,,,,,,,,,,,,,,None,None,1,001,2021_Oct_22_1643,eeg_contingent_digits,2021.2.3,60.370432968567115,
6.0,5.0,8.0,1.0,,,,,,,,,,,,,,,,,0,0,0,0,0,6,6,6,0,0,0,0,,,,,,,,,,,,,,,,,129.35005889998865,None,129.35005889998865,None,129.35005889998865,None,129.35005889998865,None,129.35005889998865,None,0.01605705000110902,None,0.49959155000397004,None,0.9607418499945197,None,"['num_4', 'return']","[0.5303752000036184, 0.6982438999984879]",135.10536600000341,None,,,1,001,2021_Oct_22_1643,eeg_contingent_digits,2021.2.3,60.370432968567115,
6.0,5.0,8.0,1.0,,,,,,,,,,,,,,,,,0,0,0,0,0,6,6,6,1,0,1,0,,,,,,,,,,,,,,,,,,,,,,,,,,,,,,,,,"['num_4', 'return']","[0.22184610000113025, 0.3660080000117887]",135.8295904000115,None,,,1,001,2021_Oct_22_1643,eeg_contingent_digits,2021.2.3,60.370432968567115,
6.0,5.0,8.0,1.0,,,,,,,,,,,,,,,,,0,0,0,0,0,6,6,6,2,0,2,0,,,,,,,,,,,,,,,,,,,,,,,,,,,,,,,,,"['num_4', 'return']","[0.1816003999847453, 0.33274069998878986]",136.23053830000572,None,,,1,001,2021_Oct_22_1643,eeg_contingent_digits,2021.2.3,60.370432968567115,
6.0,5.0,8.0,1.0,,,,,,,,,,,,,,,,,0,0,0,0,0,6,6,6,,,,,,,,,,,,,,,,,,,,,,,,,,,,,,,,,,,,,,,,,None,None,1,001,2021_Oct_22_1643,eeg_contingent_digits,2021.2.3,60.370432968567115,
7.0,6.0,2.0,9.0,,,,,,,,,,,,,,,,,0,0,0,0,0,7,7,7,0,0,0,0,,,,,,,,,,,,,,,,,136.61664180000662,None,136.61664180000662,None,136.61664180000662,None,136.61664180000662,None,136.61664180000662,None,0.011394880013540387,None,0.48080508000566624,None,0.9644752799940761,None,"['num_4', 'return']","[0.45198729998082854, 0.5954159999964759]",143.66406129999086,None,,,1,001,2021_Oct_22_1643,eeg_contingent_digits,2021.2.3,60.370432968567115,
7.0,6.0,2.0,9.0,,,,,,,,,,,,,,,,,0,0,0,0,0,7,7,7,1,0,1,0,,,,,,,,,,,,,,,,,,,,,,,,,,,,,,,,,"['num_4', 'return']","[0.13162860000738874, 0.3313361000036821]",144.28841649999958,None,,,1,001,2021_Oct_22_1643,eeg_contingent_digits,2021.2.3,60.370432968567115,
7.0,6.0,2.0,9.0,,,,,,,,,,,,,,,,,0,0,0,0,0,7,7,7,2,0,2,0,,,,,,,,,,,,,,,,,,,,,,,,,,,,,,,,,"['num_4', 'return']","[0.14995819999603555, 0.37385360000189394]",144.65392839998822,None,,,1,001,2021_Oct_22_1643,eeg_contingent_digits,2021.2.3,60.370432968567115,
7.0,6.0,2.0,9.0,,,,,,,,,,,,,,,,,0,0,0,0,0,7,7,7,,,,,,,,,,,,,,,,,,,,,,,,,,,,,,,,,,,,,,,,,145.08880090000457,None,1,001,2021_Oct_22_1643,eeg_contingent_digits,2021.2.3,60.370432968567115,
8.0,4.0,6.0,5.0,,,,,,,,,,,,,,,,,0,0,0,0,0,8,8,8,0,0,0,0,,,,,,,,,,,,,,,,,147.21874129999196,None,147.21874129999196,None,147.21874129999196,None,147.21874129999196,None,147.21874129999196,None,0.0015548699884675443,None,0.4785781699756626,None,0.9623613699804991,None,"['num_4', 'return']","[0.37290309998206794, 0.5073858999821823]",151.9523506000114,None,,,1,001,2021_Oct_22_1643,eeg_contingent_digits,2021.2.3,60.370432968567115,
8.0,4.0,6.0,5.0,,,,,,,,,,,,,,,,,0,0,0,0,0,8,8,8,1,0,1,0,,,,,,,,,,,,,,,,,,,,,,,,,,,,,,,,,"['num_4', 'return']","[0.17268330001388676, 0.33275630002026446]",152.49465179999243,None,,,1,001,2021_Oct_22_1643,eeg_contingent_digits,2021.2.3,60.370432968567115,
8.0,4.0,6.0,5.0,,,,,,,,,,,,,,,,,0,0,0,0,0,8,8,8,2,0,2,0,,,,,,,,,,,,,,,,,,,,,,,,,,,,,,,,,"['num_4', 'return']","[0.24654940000618808, 0.3587056999967899]",152.86132160000852,None,,,1,001,2021_Oct_22_1643,eeg_contingent_digits,2021.2.3,60.370432968567115,
8.0,4.0,6.0,5.0,,,,,,,,,,,,,,,,,0,0,0,0,0,8,8,8,,,,,,,,,,,,,,,,,,,,,,,,,,,,,,,,,,,,,,,,,None,None,1,001,2021_Oct_22_1643,eeg_contingent_digits,2021.2.3,60.370432968567115,
9.0,2.0,5.0,6.0,,,,,,,,,,,,,,,,,0,0,0,0,0,9,9,9,0,0,0,0,,,,,,,,,,,,,,,,,153.26015570000163,None,153.26015570000163,None,153.26015570000163,None,153.26015570000163,None,153.26015570000163,None,0.010598349996143952,None,0.49581534997560084,None,0.9579587499902118,None,"['num_4', 'return']","[0.41030509999836795, 0.5556409000128042]",158.85710789999575,None,,,1,001,2021_Oct_22_1643,eeg_contingent_digits,2021.2.3,60.370432968567115,
9.0,2.0,5.0,6.0,,,,,,,,,,,,,,,,,0,0,0,0,0,9,9,9,1,0,1,0,,,,,,,,,,,,,,,,,,,,,,,,,,,,,,,,,"['num_4', 'return']","[0.17889399998239242, 0.3309012999816332]",159.43337780001457,None,,,1,001,2021_Oct_22_1643,eeg_contingent_digits,2021.2.3,60.370432968567115,
9.0,2.0,5.0,6.0,,,,,,,,,,,,,,,,,0,0,0,0,0,9,9,9,2,0,2,0,,,,,,,,,,,,,,,,,,,,,,,,,,,,,,,,,"['num_4', 'return']","[0.14631539999390952, 0.330523099983111]",159.7851164000167,None,,,1,001,2021_Oct_22_1643,eeg_contingent_digits,2021.2.3,60.370432968567115,
9.0,2.0,5.0,6.0,,,,,,,,,,,,,,,,,0,0,0,0,0,9,9,9,,,,,,,,,,,,,,,,,,,,,,,,,,,,,,,,,,,,,,,,,None,None,1,001,2021_Oct_22_1643,eeg_contingent_digits,2021.2.3,60.370432968567115,
10.0,4.0,0.0,3.0,,,,,,,,,,,,,,,,,0,0,0,0,0,10,10,10,0,0,0,0,,,,,,,,,,,,,,,,,160.1656762000057,None,160.1656762000057,None,160.1656762000057,None,160.1656762000057,None,160.1656762000057,None,0.015885679982602596,None,0.4971071799809579,None,0.9736603799974546,None,"['num_4', 'return']","[0.46304450000752695, 0.6156770999950822]",168.36424739999347,None,,,1,001,2021_Oct_22_1643,eeg_contingent_digits,2021.2.3,60.370432968567115,
10.0,4.0,0.0,3.0,,,,,,,,,,,,,,,,,0,0,0,0,0,10,10,10,1,0,1,0,,,,,,,,,,,,,,,,,,,,,,,,,,,,,,,,,"['num_4', 'return']","[0.188821799994912, 0.32461189999594353]",169.00693900001352,None,,,1,001,2021_Oct_22_1643,eeg_contingent_digits,2021.2.3,60.370432968567115,
10.0,4.0,0.0,3.0,,,,,,,,,,,,,,,,,0,0,0,0,0,10,10,10,2,0,2,0,,,,,,,,,,,,,,,,,,,,,,,,,,,,,,,,,"['num_4', 'return']","[0.1330411999952048, 0.3009117000037804]",169.35865050001303,None,,,1,001,2021_Oct_22_1643,eeg_contingent_digits,2021.2.3,60.370432968567115,
10.0,4.0,0.0,3.0,,,,,,,,,,,,,,,,,0,0,0,0,0,10,10,10,,,,,,,,,,,,,,,,,,,,,,,,,,,,,,,,,,,,,,,,,None,None,1,001,2021_Oct_22_1643,eeg_contingent_digits,2021.2.3,60.370432968567115,
11.0,2.0,0.0,3.0,,,,,,,,,,,,,,,,,0,0,0,0,0,11,11,11,0,0,0,0,,,,,,,,,,,,,,,,,169.70544049999444,None,169.70544049999444,None,169.70544049999444,None,169.70544049999444,None,169.70544049999444,None,0.01574868001625873,None,0.48354298001504503,None,0.9667355800338555,None,"['num_4', 'return']","[0.41989440002362244, 0.5630754000158049]",176.4242433999898,None,,,1,001,2021_Oct_22_1643,eeg_contingent_digits,2021.2.3,60.370432968567115,
11.0,2.0,0.0,3.0,,,,,,,,,,,,,,,,,0,0,0,0,0,11,11,11,1,0,1,0,,,,,,,,,,,,,,,,,,,,,,,,,,,,,,,,,"['num_4', 'return']","[0.24768569998559542, 0.38144009999814443]",177.0139019000053,None,,,1,001,2021_Oct_22_1643,eeg_contingent_digits,2021.2.3,60.370432968567115,
11.0,2.0,0.0,3.0,,,,,,,,,,,,,,,,,0,0,0,0,0,11,11,11,2,0,2,0,,,,,,,,,,,,,,,,,,,,,,,,,,,,,,,,,"['num_4', 'return']","[0.17946370001300238, 0.33085279999068007]",177.43271749999258,None,,,1,001,2021_Oct_22_1643,eeg_contingent_digits,2021.2.3,60.370432968567115,
11.0,2.0,0.0,3.0,,,,,,,,,,,,,,,,,0,0,0,0,0,11,11,11,,,,,,,,,,,,,,,,,,,,,,,,,,,,,,,,,,,,,,,,,177.81764409999596,None,1,001,2021_Oct_22_1643,eeg_contingent_digits,2021.2.3,60.370432968567115,
12.0,5.0,9.0,0.0,,,,,,,,,,,,,,,,,0,0,0,0,0,12,12,12,0,0,0,0,,,,,,,,,,,,,,,,,179.22687730001053,None,179.22687730001053,None,179.22687730001053,None,179.22687730001053,None,179.22687730001053,None,0.0022813399555161595,None,0.4658293399552349,None,0.94891783996718,None,"['num_4', 'return']","[0.499459000013303, 0.620049300021492]",183.92780830000993,None,,,1,001,2021_Oct_22_1643,eeg_contingent_digits,2021.2.3,60.370432968567115,
12.0,5.0,9.0,0.0,,,,,,,,,,,,,,,,,0,0,0,0,0,12,12,12,1,0,1,0,,,,,,,,,,,,,,,,,,,,,,,,,,,,,,,,,"['num_4', 'return']","[0.2169366000161972, 0.33030140001210384]",184.57029790000524,None,,,1,001,2021_Oct_22_1643,eeg_contingent_digits,2021.2.3,60.370432968567115,
12.0,5.0,9.0,0.0,,,,,,,,,,,,,,,,,0,0,0,0,0,12,12,12,2,0,2,0,,,,,,,,,,,,,,,,,,,,,,,,,,,,,,,,,"['num_4', 'return']","[0.23404739997931756, 0.3695541999768466]",184.92175519999,None,,,1,001,2021_Oct_22_1643,eeg_contingent_digits,2021.2.3,60.370432968567115,
12.0,5.0,9.0,0.0,,,,,,,,,,,,,,,,,0,0,0,0,0,12,12,12,,,,,,,,,,,,,,,,,,,,,,,,,,,,,,,,,,,,,,,,,None,None,1,001,2021_Oct_22_1643,eeg_contingent_digits,2021.2.3,60.370432968567115,
13.0,6.0,5.0,2.0,,,,,,,,,,,,,,,,,0,0,0,0,0,13,13,13,0,0,0,0,,,,,,,,,,,,,,,,,185.3452193000121,None,185.3452193000121,None,185.3452193000121,None,185.3452193000121,None,185.3452193000121,None,0.00011058000382035971,None,0.4896798800036777,None,0.9567034800129477,None,"['num_4', 'return']","[0.34553930000402033, 0.4743715999939013]",193.09756409999682,None,,,1,001,2021_Oct_22_1643,eeg_contingent_digits,2021.2.3,60.370432968567115,
13.0,6.0,5.0,2.0,,,,,,,,,,,,,,,,,0,0,0,0,0,13,13,13,1,0,1,0,,,,,,,,,,,,,,,,,,,,,,,,,,,,,,,,,"['num_4', 'return']","[0.21738600000389852, 0.337925500003621]",193.5942900000082,None,,,1,001,2021_Oct_22_1643,eeg_contingent_digits,2021.2.3,60.370432968567115,
13.0,6.0,5.0,2.0,,,,,,,,,,,,,,,,,0,0,0,0,0,13,13,13,2,0,2,0,,,,,,,,,,,,,,,,,,,,,,,,,,,,,,,,,"['num_4', 'return']","[0.20186349999858066, 0.30600690000574104]",193.96168020000914,None,,,1,001,2021_Oct_22_1643,eeg_contingent_digits,2021.2.3,60.370432968567115,
13.0,6.0,5.0,2.0,,,,,,,,,,,,,,,,,0,0,0,0,0,13,13,13,,,,,,,,,,,,,,,,,,,,,,,,,,,,,,,,,,,,,,,,,None,None,1,001,2021_Oct_22_1643,eeg_contingent_digits,2021.2.3,60.370432968567115,
14.0,1.0,8.0,9.0,,,,,,,,,,,,,,,,,0,0,0,0,0,14,14,14,0,0,0,0,,,,,,,,,,,,,,,,,194.31482160001178,None,194.31482160001178,None,194.31482160001178,None,194.31482160001178,None,194.31482160001178,None,0.010930380027275532,None,0.4966707800340373,None,0.9771923800290097,None,"['num_4', 'return']","[0.40842829999746755, 0.5367259999911766]",201.99520030000713,None,,,1,001,2021_Oct_22_1643,eeg_contingent_digits,2021.2.3,60.370432968567115,
14.0,1.0,8.0,9.0,,,,,,,,,,,,,,,,,0,0,0,0,0,14,14,14,1,0,1,0,,,,,,,,,,,,,,,,,,,,,,,,,,,,,,,,,"['num_4', 'return']","[0.22895290001179092, 0.3237224000040442]",202.5516321999894,None,,,1,001,2021_Oct_22_1643,eeg_contingent_digits,2021.2.3,60.370432968567115,
14.0,1.0,8.0,9.0,,,,,,,,,,,,,,,,,0,0,0,0,0,14,14,14,2,0,2,0,,,,,,,,,,,,,,,,,,,,,,,,,,,,,,,,,"['num_4', 'return']","[0.2459763000078965, 0.3496365000028163]",202.9020964000083,None,,,1,001,2021_Oct_22_1643,eeg_contingent_digits,2021.2.3,60.370432968567115,
14.0,1.0,8.0,9.0,,,,,,,,,,,,,,,,,0,0,0,0,0,14,14,14,,,,,,,,,,,,,,,,,,,,,,,,,,,,,,,,,,,,,,,,,None,None,1,001,2021_Oct_22_1643,eeg_contingent_digits,2021.2.3,60.370432968567115,
15.0,3.0,0.0,8.0,,,,,,,,,,,,,,,,,0,0,0,0,0,15,15,15,0,0,0,0,,,,,,,,,,,,,,,,,203.29934990001493,None,203.29934990001493,None,203.29934990001493,None,203.29934990001493,None,203.29934990001493,None,0.008590349985752255,None,0.4798972499847878,None,0.9684010499913711,None,"['num_4', 'return']","[0.40604269999312237, 0.5575681000191253]",209.21439939999254,None,,,1,001,2021_Oct_22_1643,eeg_contingent_digits,2021.2.3,60.370432968567115,
15.0,3.0,0.0,8.0,,,,,,,,,,,,,,,,,0,0,0,0,0,15,15,15,1,0,1,0,,,,,,,,,,,,,,,,,,,,,,,,,,,,,,,,,"['num_4', 'return']","[0.2451872999954503, 0.3243492000037804]",209.7907988000079,None,,,1,001,2021_Oct_22_1643,eeg_contingent_digits,2021.2.3,60.370432968567115,
15.0,3.0,0.0,8.0,,,,,,,,,,,,,,,,,0,0,0,0,0,15,15,15,2,0,2,0,,,,,,,,,,,,,,,,,,,,,,,,,,,,,,,,,"['num_4', 'return']","[0.24744460001238622, 0.3820043000159785]",210.1416148999997,None,,,1,001,2021_Oct_22_1643,eeg_contingent_digits,2021.2.3,60.370432968567115,
15.0,3.0,0.0,8.0,,,,,,,,,,,,,,,,,0,0,0,0,0,15,15,15,,,,,,,,,,,,,,,,,,,,,,,,,,,,,,,,,,,,,,,,,210.58097760000965,None,1,001,2021_Oct_22_1643,eeg_contingent_digits,2021.2.3,60.370432968567115,
,,,,,,,,,,,,,,,,,,,,0,0,0,0,,,,,,,,,,,,,,,,,,,,,,,,,,,,,,,,,,,,,,,,,,,,,,,1,001,2021_Oct_22_1643,eeg_contingent_digits,2021.2.3,60.370432968567115,
