TrialID,NFB_digit1,NFB_digit2,NFB_digit3,Speaker_trial,Degrad_trial,Triggered_trial,Jitter_trial,practice_block.thisRepN,practice_block.thisTrialN,practice_block.thisN,practice_block.thisIndex,practice_trials.thisRepN,practice_trials.thisTrialN,practice_trials.thisN,practice_trials.thisIndex,response_practice.thisRepN,response_practice.thisTrialN,response_practice.thisN,response_practice.thisIndex,calibration_block.thisRepN,calibration_block.thisTrialN,calibration_block.thisN,calibration_block.thisIndex,exp_trials.thisRepN,exp_trials.thisTrialN,exp_trials.thisN,exp_trials.thisIndex,response_exp.thisRepN,response_exp.thisTrialN,response_exp.thisN,response_exp.thisIndex,Digit1_clear.started,Digit1_clear.stopped,Digit2_clear.started,Digit2_clear.stopped,Digit3_clear.started,Digit3_clear.stopped,key_resp_3.keys,key_resp_3.rt,key_resp_3.started,key_resp_3.stopped,text_4.started,text_4.stopped,text_5.started,text_5.stopped,Begin.started,Begin.stopped,Fixation.started,Fixation.stopped,text_6.started,text_6.stopped,text_2.started,text_2.stopped,text_7.started,text_7.stopped,text_8.started,text_8.stopped,sound_digit1.started,sound_digit1.stopped,sound_digit2.started,sound_digit2.stopped,sound_digit3.started,sound_digit3.stopped,key_resp.keys,key_resp.rt,key_resp.started,key_resp.stopped,Begin_3.started,Begin_3.stopped,participant,session,date,expName,psychopyVersion,frameRate,
0.0,6.0,2.0,4.0,33.0,,,,0,0,0,0,0,0,0,0,0,0,0,0,,,,,,,,,,,,,0.0023558999528177083,None,0.46941769996192306,None,0.9527508999453858,None,['return'],[0.3982356999767944],20.23535140004242,None,,,,,,,,,,,,,,,,,,,,,,,,,,,,,1,001,2021_Oct_25_1341,eeg_contingent_digits,2021.2.3,60.031756796555754,
0.0,6.0,2.0,4.0,33.0,,,,0,0,0,0,0,0,0,0,1,0,1,0,,,,,,,,,,,,,,,,,,,['return'],[0.1760076000355184],20.657452500017826,None,,,,,,,,,,,,,,,,,,,,,,,,,,,,,1,001,2021_Oct_25_1341,eeg_contingent_digits,2021.2.3,60.031756796555754,
0.0,6.0,2.0,4.0,33.0,,,,0,0,0,0,0,0,0,0,2,0,2,0,,,,,,,,,,,,,,,,,,,['return'],[0.18250549997901544],20.857439599989448,None,,,,,,,,,,,,,,,,,,,,,,,,,,,,,1,001,2021_Oct_25_1341,eeg_contingent_digits,2021.2.3,60.031756796555754,
0.0,6.0,2.0,4.0,33.0,,,,0,0,0,0,0,0,0,0,,,,,,,,,,,,,,,,,,,,,,,,,,,,,,,,,,,,,,,,,,,,,,,,,,,,,,,1,001,2021_Oct_25_1341,eeg_contingent_digits,2021.2.3,60.031756796555754,
1.0,1.0,9.0,3.0,13.0,,,,0,0,0,0,0,1,1,1,0,0,0,0,,,,,,,,,,,,,0.01021989993751049,None,0.48636929993517697,None,0.9698832999565639,None,['return'],[0.20773490000283346],22.494119100039825,None,,,,,,,,,,,,,,,,,,,,,,,,,,,,,1,001,2021_Oct_25_1341,eeg_contingent_digits,2021.2.3,60.031756796555754,
1.0,1.0,9.0,3.0,13.0,,,,0,0,0,0,0,1,1,1,1,0,1,0,,,,,,,,,,,,,,,,,,,['return'],[0.1947707999497652],22.7241697999998,None,,,,,,,,,,,,,,,,,,,,,,,,,,,,,1,001,2021_Oct_25_1341,eeg_contingent_digits,2021.2.3,60.031756796555754,
1.0,1.0,9.0,3.0,13.0,,,,0,0,0,0,0,1,1,1,2,0,2,0,,,,,,,,,,,,,,,,,,,['return'],[0.1947222999879159],22.940916699997615,None,,,,,,,,,,,,,,,,,,,,,,,,,,,,,1,001,2021_Oct_25_1341,eeg_contingent_digits,2021.2.3,60.031756796555754,
1.0,1.0,9.0,3.0,13.0,,,,0,0,0,0,0,1,1,1,,,,,,,,,,,,,,,,,,,,,,,,,,,,,,,,,,,,,,,,,,,,,,,,,,,,,,,1,001,2021_Oct_25_1341,eeg_contingent_digits,2021.2.3,60.031756796555754,
2.0,8.0,0.0,1.0,21.0,,,,0,0,0,0,0,2,2,2,0,0,0,0,,,,,,,,,,,,,0.010057399980723858,None,0.4903582999831997,None,0.9533674999838695,None,['return'],[0.07123240001965314],24.596859300043434,None,,,,,,,,,,,,,,,,,,,,,,,,,,,,,1,001,2021_Oct_25_1341,eeg_contingent_digits,2021.2.3,60.031756796555754,
2.0,8.0,0.0,1.0,21.0,,,,0,0,0,0,0,2,2,2,1,0,1,0,,,,,,,,,,,,,,,,,,,['return'],[0.2022121999762021],24.690561900031753,None,,,,,,,,,,,,,,,,,,,,,,,,,,,,,1,001,2021_Oct_25_1341,eeg_contingent_digits,2021.2.3,60.031756796555754,
2.0,8.0,0.0,1.0,21.0,,,,0,0,0,0,0,2,2,2,2,0,2,0,,,,,,,,,,,,,,,,,,,['return'],[0.18181909999111667],24.924197599990293,None,,,,,,,,,,,,,,,,,,,,,,,,,,,,,1,001,2021_Oct_25_1341,eeg_contingent_digits,2021.2.3,60.031756796555754,
2.0,8.0,0.0,1.0,21.0,,,,0,0,0,0,0,2,2,2,,,,,,,,,,,,,,,,,,,,,,,,,,,,,,,,,,,,,,,,,,,,,,,,,,,,,,,1,001,2021_Oct_25_1341,eeg_contingent_digits,2021.2.3,60.031756796555754,
3.0,9.0,6.0,1.0,61.0,,,,0,0,0,0,0,3,3,3,0,0,0,0,,,,,,,,,,,,,0.009514299978036433,None,0.4851418999605812,None,0.9689080999814905,None,['return'],[0.13923089997842908],26.564234999998007,None,,,,,,,,,,,,,,,,,,,,,,,,,,,,,1,001,2021_Oct_25_1341,eeg_contingent_digits,2021.2.3,60.031756796555754,
3.0,9.0,6.0,1.0,61.0,,,,0,0,0,0,0,3,3,3,1,0,1,0,,,,,,,,,,,,,,,,,,,['return'],[0.18207839998649433],26.72371920000296,None,,,,,,,,,,,,,,,,,,,,,,,,,,,,,1,001,2021_Oct_25_1341,eeg_contingent_digits,2021.2.3,60.031756796555754,
3.0,9.0,6.0,1.0,61.0,,,,0,0,0,0,0,3,3,3,2,0,2,0,,,,,,,,,,,,,,,,,,,['return'],[0.17714250000426546],26.923757300013676,None,,,,,,,,,,,,,,,,,,,,,,,,,,,,,1,001,2021_Oct_25_1341,eeg_contingent_digits,2021.2.3,60.031756796555754,
3.0,9.0,6.0,1.0,61.0,,,,0,0,0,0,0,3,3,3,,,,,,,,,,,,,,,,,,,,,,,,,,,,,,,,,,,,,,,,,,,,,,,,,,,,,,,1,001,2021_Oct_25_1341,eeg_contingent_digits,2021.2.3,60.031756796555754,
4.0,8.0,1.0,5.0,7.0,,,,0,0,0,0,0,4,4,4,0,0,0,0,,,,,,,,,,,,,0.010550899896770716,None,0.47070929990150034,None,0.9749526999075897,None,['return'],[0.21213499997975305],28.564444500021636,None,,,,,,,,,,,,,,,,,,,,,,,,,,,,,1,001,2021_Oct_25_1341,eeg_contingent_digits,2021.2.3,60.031756796555754,
4.0,8.0,1.0,5.0,7.0,,,,0,0,0,0,0,4,4,4,1,0,1,0,,,,,,,,,,,,,,,,,,,['return'],[0.1701003999914974],28.806773199990857,None,,,,,,,,,,,,,,,,,,,,,,,,,,,,,1,001,2021_Oct_25_1341,eeg_contingent_digits,2021.2.3,60.031756796555754,
4.0,8.0,1.0,5.0,7.0,,,,0,0,0,0,0,4,4,4,2,0,2,0,,,,,,,,,,,,,,,,,,,['return'],[0.18292470002779737],29.006943100015633,None,,,,,,,,,,,,,,,,,,,,,,,,,,,,,1,001,2021_Oct_25_1341,eeg_contingent_digits,2021.2.3,60.031756796555754,
4.0,8.0,1.0,5.0,7.0,,,,0,0,0,0,0,4,4,4,,,,,,,,,,,,,,,,,,,,,,,,,,,,,,,,,,,,,,,,,,,,,,,,,,,,,,,1,001,2021_Oct_25_1341,eeg_contingent_digits,2021.2.3,60.031756796555754,
5.0,4.0,1.0,0.0,33.0,,,,0,0,0,0,0,5,5,5,0,0,0,0,,,,,,,,,,,,,0.01025839993963018,None,0.48674479994224384,None,0.9699896999518387,None,['return'],[0.22433990001445636],30.644074900017586,None,,,,,,,,,,,,,,,,,,,,,,,,,,,,,1,001,2021_Oct_25_1341,eeg_contingent_digits,2021.2.3,60.031756796555754,
5.0,4.0,1.0,0.0,33.0,,,,0,0,0,0,0,5,5,5,1,0,1,0,,,,,,,,,,,,,,,,,,,['return'],[0.17566360003547743],30.890258300001733,None,,,,,,,,,,,,,,,,,,,,,,,,,,,,,1,001,2021_Oct_25_1341,eeg_contingent_digits,2021.2.3,60.031756796555754,
5.0,4.0,1.0,0.0,33.0,,,,0,0,0,0,0,5,5,5,2,0,2,0,,,,,,,,,,,,,,,,,,,['return'],[0.17649649997474626],31.090300999989267,None,,,,,,,,,,,,,,,,,,,,,,,,,,,,,1,001,2021_Oct_25_1341,eeg_contingent_digits,2021.2.3,60.031756796555754,
5.0,4.0,1.0,0.0,33.0,,,,0,0,0,0,0,5,5,5,,,,,,,,,,,,,,,,,,,,,,,,,,,,,,,,,,,,,,,,,,,,,,,,,,,,,,,1,001,2021_Oct_25_1341,eeg_contingent_digits,2021.2.3,60.031756796555754,
6.0,9.0,2.0,6.0,13.0,,,,0,0,0,0,0,6,6,6,0,0,0,0,,,,,,,,,,,,,0.00895920000039041,None,0.5050928999553435,None,0.9677421999513172,None,['return'],[0.2708773000049405],32.739977599994745,None,,,,,,,,,,,,,,,,,,,,,,,,,,,,,1,001,2021_Oct_25_1341,eeg_contingent_digits,2021.2.3,60.031756796555754,
6.0,9.0,2.0,6.0,13.0,,,,0,0,0,0,0,6,6,6,1,0,1,0,,,,,,,,,,,,,,,,,,,['return'],[0.15548900002613664],33.03996720002033,None,,,,,,,,,,,,,,,,,,,,,,,,,,,,,1,001,2021_Oct_25_1341,eeg_contingent_digits,2021.2.3,60.031756796555754,
6.0,9.0,2.0,6.0,13.0,,,,0,0,0,0,0,6,6,6,2,0,2,0,,,,,,,,,,,,,,,,,,,['return'],[0.1604582000290975],33.22343800001545,None,,,,,,,,,,,,,,,,,,,,,,,,,,,,,1,001,2021_Oct_25_1341,eeg_contingent_digits,2021.2.3,60.031756796555754,
6.0,9.0,2.0,6.0,13.0,,,,0,0,0,0,0,6,6,6,,,,,,,,,,,,,,,,,,,,,,,,,,,,,,,,,,,,,,,,,,,,,,,,,,,,,,,1,001,2021_Oct_25_1341,eeg_contingent_digits,2021.2.3,60.031756796555754,
7.0,2.0,3.0,0.0,10.0,,,,0,0,0,0,0,7,7,7,0,0,0,0,,,,,,,,,,,,,0.009938199946191162,None,0.469807299959939,None,0.9530535999801941,None,['return'],[0.2760176999727264],34.84086870000465,None,,,,,,,,,,,,,,,,,,,,,,,,,,,,,1,001,2021_Oct_25_1341,eeg_contingent_digits,2021.2.3,60.031756796555754,
7.0,2.0,3.0,0.0,10.0,,,,0,0,0,0,0,7,7,7,1,0,1,0,,,,,,,,,,,,,,,,,,,['return'],[0.15700740000465885],35.13969939999515,None,,,,,,,,,,,,,,,,,,,,,,,,,,,,,1,001,2021_Oct_25_1341,eeg_contingent_digits,2021.2.3,60.031756796555754,
7.0,2.0,3.0,0.0,10.0,,,,0,0,0,0,0,7,7,7,2,0,2,0,,,,,,,,,,,,,,,,,,,['return'],[0.15777320001507178],35.323061700037215,None,,,,,,,,,,,,,,,,,,,,,,,,,,,,,1,001,2021_Oct_25_1341,eeg_contingent_digits,2021.2.3,60.031756796555754,
7.0,2.0,3.0,0.0,10.0,,,,0,0,0,0,0,7,7,7,,,,,,,,,,,,,,,,,,,,,,,,,,,,,,,,,,,,,,,,,,,,,,,,,,,,,,,1,001,2021_Oct_25_1341,eeg_contingent_digits,2021.2.3,60.031756796555754,
8.0,1.0,9.0,2.0,48.0,,,,0,0,0,0,0,8,8,8,0,0,0,0,,,,,,,,,,,,,0.010357199993450195,None,0.48689589998684824,None,0.9700972000136971,None,['return'],[0.2820274999830872],36.956248600035906,None,,,,,,,,,,,,,,,,,,,,,,,,,,,,,1,001,2021_Oct_25_1341,eeg_contingent_digits,2021.2.3,60.031756796555754,
8.0,1.0,9.0,2.0,48.0,,,,0,0,0,0,0,8,8,8,1,0,1,0,,,,,,,,,,,,,,,,,,,['return'],[0.1618398000136949],37.256432500027586,None,,,,,,,,,,,,,,,,,,,,,,,,,,,,,1,001,2021_Oct_25_1341,eeg_contingent_digits,2021.2.3,60.031756796555754,
8.0,1.0,9.0,2.0,48.0,,,,0,0,0,0,0,8,8,8,2,0,2,0,,,,,,,,,,,,,,,,,,,['return'],[0.17897740000626072],37.439760600042064,None,,,,,,,,,,,,,,,,,,,,,,,,,,,,,1,001,2021_Oct_25_1341,eeg_contingent_digits,2021.2.3,60.031756796555754,
8.0,1.0,9.0,2.0,48.0,,,,0,0,0,0,0,8,8,8,,,,,,,,,,,,,,,,,,,,,,,,,,,,,,,,,,,,,,,,,,,,,,,,,,,,,,,1,001,2021_Oct_25_1341,eeg_contingent_digits,2021.2.3,60.031756796555754,
9.0,8.0,1.0,0.0,21.0,,,,0,0,0,0,0,9,9,9,0,0,0,0,,,,,,,,,,,,,0.010660999978426844,None,0.4881960999337025,None,0.9546914999373257,None,['return'],[0.09048060001805425],39.07736210001167,None,,,,,,,,,,,,,,,,,,,,,,,,,,,,,1,001,2021_Oct_25_1341,eeg_contingent_digits,2021.2.3,60.031756796555754,
9.0,8.0,1.0,0.0,21.0,,,,0,0,0,0,0,9,9,9,1,0,1,0,,,,,,,,,,,,,,,,,,,['return'],[0.19071729999268427],39.18971500004409,None,,,,,,,,,,,,,,,,,,,,,,,,,,,,,1,001,2021_Oct_25_1341,eeg_contingent_digits,2021.2.3,60.031756796555754,
9.0,8.0,1.0,0.0,21.0,,,,0,0,0,0,0,9,9,9,2,0,2,0,,,,,,,,,,,,,,,,,,,['return'],[0.174480699992273],39.40653500001645,None,,,,,,,,,,,,,,,,,,,,,,,,,,,,,1,001,2021_Oct_25_1341,eeg_contingent_digits,2021.2.3,60.031756796555754,
9.0,8.0,1.0,0.0,21.0,,,,0,0,0,0,0,9,9,9,,,,,,,,,,,,,,,,,,,,,,,,,,,,,,,,,,,,,,,,,,,,,,,,,,,,,,,1,001,2021_Oct_25_1341,eeg_contingent_digits,2021.2.3,60.031756796555754,
,,,,,,,,0,0,0,0,,,,,,,,,,,,,,,,,,,,,,,,,,,,,,,39.60617490002187,None,,,,,,,,,,,,,,,,,,,,,,,,,,,1,001,2021_Oct_25_1341,eeg_contingent_digits,2021.2.3,60.031756796555754,
,,,,,,,,,,,,,,,,,,,,0,0,0,0,,,,,,,,,,,,,,,,,,,,,63.277212299988605,None,,,,,,,,,,,,,,,,,,,,,,,,,1,001,2021_Oct_25_1341,eeg_contingent_digits,2021.2.3,60.031756796555754,
0.0,9.0,4.0,6.0,10.0,1.0,1.0,0.0,,,,,,,,,,,,,,,,,0,0,0,0,0,0,0,0,,,,,,,,,,,,,,,73.28865780000342,None,75.1328446000116,None,75.1328446000116,None,75.1328446000116,None,75.1328446000116,None,75.1328446000116,None,0.006987000058870763,None,0.49251940002432093,None,0.9762028000550345,None,['return'],[0.46265450003556907],79.81111730000703,None,,,1,001,2021_Oct_25_1341,eeg_contingent_digits,2021.2.3,60.031756796555754,
0.0,9.0,4.0,6.0,10.0,1.0,1.0,0.0,,,,,,,,,,,,,,,,,0,0,0,0,1,0,1,0,,,,,,,,,,,,,,,,,,,,,,,,,,,,,,,,,['return'],[0.38783159997547045],80.30283300002338,None,,,1,001,2021_Oct_25_1341,eeg_contingent_digits,2021.2.3,60.031756796555754,
0.0,9.0,4.0,6.0,10.0,1.0,1.0,0.0,,,,,,,,,,,,,,,,,0,0,0,0,2,0,2,0,,,,,,,,,,,,,,,,,,,,,,,,,,,,,,,,,['return'],[0.3772993999882601],80.71954840002581,None,,,1,001,2021_Oct_25_1341,eeg_contingent_digits,2021.2.3,60.031756796555754,
0.0,9.0,4.0,6.0,10.0,1.0,1.0,0.0,,,,,,,,,,,,,,,,,0,0,0,0,,,,,,,,,,,,,,,,,,,,,,,,,,,,,,,,,,,,,,,,,None,None,1,001,2021_Oct_25_1341,eeg_contingent_digits,2021.2.3,60.031756796555754,
1.0,4.0,6.0,2.0,21.0,0.0,0.0,-47.54009979757143,,,,,,,,,,,,,,,,,0,1,1,1,0,0,0,0,,,,,,,,,,,,,,,,,81.14408500003628,None,81.14408500003628,None,81.14408500003628,None,81.14408500003628,None,81.14408500003628,None,0.0022374000400304794,None,0.4808346999925561,None,0.9677783999941312,None,['return'],[0.581661999982316],85.78600270004245,None,,,1,001,2021_Oct_25_1341,eeg_contingent_digits,2021.2.3,60.031756796555754,
1.0,4.0,6.0,2.0,21.0,0.0,0.0,-47.54009979757143,,,,,,,,,,,,,,,,,0,1,1,1,1,0,1,0,,,,,,,,,,,,,,,,,,,,,,,,,,,,,,,,,['return'],[0.3665390000096522],86.38599490001798,None,,,1,001,2021_Oct_25_1341,eeg_contingent_digits,2021.2.3,60.031756796555754,
1.0,4.0,6.0,2.0,21.0,0.0,0.0,-47.54009979757143,,,,,,,,,,,,,,,,,0,1,1,1,2,0,2,0,,,,,,,,,,,,,,,,,,,,,,,,,,,,,,,,,['return'],[0.3365294999675825],86.7691085000406,None,,,1,001,2021_Oct_25_1341,eeg_contingent_digits,2021.2.3,60.031756796555754,
1.0,4.0,6.0,2.0,21.0,0.0,0.0,-47.54009979757143,,,,,,,,,,,,,,,,,0,1,1,1,,,,,,,,,,,,,,,,,,,,,,,,,,,,,,,,,,,,,,,,,None,None,1,001,2021_Oct_25_1341,eeg_contingent_digits,2021.2.3,60.031756796555754,
2.0,4.0,5.0,6.0,10.0,0.0,1.0,0.0,,,,,,,,,,,,,,,,,0,2,2,2,0,0,0,0,,,,,,,,,,,,,,,,,87.15661150001688,None,87.15661150001688,None,87.15661150001688,None,87.15661150001688,None,87.15661150001688,None,0.003977900021709502,None,0.47651419998146594,None,0.9596278999815695,None,['return'],[0.4895969000062905],91.875162500015,None,,,1,001,2021_Oct_25_1341,eeg_contingent_digits,2021.2.3,60.031756796555754,
2.0,4.0,5.0,6.0,10.0,0.0,1.0,0.0,,,,,,,,,,,,,,,,,0,2,2,2,1,0,1,0,,,,,,,,,,,,,,,,,,,,,,,,,,,,,,,,,['return'],[0.3101471000118181],92.38556050002808,None,,,1,001,2021_Oct_25_1341,eeg_contingent_digits,2021.2.3,60.031756796555754,
2.0,4.0,5.0,6.0,10.0,0.0,1.0,0.0,,,,,,,,,,,,,,,,,0,2,2,2,2,0,2,0,,,,,,,,,,,,,,,,,,,,,,,,,,,,,,,,,['return'],[0.32216199999675155],92.71895100001711,None,,,1,001,2021_Oct_25_1341,eeg_contingent_digits,2021.2.3,60.031756796555754,
2.0,4.0,5.0,6.0,10.0,0.0,1.0,0.0,,,,,,,,,,,,,,,,,0,2,2,2,,,,,,,,,,,,,,,,,,,,,,,,,,,,,,,,,,,,,,,,,None,None,1,001,2021_Oct_25_1341,eeg_contingent_digits,2021.2.3,60.031756796555754,
3.0,6.0,3.0,8.0,1.0,0.0,0.0,-22.6551931213993,,,,,,,,,,,,,,,,,0,3,3,3,0,0,0,0,,,,,,,,,,,,,,,,,93.08698439999716,None,93.08698439999716,None,93.08698439999716,None,93.08698439999716,None,93.08698439999716,None,0.012309899961110204,None,0.49044809996848926,None,0.9736029999912716,None,['return'],[0.47624379995977506],102.02544190001208,None,,,1,001,2021_Oct_25_1341,eeg_contingent_digits,2021.2.3,60.031756796555754,
3.0,6.0,3.0,8.0,1.0,0.0,0.0,-22.6551931213993,,,,,,,,,,,,,,,,,0,3,3,3,1,0,1,0,,,,,,,,,,,,,,,,,,,,,,,,,,,,,,,,,['return'],[0.4138451999751851],102.51783430000069,None,,,1,001,2021_Oct_25_1341,eeg_contingent_digits,2021.2.3,60.031756796555754,
3.0,6.0,3.0,8.0,1.0,0.0,0.0,-22.6551931213993,,,,,,,,,,,,,,,,,0,3,3,3,2,0,2,0,,,,,,,,,,,,,,,,,,,,,,,,,,,,,,,,,['return'],[0.394432200002484],102.95105279999552,None,,,1,001,2021_Oct_25_1341,eeg_contingent_digits,2021.2.3,60.031756796555754,
3.0,6.0,3.0,8.0,1.0,0.0,0.0,-22.6551931213993,,,,,,,,,,,,,,,,,0,3,3,3,,,,,,,,,,,,,,,,,,,,,,,,,,,,,,,,,,,,,,,,,103.41491709998809,None,1,001,2021_Oct_25_1341,eeg_contingent_digits,2021.2.3,60.031756796555754,
4.0,5.0,2.0,8.0,13.0,0.0,1.0,0.0,,,,,,,,,,,,,,,,,0,4,4,4,0,0,0,0,,,,,,,,,,,,,,,,,106.82983070000773,None,106.82983070000773,None,106.82983070000773,None,106.82983070000773,None,106.82983070000773,None,0.003855799965094775,None,0.4708372999448329,None,0.9752009999938309,None,['return'],[0.5078313999692909],111.23402100004023,None,,,1,001,2021_Oct_25_1341,eeg_contingent_digits,2021.2.3,60.031756796555754,
4.0,5.0,2.0,8.0,13.0,0.0,1.0,0.0,,,,,,,,,,,,,,,,,0,4,4,4,1,0,1,0,,,,,,,,,,,,,,,,,,,,,,,,,,,,,,,,,['return'],[0.3630087000201456],111.76728700002423,None,,,1,001,2021_Oct_25_1341,eeg_contingent_digits,2021.2.3,60.031756796555754,
4.0,5.0,2.0,8.0,13.0,0.0,1.0,0.0,,,,,,,,,,,,,,,,,0,4,4,4,2,0,2,0,,,,,,,,,,,,,,,,,,,,,,,,,,,,,,,,,['return'],[0.34950720000779256],112.15069999999832,None,,,1,001,2021_Oct_25_1341,eeg_contingent_digits,2021.2.3,60.031756796555754,
4.0,5.0,2.0,8.0,13.0,0.0,1.0,0.0,,,,,,,,,,,,,,,,,0,4,4,4,,,,,,,,,,,,,,,,,,,,,,,,,,,,,,,,,,,,,,,,,None,None,1,001,2021_Oct_25_1341,eeg_contingent_digits,2021.2.3,60.031756796555754,
5.0,1.0,4.0,9.0,10.0,1.0,0.0,-17.725645091934542,,,,,,,,,,,,,,,,,0,5,5,5,0,0,0,0,,,,,,,,,,,,,,,,,112.52871089999098,None,112.52871089999098,None,112.52871089999098,None,112.52871089999098,None,112.52871089999098,None,0.002979199984110892,None,0.48709920002147555,None,0.9740580000216141,None,['return'],[0.5075308000086807],119.71685730002355,None,,,1,001,2021_Oct_25_1341,eeg_contingent_digits,2021.2.3,60.031756796555754,
5.0,1.0,4.0,9.0,10.0,1.0,0.0,-17.725645091934542,,,,,,,,,,,,,,,,,0,5,5,5,1,0,1,0,,,,,,,,,,,,,,,,,,,,,,,,,,,,,,,,,['return'],[0.4093552000122145],120.24950460001128,None,,,1,001,2021_Oct_25_1341,eeg_contingent_digits,2021.2.3,60.031756796555754,
5.0,1.0,4.0,9.0,10.0,1.0,0.0,-17.725645091934542,,,,,,,,,,,,,,,,,0,5,5,5,2,0,2,0,,,,,,,,,,,,,,,,,,,,,,,,,,,,,,,,,['return'],[0.34017350000794977],120.68337290000636,None,,,1,001,2021_Oct_25_1341,eeg_contingent_digits,2021.2.3,60.031756796555754,
5.0,1.0,4.0,9.0,10.0,1.0,0.0,-17.725645091934542,,,,,,,,,,,,,,,,,0,5,5,5,,,,,,,,,,,,,,,,,,,,,,,,,,,,,,,,,,,,,,,,,None,None,1,001,2021_Oct_25_1341,eeg_contingent_digits,2021.2.3,60.031756796555754,
6.0,6.0,3.0,0.0,10.0,0.0,1.0,0.0,,,,,,,,,,,,,,,,,0,6,6,6,0,0,0,0,,,,,,,,,,,,,,,,,121.06021140003577,None,121.06021140003577,None,121.06021140003577,None,121.06021140003577,None,121.06021140003577,None,0.0149243000196293,None,0.4906765000196174,None,0.9574614000157453,None,['return'],[0.6306054999586195],128.3882116000168,None,,,1,001,2021_Oct_25_1341,eeg_contingent_digits,2021.2.3,60.031756796555754,
6.0,6.0,3.0,0.0,10.0,0.0,1.0,0.0,,,,,,,,,,,,,,,,,0,6,6,6,1,0,1,0,,,,,,,,,,,,,,,,,,,,,,,,,,,,,,,,,['return'],[0.3581592999980785],129.04929679998895,None,,,1,001,2021_Oct_25_1341,eeg_contingent_digits,2021.2.3,60.031756796555754,
6.0,6.0,3.0,0.0,10.0,0.0,1.0,0.0,,,,,,,,,,,,,,,,,0,6,6,6,2,0,2,0,,,,,,,,,,,,,,,,,,,,,,,,,,,,,,,,,['return'],[0.37140980002004653],129.43266940000467,None,,,1,001,2021_Oct_25_1341,eeg_contingent_digits,2021.2.3,60.031756796555754,
6.0,6.0,3.0,0.0,10.0,0.0,1.0,0.0,,,,,,,,,,,,,,,,,0,6,6,6,,,,,,,,,,,,,,,,,,,,,,,,,,,,,,,,,,,,,,,,,None,None,1,001,2021_Oct_25_1341,eeg_contingent_digits,2021.2.3,60.031756796555754,
7.0,2.0,3.0,8.0,61.0,1.0,0.0,-50.30124596705124,,,,,,,,,,,,,,,,,0,7,7,7,0,0,0,0,,,,,,,,,,,,,,,,,129.85133500001393,None,129.85133500001393,None,129.85133500001393,None,129.85133500001393,None,129.85133500001393,None,0.01593309995951131,None,0.495097299979534,None,0.9784198999404907,None,['return'],[0.5358961000456475],146.65548750001471,None,,,1,001,2021_Oct_25_1341,eeg_contingent_digits,2021.2.3,60.031756796555754,
7.0,2.0,3.0,8.0,61.0,1.0,0.0,-50.30124596705124,,,,,,,,,,,,,,,,,0,7,7,7,1,0,1,0,,,,,,,,,,,,,,,,,,,,,,,,,,,,,,,,,['return'],[0.4109673000057228],147.21438560000388,None,,,1,001,2021_Oct_25_1341,eeg_contingent_digits,2021.2.3,60.031756796555754,
7.0,2.0,3.0,8.0,61.0,1.0,0.0,-50.30124596705124,,,,,,,,,,,,,,,,,0,7,7,7,2,0,2,0,,,,,,,,,,,,,,,,,,,,,,,,,,,,,,,,,['return'],[0.37060120003297925],147.6479141000309,None,,,1,001,2021_Oct_25_1341,eeg_contingent_digits,2021.2.3,60.031756796555754,
7.0,2.0,3.0,8.0,61.0,1.0,0.0,-50.30124596705124,,,,,,,,,,,,,,,,,0,7,7,7,,,,,,,,,,,,,,,,,,,,,,,,,,,,,,,,,,,,,,,,,148.0848775000195,None,1,001,2021_Oct_25_1341,eeg_contingent_digits,2021.2.3,60.031756796555754,
8.0,2.0,5.0,0.0,7.0,0.0,1.0,0.0,,,,,,,,,,,,,,,,,0,8,8,8,0,0,0,0,,,,,,,,,,,,,,,,,149.97594939998817,None,149.97594939998817,None,149.97594939998817,None,149.97594939998817,None,149.97594939998817,None,0.0025636000209487975,None,0.4858369000139646,None,0.9525895000551827,None,['return'],[0.6719817999983206],165.20400680002058,None,,,1,001,2021_Oct_25_1341,eeg_contingent_digits,2021.2.3,60.031756796555754,
8.0,2.0,5.0,0.0,7.0,0.0,1.0,0.0,,,,,,,,,,,,,,,,,0,8,8,8,1,0,1,0,,,,,,,,,,,,,,,,,,,,,,,,,,,,,,,,,['return'],[0.40258640004321933],165.8962041999912,None,,,1,001,2021_Oct_25_1341,eeg_contingent_digits,2021.2.3,60.031756796555754,
8.0,2.0,5.0,0.0,7.0,0.0,1.0,0.0,,,,,,,,,,,,,,,,,0,8,8,8,2,0,2,0,,,,,,,,,,,,,,,,,,,,,,,,,,,,,,,,,['return'],[0.34197409998159856],166.32949040003587,None,,,1,001,2021_Oct_25_1341,eeg_contingent_digits,2021.2.3,60.031756796555754,
8.0,2.0,5.0,0.0,7.0,0.0,1.0,0.0,,,,,,,,,,,,,,,,,0,8,8,8,,,,,,,,,,,,,,,,,,,,,,,,,,,,,,,,,,,,,,,,,None,None,1,001,2021_Oct_25_1341,eeg_contingent_digits,2021.2.3,60.031756796555754,
9.0,3.0,1.0,4.0,33.0,0.0,0.0,-34.343066407975286,,,,,,,,,,,,,,,,,0,9,9,9,0,0,0,0,,,,,,,,,,,,,,,,,166.71645360003458,None,166.71645360003458,None,166.71645360003458,None,166.71645360003458,None,166.71645360003458,None,0.00646880007116124,None,0.48989930003881454,None,0.9562632000888698,None,['return'],[0.6543357000336982],181.20044370001415,None,,,1,001,2021_Oct_25_1341,eeg_contingent_digits,2021.2.3,60.031756796555754,
9.0,3.0,1.0,4.0,33.0,0.0,0.0,-34.343066407975286,,,,,,,,,,,,,,,,,0,9,9,9,1,0,1,0,,,,,,,,,,,,,,,,,,,,,,,,,,,,,,,,,['return'],[0.3982084000017494],181.8786992999958,None,,,1,001,2021_Oct_25_1341,eeg_contingent_digits,2021.2.3,60.031756796555754,
9.0,3.0,1.0,4.0,33.0,0.0,0.0,-34.343066407975286,,,,,,,,,,,,,,,,,0,9,9,9,2,0,2,0,,,,,,,,,,,,,,,,,,,,,,,,,,,,,,,,,['return'],[0.379452700028196],182.2951972000301,None,,,1,001,2021_Oct_25_1341,eeg_contingent_digits,2021.2.3,60.031756796555754,
9.0,3.0,1.0,4.0,33.0,0.0,0.0,-34.343066407975286,,,,,,,,,,,,,,,,,0,9,9,9,,,,,,,,,,,,,,,,,,,,,,,,,,,,,,,,,,,,,,,,,None,None,1,001,2021_Oct_25_1341,eeg_contingent_digits,2021.2.3,60.031756796555754,
10.0,5.0,9.0,0.0,48.0,1.0,1.0,0.0,,,,,,,,,,,,,,,,,0,10,10,10,0,0,0,0,,,,,,,,,,,,,,,,,182.70816380000906,None,182.70816380000906,None,182.70816380000906,None,182.70816380000906,None,182.70816380000906,None,0.011299300007522106,None,0.486304999969434,None,0.9693747999845073,None,['return'],[0.4560443999944255],188.50147459999425,None,,,1,001,2021_Oct_25_1341,eeg_contingent_digits,2021.2.3,60.031756796555754,
10.0,5.0,9.0,0.0,48.0,1.0,1.0,0.0,,,,,,,,,,,,,,,,,0,10,10,10,1,0,1,0,,,,,,,,,,,,,,,,,,,,,,,,,,,,,,,,,['return'],[0.4511723999748938],188.97776959999464,None,,,1,001,2021_Oct_25_1341,eeg_contingent_digits,2021.2.3,60.031756796555754,
10.0,5.0,9.0,0.0,48.0,1.0,1.0,0.0,,,,,,,,,,,,,,,,,0,10,10,10,2,0,2,0,,,,,,,,,,,,,,,,,,,,,,,,,,,,,,,,,['return'],[0.3849917000043206],189.44467590004206,None,,,1,001,2021_Oct_25_1341,eeg_contingent_digits,2021.2.3,60.031756796555754,
10.0,5.0,9.0,0.0,48.0,1.0,1.0,0.0,,,,,,,,,,,,,,,,,0,10,10,10,,,,,,,,,,,,,,,,,,,,,,,,,,,,,,,,,,,,,,,,,None,None,1,001,2021_Oct_25_1341,eeg_contingent_digits,2021.2.3,60.031756796555754,
11.0,8.0,3.0,1.0,21.0,0.0,0.0,-13.522238826855848,,,,,,,,,,,,,,,,,0,11,11,11,0,0,0,0,,,,,,,,,,,,,,,,,189.87993679998908,None,189.87993679998908,None,189.87993679998908,None,189.87993679998908,None,189.87993679998908,None,0.009444900031667203,None,0.49462599999969825,None,0.9779764999984764,None,['return'],[0.6147001999779604],203.2934275000007,None,,,1,001,2021_Oct_25_1341,eeg_contingent_digits,2021.2.3,60.031756796555754,
11.0,8.0,3.0,1.0,21.0,0.0,0.0,-13.522238826855848,,,,,,,,,,,,,,,,,0,11,11,11,1,0,1,0,,,,,,,,,,,,,,,,,,,,,,,,,,,,,,,,,['return'],[0.3852301000151783],203.92695960000856,None,,,1,001,2021_Oct_25_1341,eeg_contingent_digits,2021.2.3,60.031756796555754,
11.0,8.0,3.0,1.0,21.0,0.0,0.0,-13.522238826855848,,,,,,,,,,,,,,,,,0,11,11,11,2,0,2,0,,,,,,,,,,,,,,,,,,,,,,,,,,,,,,,,,['return'],[0.33443160000024363],204.3433645000332,None,,,1,001,2021_Oct_25_1341,eeg_contingent_digits,2021.2.3,60.031756796555754,
11.0,8.0,3.0,1.0,21.0,0.0,0.0,-13.522238826855848,,,,,,,,,,,,,,,,,0,11,11,11,,,,,,,,,,,,,,,,,,,,,,,,,,,,,,,,,,,,,,,,,204.7425368000404,None,1,001,2021_Oct_25_1341,eeg_contingent_digits,2021.2.3,60.031756796555754,
12.0,2.0,4.0,1.0,7.0,1.0,1.0,0.0,,,,,,,,,,,,,,,,,0,12,12,12,0,0,0,0,,,,,,,,,,,,,,,,,206.17717610002728,None,206.17717610002728,None,206.17717610002728,None,206.17717610002728,None,206.17717610002728,None,0.015781399910338223,None,0.488553199917078,None,0.9722269999329001,None,['return'],[1.2726135000120848],212.05922719999216,None,,,1,001,2021_Oct_25_1341,eeg_contingent_digits,2021.2.3,60.031756796555754,
12.0,2.0,4.0,1.0,7.0,1.0,1.0,0.0,,,,,,,,,,,,,,,,,0,12,12,12,1,0,1,0,,,,,,,,,,,,,,,,,,,,,,,,,,,,,,,,,['return'],[0.3987000999622978],213.3593119000434,None,,,1,001,2021_Oct_25_1341,eeg_contingent_digits,2021.2.3,60.031756796555754,
12.0,2.0,4.0,1.0,7.0,1.0,1.0,0.0,,,,,,,,,,,,,,,,,0,12,12,12,2,0,2,0,,,,,,,,,,,,,,,,,,,,,,,,,,,,,,,,,['return'],[0.3996000000042841],213.77615500002867,None,,,1,001,2021_Oct_25_1341,eeg_contingent_digits,2021.2.3,60.031756796555754,
12.0,2.0,4.0,1.0,7.0,1.0,1.0,0.0,,,,,,,,,,,,,,,,,0,12,12,12,,,,,,,,,,,,,,,,,,,,,,,,,,,,,,,,,,,,,,,,,None,None,1,001,2021_Oct_25_1341,eeg_contingent_digits,2021.2.3,60.031756796555754,
13.0,2.0,8.0,5.0,48.0,1.0,0.0,-50.587892625399206,,,,,,,,,,,,,,,,,0,13,13,13,0,0,0,0,,,,,,,,,,,,,,,,,214.2138871999923,None,214.2138871999923,None,214.2138871999923,None,214.2138871999923,None,214.2138871999923,None,0.006859700020868331,None,0.4907400999800302,None,0.9571370999910869,None,['return'],[1.2309430000022985],224.9988696000073,None,,,1,001,2021_Oct_25_1341,eeg_contingent_digits,2021.2.3,60.031756796555754,
13.0,2.0,8.0,5.0,48.0,1.0,0.0,-50.587892625399206,,,,,,,,,,,,,,,,,0,13,13,13,1,0,1,0,,,,,,,,,,,,,,,,,,,,,,,,,,,,,,,,,['return'],[0.4048374999547377],226.2582473999937,None,,,1,001,2021_Oct_25_1341,eeg_contingent_digits,2021.2.3,60.031756796555754,
13.0,2.0,8.0,5.0,48.0,1.0,0.0,-50.587892625399206,,,,,,,,,,,,,,,,,0,13,13,13,2,0,2,0,,,,,,,,,,,,,,,,,,,,,,,,,,,,,,,,,['return'],[0.2958809999981895],226.691565599991,None,,,1,001,2021_Oct_25_1341,eeg_contingent_digits,2021.2.3,60.031756796555754,
13.0,2.0,8.0,5.0,48.0,1.0,0.0,-50.587892625399206,,,,,,,,,,,,,,,,,0,13,13,13,,,,,,,,,,,,,,,,,,,,,,,,,,,,,,,,,,,,,,,,,None,None,1,001,2021_Oct_25_1341,eeg_contingent_digits,2021.2.3,60.031756796555754,
14.0,8.0,4.0,1.0,1.0,0.0,1.0,0.0,,,,,,,,,,,,,,,,,0,14,14,14,0,0,0,0,,,,,,,,,,,,,,,,,227.02689269999973,None,227.02689269999973,None,227.02689269999973,None,227.02689269999973,None,227.02689269999973,None,0.005367700068745762,None,0.47656930005177855,None,0.959878700086847,None,['return'],[0.5566147000063211],232.19762340001762,None,,,1,001,2021_Oct_25_1341,eeg_contingent_digits,2021.2.3,60.031756796555754,
14.0,8.0,4.0,1.0,1.0,0.0,1.0,0.0,,,,,,,,,,,,,,,,,0,14,14,14,1,0,1,0,,,,,,,,,,,,,,,,,,,,,,,,,,,,,,,,,['return'],[0.3819777999888174],232.77442060003523,None,,,1,001,2021_Oct_25_1341,eeg_contingent_digits,2021.2.3,60.031756796555754,
14.0,8.0,4.0,1.0,1.0,0.0,1.0,0.0,,,,,,,,,,,,,,,,,0,14,14,14,2,0,2,0,,,,,,,,,,,,,,,,,,,,,,,,,,,,,,,,,['return'],[0.3620824000099674],233.17468280001776,None,,,1,001,2021_Oct_25_1341,eeg_contingent_digits,2021.2.3,60.031756796555754,
14.0,8.0,4.0,1.0,1.0,0.0,1.0,0.0,,,,,,,,,,,,,,,,,0,14,14,14,,,,,,,,,,,,,,,,,,,,,,,,,,,,,,,,,,,,,,,,,None,None,1,001,2021_Oct_25_1341,eeg_contingent_digits,2021.2.3,60.031756796555754,
15.0,3.0,1.0,9.0,13.0,0.0,0.0,-50.3243738798628,,,,,,,,,,,,,,,,,0,15,15,15,0,0,0,0,,,,,,,,,,,,,,,,,233.56944390002172,None,233.56944390002172,None,233.56944390002172,None,233.56944390002172,None,233.56944390002172,None,0.01059210003586486,None,0.4714281000196934,None,0.9547553000156768,None,['return'],[0.6256419999990612],242.6918748000171,None,,,1,001,2021_Oct_25_1341,eeg_contingent_digits,2021.2.3,60.031756796555754,
15.0,3.0,1.0,9.0,13.0,0.0,0.0,-50.3243738798628,,,,,,,,,,,,,,,,,0,15,15,15,1,0,1,0,,,,,,,,,,,,,,,,,,,,,,,,,,,,,,,,,['return'],[0.3990055000176653],243.3402352000121,None,,,1,001,2021_Oct_25_1341,eeg_contingent_digits,2021.2.3,60.031756796555754,
15.0,3.0,1.0,9.0,13.0,0.0,0.0,-50.3243738798628,,,,,,,,,,,,,,,,,0,15,15,15,2,0,2,0,,,,,,,,,,,,,,,,,,,,,,,,,,,,,,,,,['return'],[0.34225280000828207],243.75707240001066,None,,,1,001,2021_Oct_25_1341,eeg_contingent_digits,2021.2.3,60.031756796555754,
15.0,3.0,1.0,9.0,13.0,0.0,0.0,-50.3243738798628,,,,,,,,,,,,,,,,,0,15,15,15,,,,,,,,,,,,,,,,,,,,,,,,,,,,,,,,,,,,,,,,,244.14886150002712,None,1,001,2021_Oct_25_1341,eeg_contingent_digits,2021.2.3,60.031756796555754,
