TrialID,NFB_digit1,NFB_digit2,NFB_digit3,Speaker_trial,Degrad_trial,Triggered_trial,Jitter_trial,practice_block.thisRepN,practice_block.thisTrialN,practice_block.thisN,practice_block.thisIndex,practice_trials.thisRepN,practice_trials.thisTrialN,practice_trials.thisN,practice_trials.thisIndex,response_practice.thisRepN,response_practice.thisTrialN,response_practice.thisN,response_practice.thisIndex,calibration_block.thisRepN,calibration_block.thisTrialN,calibration_block.thisN,calibration_block.thisIndex,exp_trials.thisRepN,exp_trials.thisTrialN,exp_trials.thisN,exp_trials.thisIndex,response_exp.thisRepN,response_exp.thisTrialN,response_exp.thisN,response_exp.thisIndex,Digit1_clear.started,Digit1_clear.stopped,Digit2_clear.started,Digit2_clear.stopped,Digit3_clear.started,Digit3_clear.stopped,key_resp_3.keys,key_resp_3.rt,key_resp_3.started,key_resp_3.stopped,text_4.started,text_4.stopped,text_5.started,text_5.stopped,Begin.started,Begin.stopped,Fixation.started,Fixation.stopped,text_6.started,text_6.stopped,text_2.started,text_2.stopped,text_7.started,text_7.stopped,text_8.started,text_8.stopped,sound_digit1.started,sound_digit1.stopped,sound_digit2.started,sound_digit2.stopped,sound_digit3.started,sound_digit3.stopped,key_resp.keys,key_resp.rt,key_resp.started,key_resp.stopped,Begin_3.started,Begin_3.stopped,participant,session,date,expName,psychopyVersion,frameRate,
0.0,6.0,2.0,4.0,33.0,,,,0,0,0,0,0,0,0,0,0,0,0,0,,,,,,,,,,,,,0.004539349989499897,None,0.47426485002506524,None,0.9578493500011973,None,['return'],[0.3730068000149913],18.0333488000324,None,,,,,,,,,,,,,,,,,,,,,,,,,,,,,1,001,2021_Oct_25_1351,eeg_contingent_digits,2021.2.3,59.94316188678202,
0.0,6.0,2.0,4.0,33.0,,,,0,0,0,0,0,0,0,0,1,0,1,0,,,,,,,,,,,,,,,,,,,['return'],[0.15529759996570647],18.431394500017632,None,,,,,,,,,,,,,,,,,,,,,,,,,,,,,1,001,2021_Oct_25_1351,eeg_contingent_digits,2021.2.3,59.94316188678202,
0.0,6.0,2.0,4.0,33.0,,,,0,0,0,0,0,0,0,0,2,0,2,0,,,,,,,,,,,,,,,,,,,['return'],[0.1688336000079289],18.614656499994453,None,,,,,,,,,,,,,,,,,,,,,,,,,,,,,1,001,2021_Oct_25_1351,eeg_contingent_digits,2021.2.3,59.94316188678202,
0.0,6.0,2.0,4.0,33.0,,,,0,0,0,0,0,0,0,0,,,,,,,,,,,,,,,,,,,,,,,,,,,,,,,,,,,,,,,,,,,,,,,,,,,,,,,1,001,2021_Oct_25_1351,eeg_contingent_digits,2021.2.3,59.94316188678202,
1.0,1.0,9.0,3.0,13.0,,,,0,0,0,0,0,1,1,1,0,0,0,0,,,,,,,,,,,,,0.010544349963311106,None,0.47090404998743907,None,0.9542915499769151,None,['return'],[0.1213141999905929],20.25527530000545,None,,,,,,,,,,,,,,,,,,,,,,,,,,,,,1,001,2021_Oct_25_1351,eeg_contingent_digits,2021.2.3,59.94316188678202,
1.0,1.0,9.0,3.0,13.0,,,,0,0,0,0,0,1,1,1,1,0,1,0,,,,,,,,,,,,,,,,,,,['return'],[0.17924339999444783],20.398131800000556,None,,,,,,,,,,,,,,,,,,,,,,,,,,,,,1,001,2021_Oct_25_1351,eeg_contingent_digits,2021.2.3,59.94316188678202,
1.0,1.0,9.0,3.0,13.0,,,,0,0,0,0,0,1,1,1,2,0,2,0,,,,,,,,,,,,,,,,,,,['return'],[0.16809299995657057],20.59783809998771,None,,,,,,,,,,,,,,,,,,,,,,,,,,,,,1,001,2021_Oct_25_1351,eeg_contingent_digits,2021.2.3,59.94316188678202,
1.0,1.0,9.0,3.0,13.0,,,,0,0,0,0,0,1,1,1,,,,,,,,,,,,,,,,,,,,,,,,,,,,,,,,,,,,,,,,,,,,,,,,,,,,,,,1,001,2021_Oct_25_1351,eeg_contingent_digits,2021.2.3,59.94316188678202,
2.0,8.0,0.0,1.0,21.0,,,,0,0,0,0,0,2,2,2,0,0,0,0,,,,,,,,,,,,,0.011256949976086617,None,0.49363074998836964,None,0.9556851499946788,None,None,,22.2308245500084,None,,,,,,,,,,,,,,,,,,,,,,,,,,,,,1,001,2021_Oct_25_1351,eeg_contingent_digits,2021.2.3,59.94316188678202,
2.0,8.0,0.0,1.0,21.0,,,,0,0,0,0,0,2,2,2,1,0,1,0,,,,,,,,,,,,,,,,,,,['return'],[0.1977672999491915],22.237730900000315,None,,,,,,,,,,,,,,,,,,,,,,,,,,,,,1,001,2021_Oct_25_1351,eeg_contingent_digits,2021.2.3,59.94316188678202,
2.0,8.0,0.0,1.0,21.0,,,,0,0,0,0,0,2,2,2,2,0,2,0,,,,,,,,,,,,,,,,,,,['return'],[0.1692204999853857],22.464267300034408,None,,,,,,,,,,,,,,,,,,,,,,,,,,,,,1,001,2021_Oct_25_1351,eeg_contingent_digits,2021.2.3,59.94316188678202,
2.0,8.0,0.0,1.0,21.0,,,,0,0,0,0,0,2,2,2,,,,,,,,,,,,,,,,,,,,,,,,,,,,,,,,,,,,,,,,,,,,,,,,,,,,,,,1,001,2021_Oct_25_1351,eeg_contingent_digits,2021.2.3,59.94316188678202,
3.0,9.0,6.0,1.0,61.0,,,,0,0,0,0,0,3,3,3,0,0,0,0,,,,,,,,,,,,,0.010594549996312708,None,0.48751025000819936,None,0.9709026500349864,None,None,,24.113960800005586,None,,,,,,,,,,,,,,,,,,,,,,,,,,,,,1,001,2021_Oct_25_1351,eeg_contingent_digits,2021.2.3,59.94316188678202,
3.0,9.0,6.0,1.0,61.0,,,,0,0,0,0,0,3,3,3,1,0,1,0,,,,,,,,,,,,,,,,,,,['return'],[0.18811380001716316],24.10719250002876,None,,,,,,,,,,,,,,,,,,,,,,,,,,,,,1,001,2021_Oct_25_1351,eeg_contingent_digits,2021.2.3,59.94316188678202,
3.0,9.0,6.0,1.0,61.0,,,,0,0,0,0,0,3,3,3,2,0,2,0,,,,,,,,,,,,,,,,,,,['return'],[0.17026360001182184],24.314293900039047,None,,,,,,,,,,,,,,,,,,,,,,,,,,,,,1,001,2021_Oct_25_1351,eeg_contingent_digits,2021.2.3,59.94316188678202,
3.0,9.0,6.0,1.0,61.0,,,,0,0,0,0,0,3,3,3,,,,,,,,,,,,,,,,,,,,,,,,,,,,,,,,,,,,,,,,,,,,,,,,,,,,,,,1,001,2021_Oct_25_1351,eeg_contingent_digits,2021.2.3,59.94316188678202,
4.0,8.0,1.0,5.0,7.0,,,,0,0,0,0,0,4,4,4,0,0,0,0,,,,,,,,,,,,,0.010967150039505213,None,0.4883528500213288,None,0.9547473500133492,None,['return'],[0.08675449999282137],25.950279999990016,None,,,,,,,,,,,,,,,,,,,,,,,,,,,,,1,001,2021_Oct_25_1351,eeg_contingent_digits,2021.2.3,59.94316188678202,
4.0,8.0,1.0,5.0,7.0,,,,0,0,0,0,0,4,4,4,1,0,1,0,,,,,,,,,,,,,,,,,,,['return'],[0.1816926000174135],26.064015300013125,None,,,,,,,,,,,,,,,,,,,,,,,,,,,,,1,001,2021_Oct_25_1351,eeg_contingent_digits,2021.2.3,59.94316188678202,
4.0,8.0,1.0,5.0,7.0,,,,0,0,0,0,0,4,4,4,2,0,2,0,,,,,,,,,,,,,,,,,,,['return'],[0.17852249997667968],26.264136600017082,None,,,,,,,,,,,,,,,,,,,,,,,,,,,,,1,001,2021_Oct_25_1351,eeg_contingent_digits,2021.2.3,59.94316188678202,
4.0,8.0,1.0,5.0,7.0,,,,0,0,0,0,0,4,4,4,,,,,,,,,,,,,,,,,,,,,,,,,,,,,,,,,,,,,,,,,,,,,,,,,,,,,,,1,001,2021_Oct_25_1351,eeg_contingent_digits,2021.2.3,59.94316188678202,
5.0,4.0,1.0,0.0,33.0,,,,0,0,0,0,0,5,5,5,0,0,0,0,,,,,,,,,,,,,0.009350150008685887,None,0.4855434500495903,None,0.9687861500424333,None,['return'],[0.028872599999886006],27.904886300035287,None,,,,,,,,,,,,,,,,,,,,,,,,,,,,,1,001,2021_Oct_25_1351,eeg_contingent_digits,2021.2.3,59.94316188678202,
5.0,4.0,1.0,0.0,33.0,,,,0,0,0,0,0,5,5,5,1,0,1,0,,,,,,,,,,,,,,,,,,,['return'],[0.1785033000051044],27.9641364000272,None,,,,,,,,,,,,,,,,,,,,,,,,,,,,,1,001,2021_Oct_25_1351,eeg_contingent_digits,2021.2.3,59.94316188678202,
5.0,4.0,1.0,0.0,33.0,,,,0,0,0,0,0,5,5,5,2,0,2,0,,,,,,,,,,,,,,,,,,,['return'],[0.1784518999629654],28.164030199986883,None,,,,,,,,,,,,,,,,,,,,,,,,,,,,,1,001,2021_Oct_25_1351,eeg_contingent_digits,2021.2.3,59.94316188678202,
5.0,4.0,1.0,0.0,33.0,,,,0,0,0,0,0,5,5,5,,,,,,,,,,,,,,,,,,,,,,,,,,,,,,,,,,,,,,,,,,,,,,,,,,,,,,,1,001,2021_Oct_25_1351,eeg_contingent_digits,2021.2.3,59.94316188678202,
6.0,9.0,2.0,6.0,13.0,,,,0,0,0,0,0,6,6,6,0,0,0,0,,,,,,,,,,,,,0.010459250072017312,None,0.4870076500810683,None,0.9706891500391066,None,['return'],[0.11123579996638],29.801101799996104,None,,,,,,,,,,,,,,,,,,,,,,,,,,,,,1,001,2021_Oct_25_1351,eeg_contingent_digits,2021.2.3,59.94316188678202,
6.0,9.0,2.0,6.0,13.0,,,,0,0,0,0,0,6,6,6,1,0,1,0,,,,,,,,,,,,,,,,,,,['return'],[0.18971880001481622],29.930535799998324,None,,,,,,,,,,,,,,,,,,,,,,,,,,,,,1,001,2021_Oct_25_1351,eeg_contingent_digits,2021.2.3,59.94316188678202,
6.0,9.0,2.0,6.0,13.0,,,,0,0,0,0,0,6,6,6,2,0,2,0,,,,,,,,,,,,,,,,,,,['return'],[0.17063740000594407],30.147109600016847,None,,,,,,,,,,,,,,,,,,,,,,,,,,,,,1,001,2021_Oct_25_1351,eeg_contingent_digits,2021.2.3,59.94316188678202,
6.0,9.0,2.0,6.0,13.0,,,,0,0,0,0,0,6,6,6,,,,,,,,,,,,,,,,,,,,,,,,,,,,,,,,,,,,,,,,,,,,,,,,,,,,,,,1,001,2021_Oct_25_1351,eeg_contingent_digits,2021.2.3,59.94316188678202,
7.0,2.0,3.0,0.0,10.0,,,,0,0,0,0,0,7,7,7,0,0,0,0,,,,,,,,,,,,,0.010531750041991472,None,0.4705727500258945,None,0.9538553500315174,None,['return'],[0.0925073999678716],31.78076210001018,None,,,,,,,,,,,,,,,,,,,,,,,,,,,,,1,001,2021_Oct_25_1351,eeg_contingent_digits,2021.2.3,59.94316188678202,
7.0,2.0,3.0,0.0,10.0,,,,0,0,0,0,0,7,7,7,1,0,1,0,,,,,,,,,,,,,,,,,,,['return'],[0.1817000000155531],31.89699219999602,None,,,,,,,,,,,,,,,,,,,,,,,,,,,,,1,001,2021_Oct_25_1351,eeg_contingent_digits,2021.2.3,59.94316188678202,
7.0,2.0,3.0,0.0,10.0,,,,0,0,0,0,0,7,7,7,2,0,2,0,,,,,,,,,,,,,,,,,,,['return'],[0.16527290001977235],32.09696290001739,None,,,,,,,,,,,,,,,,,,,,,,,,,,,,,1,001,2021_Oct_25_1351,eeg_contingent_digits,2021.2.3,59.94316188678202,
7.0,2.0,3.0,0.0,10.0,,,,0,0,0,0,0,7,7,7,,,,,,,,,,,,,,,,,,,,,,,,,,,,,,,,,,,,,,,,,,,,,,,,,,,,,,,1,001,2021_Oct_25_1351,eeg_contingent_digits,2021.2.3,59.94316188678202,
8.0,1.0,9.0,2.0,48.0,,,,0,0,0,0,0,8,8,8,0,0,0,0,,,,,,,,,,,,,0.008242250012699515,None,0.48298615001840517,None,0.9660667499992996,None,['return'],[0.06552979996195063],33.73012890003156,None,,,,,,,,,,,,,,,,,,,,,,,,,,,,,1,001,2021_Oct_25_1351,eeg_contingent_digits,2021.2.3,59.94316188678202,
8.0,1.0,9.0,2.0,48.0,,,,0,0,0,0,0,8,8,8,1,0,1,0,,,,,,,,,,,,,,,,,,,['return'],[0.19024750002427027],33.8134723000112,None,,,,,,,,,,,,,,,,,,,,,,,,,,,,,1,001,2021_Oct_25_1351,eeg_contingent_digits,2021.2.3,59.94316188678202,
8.0,1.0,9.0,2.0,48.0,,,,0,0,0,0,0,8,8,8,2,0,2,0,,,,,,,,,,,,,,,,,,,['return'],[0.18236590002197772],34.03017620003084,None,,,,,,,,,,,,,,,,,,,,,,,,,,,,,1,001,2021_Oct_25_1351,eeg_contingent_digits,2021.2.3,59.94316188678202,
8.0,1.0,9.0,2.0,48.0,,,,0,0,0,0,0,8,8,8,,,,,,,,,,,,,,,,,,,,,,,,,,,,,,,,,,,,,,,,,,,,,,,,,,,,,,,1,001,2021_Oct_25_1351,eeg_contingent_digits,2021.2.3,59.94316188678202,
9.0,8.0,1.0,0.0,21.0,,,,0,0,0,0,0,9,9,9,0,0,0,0,,,,,,,,,,,,,0.010580750065855682,None,0.4875510500278324,None,0.9710190500481986,None,['return'],[0.08402910002041608],35.668691600032616,None,,,,,,,,,,,,,,,,,,,,,,,,,,,,,1,001,2021_Oct_25_1351,eeg_contingent_digits,2021.2.3,59.94316188678202,
9.0,8.0,1.0,0.0,21.0,,,,0,0,0,0,0,9,9,9,1,0,1,0,,,,,,,,,,,,,,,,,,,['return'],[0.1778055999893695],35.779931500030216,None,,,,,,,,,,,,,,,,,,,,,,,,,,,,,1,001,2021_Oct_25_1351,eeg_contingent_digits,2021.2.3,59.94316188678202,
9.0,8.0,1.0,0.0,21.0,,,,0,0,0,0,0,9,9,9,2,0,2,0,,,,,,,,,,,,,,,,,,,['return'],[0.1738302999874577],35.97997400001623,None,,,,,,,,,,,,,,,,,,,,,,,,,,,,,1,001,2021_Oct_25_1351,eeg_contingent_digits,2021.2.3,59.94316188678202,
9.0,8.0,1.0,0.0,21.0,,,,0,0,0,0,0,9,9,9,,,,,,,,,,,,,,,,,,,,,,,,,,,,,,,,,,,,,,,,,,,,,,,,,,,,,,,1,001,2021_Oct_25_1351,eeg_contingent_digits,2021.2.3,59.94316188678202,
,,,,,,,,0,0,0,0,,,,,,,,,,,,,,,,,,,,,,,,,,,,,,,36.18009770003846,None,,,,,,,,,,,,,,,,,,,,,,,,,,,1,001,2021_Oct_25_1351,eeg_contingent_digits,2021.2.3,59.94316188678202,
,,,,,,,,,,,,,,,,,,,,0,0,0,0,,,,,,,,,,,,,,,,,,,,,59.534201100002974,None,,,,,,,,,,,,,,,,,,,,,,,,,1,001,2021_Oct_25_1351,eeg_contingent_digits,2021.2.3,59.94316188678202,
0.0,3.0,2.0,9.0,13.0,1.0,1.0,0.0,,,,,,,,,,,,,,,,,0,0,0,0,0,0,0,0,,,,,,,,,,,,,,,69.54621950001456,None,70.96077870001318,None,70.96077870001318,None,70.96077870001318,None,70.96077870001318,None,70.96077870001318,None,0.0061626999522559345,None,0.46758169995155185,None,0.9510356999817304,None,['return'],[0.46261470002355054],75.57692560000578,None,,,1,001,2021_Oct_25_1351,eeg_contingent_digits,2021.2.3,59.94316188678202,
0.0,3.0,2.0,9.0,13.0,1.0,1.0,0.0,,,,,,,,,,,,,,,,,0,0,0,0,1,0,1,0,,,,,,,,,,,,,,,,,,,,,,,,,,,,,,,,,['return'],[0.22014889999991283],76.06036290002521,None,,,1,001,2021_Oct_25_1351,eeg_contingent_digits,2021.2.3,59.94316188678202,
0.0,3.0,2.0,9.0,13.0,1.0,1.0,0.0,,,,,,,,,,,,,,,,,0,0,0,0,2,0,2,0,,,,,,,,,,,,,,,,,,,,,,,,,,,,,,,,,['return'],[0.22431820002384484],76.31022089999169,None,,,1,001,2021_Oct_25_1351,eeg_contingent_digits,2021.2.3,59.94316188678202,
0.0,3.0,2.0,9.0,13.0,1.0,1.0,0.0,,,,,,,,,,,,,,,,,0,0,0,0,,,,,,,,,,,,,,,,,,,,,,,,,,,,,,,,,,,,,,,,,None,None,1,001,2021_Oct_25_1351,eeg_contingent_digits,2021.2.3,59.94316188678202,
1.0,2.0,6.0,8.0,1.0,1.0,0.0,-15.145814748399285,,,,,,,,,,,,,,,,,0,1,1,1,0,0,0,0,,,,,,,,,,,,,,,,,76.58359210001072,None,76.58359210001072,None,76.58359210001072,None,76.58359210001072,None,76.58359210001072,None,0.011378799914382398,None,0.4676840999163687,None,0.9510993999429047,None,['return'],[0.584673700039275],81.84812410001177,None,,,1,001,2021_Oct_25_1351,eeg_contingent_digits,2021.2.3,59.94316188678202,
1.0,2.0,6.0,8.0,1.0,1.0,0.0,-15.145814748399285,,,,,,,,,,,,,,,,,0,1,1,1,1,0,1,0,,,,,,,,,,,,,,,,,,,,,,,,,,,,,,,,,['return'],[0.39223120000679046],82.45947940001497,None,,,1,001,2021_Oct_25_1351,eeg_contingent_digits,2021.2.3,59.94316188678202,
1.0,2.0,6.0,8.0,1.0,1.0,0.0,-15.145814748399285,,,,,,,,,,,,,,,,,0,1,1,1,2,0,2,0,,,,,,,,,,,,,,,,,,,,,,,,,,,,,,,,,['return'],[0.24036060000071302],82.87625750002917,None,,,1,001,2021_Oct_25_1351,eeg_contingent_digits,2021.2.3,59.94316188678202,
1.0,2.0,6.0,8.0,1.0,1.0,0.0,-15.145814748399285,,,,,,,,,,,,,,,,,0,1,1,1,,,,,,,,,,,,,,,,,,,,,,,,,,,,,,,,,,,,,,,,,None,None,1,001,2021_Oct_25_1351,eeg_contingent_digits,2021.2.3,59.94316188678202,
2.0,5.0,1.0,0.0,14.0,1.0,1.0,0.0,,,,,,,,,,,,,,,,,0,2,2,2,0,0,0,0,,,,,,,,,,,,,,,,,83.16253440000582,None,83.16253440000582,None,83.16253440000582,None,83.16253440000582,None,83.16253440000582,None,0.010044149996247143,None,0.4871123500051908,None,0.9539241500315256,None,['return'],[0.46496430004481226],88.80927329999395,None,,,1,001,2021_Oct_25_1351,eeg_contingent_digits,2021.2.3,59.94316188678202,
2.0,5.0,1.0,0.0,14.0,1.0,1.0,0.0,,,,,,,,,,,,,,,,,0,2,2,2,1,0,1,0,,,,,,,,,,,,,,,,,,,,,,,,,,,,,,,,,['return'],[0.3284468000056222],89.29277820000425,None,,,1,001,2021_Oct_25_1351,eeg_contingent_digits,2021.2.3,59.94316188678202,
2.0,5.0,1.0,0.0,14.0,1.0,1.0,0.0,,,,,,,,,,,,,,,,,0,2,2,2,2,0,2,0,,,,,,,,,,,,,,,,,,,,,,,,,,,,,,,,,['return'],[0.170814800017979],89.64248069998575,None,,,1,001,2021_Oct_25_1351,eeg_contingent_digits,2021.2.3,59.94316188678202,
2.0,5.0,1.0,0.0,14.0,1.0,1.0,0.0,,,,,,,,,,,,,,,,,0,2,2,2,,,,,,,,,,,,,,,,,,,,,,,,,,,,,,,,,,,,,,,,,None,None,1,001,2021_Oct_25_1351,eeg_contingent_digits,2021.2.3,59.94316188678202,
3.0,3.0,6.0,0.0,61.0,1.0,0.0,-55.58837237232906,,,,,,,,,,,,,,,,,0,3,3,3,0,0,0,0,,,,,,,,,,,,,,,,,89.86201360000996,None,89.86201360000996,None,89.86201360000996,None,89.86201360000996,None,89.86201360000996,None,0.009555050055496395,None,0.4764008500496857,None,0.9598175500286743,None,['return'],[0.5292081999941729],100.58145579998381,None,,,1,001,2021_Oct_25_1351,eeg_contingent_digits,2021.2.3,59.94316188678202,
3.0,3.0,6.0,0.0,61.0,1.0,0.0,-55.58837237232906,,,,,,,,,,,,,,,,,0,3,3,3,1,0,1,0,,,,,,,,,,,,,,,,,,,,,,,,,,,,,,,,,['return'],[0.1654016000102274],101.14164859999437,None,,,1,001,2021_Oct_25_1351,eeg_contingent_digits,2021.2.3,59.94316188678202,
3.0,3.0,6.0,0.0,61.0,1.0,0.0,-55.58837237232906,,,,,,,,,,,,,,,,,0,3,3,3,2,0,2,0,,,,,,,,,,,,,,,,,,,,,,,,,,,,,,,,,['return'],[0.3093069000169635],101.32490750000579,None,,,1,001,2021_Oct_25_1351,eeg_contingent_digits,2021.2.3,59.94316188678202,
3.0,3.0,6.0,0.0,61.0,1.0,0.0,-55.58837237232906,,,,,,,,,,,,,,,,,0,3,3,3,,,,,,,,,,,,,,,,,,,,,,,,,,,,,,,,,,,,,,,,,101.71789890003856,None,1,001,2021_Oct_25_1351,eeg_contingent_digits,2021.2.3,59.94316188678202,
4.0,2.0,9.0,8.0,49.0,0.0,1.0,0.0,,,,,,,,,,,,,,,,,0,4,4,4,0,0,0,0,,,,,,,,,,,,,,,,,102.94157620001351,None,102.94157620001351,None,102.94157620001351,None,102.94157620001351,None,102.94157620001351,None,0.012097099970560521,None,0.48829209996620193,None,0.9516242999816313,None,['return'],[0.5853911999729462],107.86419310001656,None,,,1,001,2021_Oct_25_1351,eeg_contingent_digits,2021.2.3,59.94316188678202,
4.0,2.0,9.0,8.0,49.0,0.0,1.0,0.0,,,,,,,,,,,,,,,,,0,4,4,4,1,0,1,0,,,,,,,,,,,,,,,,,,,,,,,,,,,,,,,,,['return'],[0.17559080000501126],108.47462340001948,None,,,1,001,2021_Oct_25_1351,eeg_contingent_digits,2021.2.3,59.94316188678202,
4.0,2.0,9.0,8.0,49.0,0.0,1.0,0.0,,,,,,,,,,,,,,,,,0,4,4,4,2,0,2,0,,,,,,,,,,,,,,,,,,,,,,,,,,,,,,,,,['return'],[0.16934179997770116],108.67444100003922,None,,,1,001,2021_Oct_25_1351,eeg_contingent_digits,2021.2.3,59.94316188678202,
4.0,2.0,9.0,8.0,49.0,0.0,1.0,0.0,,,,,,,,,,,,,,,,,0,4,4,4,,,,,,,,,,,,,,,,,,,,,,,,,,,,,,,,,,,,,,,,,None,None,1,001,2021_Oct_25_1351,eeg_contingent_digits,2021.2.3,59.94316188678202,
5.0,1.0,0.0,8.0,21.0,0.0,0.0,-2.69959105611959,,,,,,,,,,,,,,,,,0,5,5,5,0,0,0,0,,,,,,,,,,,,,,,,,108.8853232000256,None,108.8853232000256,None,108.8853232000256,None,108.8853232000256,None,108.8853232000256,None,0.006035200029145926,None,0.4932579000014812,None,0.9762224000296555,None,['return'],[0.345244099968113],120.29017630004091,None,,,1,001,2021_Oct_25_1351,eeg_contingent_digits,2021.2.3,59.94316188678202,
5.0,1.0,0.0,8.0,21.0,0.0,0.0,-2.69959105611959,,,,,,,,,,,,,,,,,0,5,5,5,1,0,1,0,,,,,,,,,,,,,,,,,,,,,,,,,,,,,,,,,['return'],[0.19992280000587925],120.65659810003126,None,,,1,001,2021_Oct_25_1351,eeg_contingent_digits,2021.2.3,59.94316188678202,
5.0,1.0,0.0,8.0,21.0,0.0,0.0,-2.69959105611959,,,,,,,,,,,,,,,,,0,5,5,5,2,0,2,0,,,,,,,,,,,,,,,,,,,,,,,,,,,,,,,,,['return'],[0.16730030003236607],120.87345030001597,None,,,1,001,2021_Oct_25_1351,eeg_contingent_digits,2021.2.3,59.94316188678202,
5.0,1.0,0.0,8.0,21.0,0.0,0.0,-2.69959105611959,,,,,,,,,,,,,,,,,0,5,5,5,,,,,,,,,,,,,,,,,,,,,,,,,,,,,,,,,,,,,,,,,None,None,1,001,2021_Oct_25_1351,eeg_contingent_digits,2021.2.3,59.94316188678202,
6.0,6.0,5.0,0.0,14.0,1.0,1.0,0.0,,,,,,,,,,,,,,,,,0,6,6,6,0,0,0,0,,,,,,,,,,,,,,,,,121.07243310002377,None,121.07243310002377,None,121.07243310002377,None,121.07243310002377,None,121.07243310002377,None,0.002074299962259829,None,0.4708520999411121,None,0.9544294999213889,None,['return'],[0.4914602999924682],132.65715199999977,None,,,1,001,2021_Oct_25_1351,eeg_contingent_digits,2021.2.3,59.94316188678202,
6.0,6.0,5.0,0.0,14.0,1.0,1.0,0.0,,,,,,,,,,,,,,,,,0,6,6,6,1,0,1,0,,,,,,,,,,,,,,,,,,,,,,,,,,,,,,,,,['return'],[0.18798449996393174],133.17258369998308,None,,,1,001,2021_Oct_25_1351,eeg_contingent_digits,2021.2.3,59.94316188678202,
6.0,6.0,5.0,0.0,14.0,1.0,1.0,0.0,,,,,,,,,,,,,,,,,0,6,6,6,2,0,2,0,,,,,,,,,,,,,,,,,,,,,,,,,,,,,,,,,['return'],[0.16885710001224652],133.3890279000043,None,,,1,001,2021_Oct_25_1351,eeg_contingent_digits,2021.2.3,59.94316188678202,
6.0,6.0,5.0,0.0,14.0,1.0,1.0,0.0,,,,,,,,,,,,,,,,,0,6,6,6,,,,,,,,,,,,,,,,,,,,,,,,,,,,,,,,,,,,,,,,,None,None,1,001,2021_Oct_25_1351,eeg_contingent_digits,2021.2.3,59.94316188678202,
7.0,1.0,6.0,2.0,21.0,1.0,0.0,-45.12188682060038,,,,,,,,,,,,,,,,,0,7,7,7,0,0,0,0,,,,,,,,,,,,,,,,,133.60784210002748,None,133.60784210002748,None,133.60784210002748,None,133.60784210002748,None,133.60784210002748,None,0.01406125008361414,None,0.4853948500822298,None,0.9689236500998959,None,['return'],[0.3400649999966845],148.02449380001053,None,,,1,001,2021_Oct_25_1351,eeg_contingent_digits,2021.2.3,59.94316188678202,
7.0,1.0,6.0,2.0,21.0,1.0,0.0,-45.12188682060038,,,,,,,,,,,,,,,,,0,7,7,7,1,0,1,0,,,,,,,,,,,,,,,,,,,,,,,,,,,,,,,,,['return'],[0.18519410002045333],148.38801380002405,None,,,1,001,2021_Oct_25_1351,eeg_contingent_digits,2021.2.3,59.94316188678202,
7.0,1.0,6.0,2.0,21.0,1.0,0.0,-45.12188682060038,,,,,,,,,,,,,,,,,0,7,7,7,2,0,2,0,,,,,,,,,,,,,,,,,,,,,,,,,,,,,,,,,['return'],[0.16572019999148324],148.6045821000007,None,,,1,001,2021_Oct_25_1351,eeg_contingent_digits,2021.2.3,59.94316188678202,
7.0,1.0,6.0,2.0,21.0,1.0,0.0,-45.12188682060038,,,,,,,,,,,,,,,,,0,7,7,7,,,,,,,,,,,,,,,,,,,,,,,,,,,,,,,,,,,,,,,,,148.8252865000395,None,1,001,2021_Oct_25_1351,eeg_contingent_digits,2021.2.3,59.94316188678202,
8.0,5.0,8.0,0.0,21.0,1.0,1.0,0.0,,,,,,,,,,,,,,,,,0,8,8,8,0,0,0,0,,,,,,,,,,,,,,,,,150.5905651000212,None,150.5905651000212,None,150.5905651000212,None,150.5905651000212,None,150.5905651000212,None,0.011182249989360571,None,0.47496334998868406,None,0.9583904499886557,None,['return'],[0.6497002999531105],156.2707020000089,None,,,1,001,2021_Oct_25_1351,eeg_contingent_digits,2021.2.3,59.94316188678202,
8.0,5.0,8.0,0.0,21.0,1.0,1.0,0.0,,,,,,,,,,,,,,,,,0,8,8,8,1,0,1,0,,,,,,,,,,,,,,,,,,,,,,,,,,,,,,,,,['return'],[0.19999950000783429],156.93749089998892,None,,,1,001,2021_Oct_25_1351,eeg_contingent_digits,2021.2.3,59.94316188678202,
8.0,5.0,8.0,0.0,21.0,1.0,1.0,0.0,,,,,,,,,,,,,,,,,0,8,8,8,2,0,2,0,,,,,,,,,,,,,,,,,,,,,,,,,,,,,,,,,['return'],[0.16300610004691407],157.15411649999442,None,,,1,001,2021_Oct_25_1351,eeg_contingent_digits,2021.2.3,59.94316188678202,
8.0,5.0,8.0,0.0,21.0,1.0,1.0,0.0,,,,,,,,,,,,,,,,,0,8,8,8,,,,,,,,,,,,,,,,,,,,,,,,,,,,,,,,,,,,,,,,,None,None,1,001,2021_Oct_25_1351,eeg_contingent_digits,2021.2.3,59.94316188678202,
9.0,3.0,8.0,6.0,1.0,0.0,0.0,-51.75766403945376,,,,,,,,,,,,,,,,,0,9,9,9,0,0,0,0,,,,,,,,,,,,,,,,,157.35245790000772,None,157.35245790000772,None,157.35245790000772,None,157.35245790000772,None,157.35245790000772,None,0.014194799994584173,None,0.48932970000896603,None,0.9561084000160918,None,['return'],[1.035830700013321],168.48729120002827,None,,,1,001,2021_Oct_25_1351,eeg_contingent_digits,2021.2.3,59.94316188678202,
9.0,3.0,8.0,6.0,1.0,0.0,0.0,-51.75766403945376,,,,,,,,,,,,,,,,,0,9,9,9,1,0,1,0,,,,,,,,,,,,,,,,,,,,,,,,,,,,,,,,,['return'],[0.17150380002567545],169.55294359999243,None,,,1,001,2021_Oct_25_1351,eeg_contingent_digits,2021.2.3,59.94316188678202,
9.0,3.0,8.0,6.0,1.0,0.0,0.0,-51.75766403945376,,,,,,,,,,,,,,,,,0,9,9,9,2,0,2,0,,,,,,,,,,,,,,,,,,,,,,,,,,,,,,,,,['return'],[0.1632172999670729],169.75288540002657,None,,,1,001,2021_Oct_25_1351,eeg_contingent_digits,2021.2.3,59.94316188678202,
9.0,3.0,8.0,6.0,1.0,0.0,0.0,-51.75766403945376,,,,,,,,,,,,,,,,,0,9,9,9,,,,,,,,,,,,,,,,,,,,,,,,,,,,,,,,,,,,,,,,,None,None,1,001,2021_Oct_25_1351,eeg_contingent_digits,2021.2.3,59.94316188678202,
10.0,3.0,4.0,2.0,49.0,1.0,1.0,0.0,,,,,,,,,,,,,,,,,0,10,10,10,0,0,0,0,,,,,,,,,,,,,,,,,169.94914480001898,None,169.94914480001898,None,169.94914480001898,None,169.94914480001898,None,169.94914480001898,None,0.011918550066184253,None,0.4792681500548497,None,0.9817429500399157,None,['return'],[0.6543279000325128],176.25823979999404,None,,,1,001,2021_Oct_25_1351,eeg_contingent_digits,2021.2.3,59.94316188678202,
10.0,3.0,4.0,2.0,49.0,1.0,1.0,0.0,,,,,,,,,,,,,,,,,0,10,10,10,1,0,1,0,,,,,,,,,,,,,,,,,,,,,,,,,,,,,,,,,['return'],[0.190284900018014],176.9357003000332,None,,,1,001,2021_Oct_25_1351,eeg_contingent_digits,2021.2.3,59.94316188678202,
10.0,3.0,4.0,2.0,49.0,1.0,1.0,0.0,,,,,,,,,,,,,,,,,0,10,10,10,2,0,2,0,,,,,,,,,,,,,,,,,,,,,,,,,,,,,,,,,['return'],[0.18617810000432655],177.15236499998719,None,,,1,001,2021_Oct_25_1351,eeg_contingent_digits,2021.2.3,59.94316188678202,
10.0,3.0,4.0,2.0,49.0,1.0,1.0,0.0,,,,,,,,,,,,,,,,,0,10,10,10,,,,,,,,,,,,,,,,,,,,,,,,,,,,,,,,,,,,,,,,,None,None,1,001,2021_Oct_25_1351,eeg_contingent_digits,2021.2.3,59.94316188678202,
11.0,3.0,8.0,2.0,49.0,1.0,0.0,-8.98979663522046,,,,,,,,,,,,,,,,,0,11,11,11,0,0,0,0,,,,,,,,,,,,,,,,,177.3818376000272,None,177.3818376000272,None,177.3818376000272,None,177.3818376000272,None,177.3818376000272,None,0.00384309992659837,None,0.4766357999178581,None,0.9431743999593891,None,['return'],[0.8405274999677204],193.1230263999896,None,,,1,001,2021_Oct_25_1351,eeg_contingent_digits,2021.2.3,59.94316188678202,
11.0,3.0,8.0,2.0,49.0,1.0,0.0,-8.98979663522046,,,,,,,,,,,,,,,,,0,11,11,11,1,0,1,0,,,,,,,,,,,,,,,,,,,,,,,,,,,,,,,,,['return'],[0.2083693000022322],193.98433549999027,None,,,1,001,2021_Oct_25_1351,eeg_contingent_digits,2021.2.3,59.94316188678202,
11.0,3.0,8.0,2.0,49.0,1.0,0.0,-8.98979663522046,,,,,,,,,,,,,,,,,0,11,11,11,2,0,2,0,,,,,,,,,,,,,,,,,,,,,,,,,,,,,,,,,['return'],[0.18357739999191836],194.21769250003854,None,,,1,001,2021_Oct_25_1351,eeg_contingent_digits,2021.2.3,59.94316188678202,
11.0,3.0,8.0,2.0,49.0,1.0,0.0,-8.98979663522046,,,,,,,,,,,,,,,,,0,11,11,11,,,,,,,,,,,,,,,,,,,,,,,,,,,,,,,,,,,,,,,,,194.4418427000055,None,1,001,2021_Oct_25_1351,eeg_contingent_digits,2021.2.3,59.94316188678202,
12.0,0.0,5.0,3.0,49.0,0.0,1.0,0.0,,,,,,,,,,,,,,,,,0,12,12,12,0,0,0,0,,,,,,,,,,,,,,,,,195.6196340000024,None,195.6196340000024,None,195.6196340000024,None,195.6196340000024,None,195.6196340000024,None,0.011868299974594265,None,0.4844256999786012,None,0.9675471999798901,None,['return'],[0.4183830000110902],203.95290830003796,None,,,1,001,2021_Oct_25_1351,eeg_contingent_digits,2021.2.3,59.94316188678202,
12.0,0.0,5.0,3.0,49.0,0.0,1.0,0.0,,,,,,,,,,,,,,,,,0,12,12,12,1,0,1,0,,,,,,,,,,,,,,,,,,,,,,,,,,,,,,,,,['return'],[0.17259119998198003],204.40046660002554,None,,,1,001,2021_Oct_25_1351,eeg_contingent_digits,2021.2.3,59.94316188678202,
12.0,0.0,5.0,3.0,49.0,0.0,1.0,0.0,,,,,,,,,,,,,,,,,0,12,12,12,2,0,2,0,,,,,,,,,,,,,,,,,,,,,,,,,,,,,,,,,['return'],[0.17502389999572188],204.60125970002264,None,,,1,001,2021_Oct_25_1351,eeg_contingent_digits,2021.2.3,59.94316188678202,
12.0,0.0,5.0,3.0,49.0,0.0,1.0,0.0,,,,,,,,,,,,,,,,,0,12,12,12,,,,,,,,,,,,,,,,,,,,,,,,,,,,,,,,,,,,,,,,,None,None,1,001,2021_Oct_25_1351,eeg_contingent_digits,2021.2.3,59.94316188678202,
13.0,8.0,3.0,1.0,14.0,0.0,0.0,-23.430259702910348,,,,,,,,,,,,,,,,,0,13,13,13,0,0,0,0,,,,,,,,,,,,,,,,,204.8284870000207,None,204.8284870000207,None,204.8284870000207,None,204.8284870000207,None,204.8284870000207,None,0.006910500000230968,None,0.4802355000283569,None,0.9635046999901533,None,['return'],[0.7865264999563806],227.3817551000393,None,,,1,001,2021_Oct_25_1351,eeg_contingent_digits,2021.2.3,59.94316188678202,
13.0,8.0,3.0,1.0,14.0,0.0,0.0,-23.430259702910348,,,,,,,,,,,,,,,,,0,13,13,13,1,0,1,0,,,,,,,,,,,,,,,,,,,,,,,,,,,,,,,,,['return'],[0.26861009997082874],228.19847730000038,None,,,1,001,2021_Oct_25_1351,eeg_contingent_digits,2021.2.3,59.94316188678202,
13.0,8.0,3.0,1.0,14.0,0.0,0.0,-23.430259702910348,,,,,,,,,,,,,,,,,0,13,13,13,2,0,2,0,,,,,,,,,,,,,,,,,,,,,,,,,,,,,,,,,['return'],[0.18638499994995072],228.49861020001117,None,,,1,001,2021_Oct_25_1351,eeg_contingent_digits,2021.2.3,59.94316188678202,
13.0,8.0,3.0,1.0,14.0,0.0,0.0,-23.430259702910348,,,,,,,,,,,,,,,,,0,13,13,13,,,,,,,,,,,,,,,,,,,,,,,,,,,,,,,,,,,,,,,,,None,None,1,001,2021_Oct_25_1351,eeg_contingent_digits,2021.2.3,59.94316188678202,
14.0,3.0,9.0,6.0,48.0,0.0,1.0,0.0,,,,,,,,,,,,,,,,,0,14,14,14,0,0,0,0,,,,,,,,,,,,,,,,,228.7352795000188,None,228.7352795000188,None,228.7352795000188,None,228.7352795000188,None,228.7352795000188,None,0.010965799971017987,None,0.4874472999945283,None,0.9698501999955624,None,['return'],[0.8424987999605946],236.77103539998643,None,,,1,001,2021_Oct_25_1351,eeg_contingent_digits,2021.2.3,59.94316188678202,
14.0,3.0,9.0,6.0,48.0,0.0,1.0,0.0,,,,,,,,,,,,,,,,,0,14,14,14,1,0,1,0,,,,,,,,,,,,,,,,,,,,,,,,,,,,,,,,,['return'],[0.2163664000108838],237.63072190003004,None,,,1,001,2021_Oct_25_1351,eeg_contingent_digits,2021.2.3,59.94316188678202,
14.0,3.0,9.0,6.0,48.0,0.0,1.0,0.0,,,,,,,,,,,,,,,,,0,14,14,14,2,0,2,0,,,,,,,,,,,,,,,,,,,,,,,,,,,,,,,,,['return'],[0.186972199997399],237.86429739999585,None,,,1,001,2021_Oct_25_1351,eeg_contingent_digits,2021.2.3,59.94316188678202,
14.0,3.0,9.0,6.0,48.0,0.0,1.0,0.0,,,,,,,,,,,,,,,,,0,14,14,14,,,,,,,,,,,,,,,,,,,,,,,,,,,,,,,,,,,,,,,,,None,None,1,001,2021_Oct_25_1351,eeg_contingent_digits,2021.2.3,59.94316188678202,
15.0,6.0,5.0,1.0,13.0,1.0,0.0,-4.433481255353959,,,,,,,,,,,,,,,,,0,15,15,15,0,0,0,0,,,,,,,,,,,,,,,,,238.1030299999984,None,238.1030299999984,None,238.1030299999984,None,238.1030299999984,None,238.1030299999984,None,0.01046524994308129,None,0.48128744994755834,None,0.9642904499196447,None,['return'],[0.42898699996294454],260.34602430002997,None,,,1,001,2021_Oct_25_1351,eeg_contingent_digits,2021.2.3,59.94316188678202,
15.0,6.0,5.0,1.0,13.0,1.0,0.0,-4.433481255353959,,,,,,,,,,,,,,,,,0,15,15,15,1,0,1,0,,,,,,,,,,,,,,,,,,,,,,,,,,,,,,,,,['return'],[0.3193203000118956],260.79614109999966,None,,,1,001,2021_Oct_25_1351,eeg_contingent_digits,2021.2.3,59.94316188678202,
15.0,6.0,5.0,1.0,13.0,1.0,0.0,-4.433481255353959,,,,,,,,,,,,,,,,,0,15,15,15,2,0,2,0,,,,,,,,,,,,,,,,,,,,,,,,,,,,,,,,,['return'],[0.2393650999874808],261.14627470000414,None,,,1,001,2021_Oct_25_1351,eeg_contingent_digits,2021.2.3,59.94316188678202,
15.0,6.0,5.0,1.0,13.0,1.0,0.0,-4.433481255353959,,,,,,,,,,,,,,,,,0,15,15,15,,,,,,,,,,,,,,,,,,,,,,,,,,,,,,,,,,,,,,,,,261.4349382999935,None,1,001,2021_Oct_25_1351,eeg_contingent_digits,2021.2.3,59.94316188678202,
