TrialID,NFB_digit1,NFB_digit2,NFB_digit3,Speaker_trial,TrialID_ME,NFB_digit1_ME,NFB_digit2_ME,NFB_digit3_ME,Speaker_trial_ME,NV_trial_ME,Triggered_trial_ME,Jitter_trial_ME,practice_block.thisRepN,practice_block.thisTrialN,practice_block.thisN,practice_block.thisIndex,practice_trials.thisRepN,practice_trials.thisTrialN,practice_trials.thisN,practice_trials.thisIndex,response_practice.thisRepN,response_practice.thisTrialN,response_practice.thisN,response_practice.thisIndex,ME_trials.thisRepN,ME_trials.thisTrialN,ME_trials.thisN,ME_trials.thisIndex,response_ME.thisRepN,response_ME.thisTrialN,response_ME.thisN,response_ME.thisIndex,Digit1_clear.started,Digit1_clear.stopped,response_practice_resp.keys,response_practice_resp.rt,response_practice_resp.started,response_practice_resp.stopped,text_practice_repeat.started,text_practice_repeat.stopped,text_4.started,text_4.stopped,Fixation_ME.started,Fixation_ME.stopped,sound_digit_1_ME.started,sound_digit_1_ME.stopped,text_2.started,text_2.stopped,key_resp_ME.keys,key_resp_ME.rt,key_resp_ME.started,key_resp_ME.stopped,disp_answer_ME.started,disp_answer_ME.stopped,text_7.started,text_7.stopped,text_5.started,text_5.stopped,text_8.started,text_8.stopped,text_next_block_ME.started,text_next_block_ME.stopped,response_nextblock_ME.keys,response_nextblock_ME.started,response_nextblock_ME.stopped,participant,session,date,expName,psychopyVersion,frameRate,
0.0,6.0,2.0,4.0,33.0,,,,,,,,,0,0,0,0,0,0,0,0,0,0,0,0,,,,,,,,,0.004250449999972261,None,['return'],[1.5351372000000083],20.096481799999992,None,,,,,,,,,,,,,,,,,,,,,,,,,,,,1,001,2021_Nov_17_1104,eeg_contingent_digits,2021.2.3,60.080158948080616,
0.0,6.0,2.0,4.0,33.0,,,,,,,,,0,0,0,0,0,0,0,0,,,,,,,,,,,,,,,,,,,,,,,,,,,,,,,,,,,,,,,,,,,,,,1,001,2021_Nov_17_1104,eeg_contingent_digits,2021.2.3,60.080158948080616,
1.0,1.0,9.0,3.0,13.0,,,,,,,,,0,0,0,0,0,1,1,1,0,0,0,0,,,,,,,,,0.00512204999995447,None,['return'],[1.2441423000000214],22.1526202,None,,,,,,,,,,,,,,,,,,,,,,,,,,,,1,001,2021_Nov_17_1104,eeg_contingent_digits,2021.2.3,60.080158948080616,
1.0,1.0,9.0,3.0,13.0,,,,,,,,,0,0,0,0,0,1,1,1,,,,,,,,,,,,,,,,,,,,,,,,,,,,,,,,,,,,,,,,,,,,,,1,001,2021_Nov_17_1104,eeg_contingent_digits,2021.2.3,60.080158948080616,
2.0,8.0,0.0,1.0,21.0,,,,,,,,,0,0,0,0,0,2,2,2,0,0,0,0,,,,,,,,,0.009449749999930646,None,['return'],[0.9921695000000454],23.908609100000035,None,,,,,,,,,,,,,,,,,,,,,,,,,,,,1,001,2021_Nov_17_1104,eeg_contingent_digits,2021.2.3,60.080158948080616,
2.0,8.0,0.0,1.0,21.0,,,,,,,,,0,0,0,0,0,2,2,2,,,,,,,,,,,,,,,,,,,,,,,,,,,,,,,,,,,,,,,,,,,,,,1,001,2021_Nov_17_1104,eeg_contingent_digits,2021.2.3,60.080158948080616,
3.0,9.0,6.0,1.0,61.0,,,,,,,,,0,0,0,0,0,3,3,3,0,0,0,0,,,,,,,,,0.008365850000132014,None,['return'],[0.8174044000001004],25.410387600000035,None,,,,,,,,,,,,,,,,,,,,,,,,,,,,1,001,2021_Nov_17_1104,eeg_contingent_digits,2021.2.3,60.080158948080616,
3.0,9.0,6.0,1.0,61.0,,,,,,,,,0,0,0,0,0,3,3,3,,,,,,,,,,,,,,,,,,,,,,,,,,,,,,,,,,,,,,,,,,,,,,1,001,2021_Nov_17_1104,eeg_contingent_digits,2021.2.3,60.080158948080616,
4.0,8.0,1.0,5.0,7.0,,,,,,,,,0,0,0,0,0,4,4,4,0,0,0,0,,,,,,,,,0.008083049999981995,None,['return'],[0.8750066999999717],26.757669299999975,None,,,,,,,,,,,,,,,,,,,,,,,,,,,,1,001,2021_Nov_17_1104,eeg_contingent_digits,2021.2.3,60.080158948080616,
4.0,8.0,1.0,5.0,7.0,,,,,,,,,0,0,0,0,0,4,4,4,,,,,,,,,,,,,,,,,,,,,,,,,,,,,,,,,,,,,,,,,,,,,,1,001,2021_Nov_17_1104,eeg_contingent_digits,2021.2.3,60.080158948080616,
5.0,4.0,1.0,0.0,33.0,,,,,,,,,0,0,0,0,0,5,5,5,0,0,0,0,,,,,,,,,0.009358550000001742,None,['return'],[0.8317488999999796],28.144034799999986,None,,,,,,,,,,,,,,,,,,,,,,,,,,,,1,001,2021_Nov_17_1104,eeg_contingent_digits,2021.2.3,60.080158948080616,
5.0,4.0,1.0,0.0,33.0,,,,,,,,,0,0,0,0,0,5,5,5,,,,,,,,,,,,,,,,,,,,,,,,,,,,,,,,,,,,,,,,,,,,,,1,001,2021_Nov_17_1104,eeg_contingent_digits,2021.2.3,60.080158948080616,
6.0,9.0,2.0,6.0,13.0,,,,,,,,,0,0,0,0,0,6,6,6,0,0,0,0,,,,,,,,,0.008701149999978952,None,['return'],[0.6182078000000502],29.508477800000037,None,,,,,,,,,,,,,,,,,,,,,,,,,,,,1,001,2021_Nov_17_1104,eeg_contingent_digits,2021.2.3,60.080158948080616,
6.0,9.0,2.0,6.0,13.0,,,,,,,,,0,0,0,0,0,6,6,6,,,,,,,,,,,,,,,,,,,,,,,,,,,,,,,,,,,,,,,,,,,,,,1,001,2021_Nov_17_1104,eeg_contingent_digits,2021.2.3,60.080158948080616,
7.0,2.0,3.0,0.0,10.0,,,,,,,,,0,0,0,0,0,7,7,7,0,0,0,0,,,,,,,,,0.006673549999959505,None,['return'],[0.8186832999999751],30.660734599999955,None,,,,,,,,,,,,,,,,,,,,,,,,,,,,1,001,2021_Nov_17_1104,eeg_contingent_digits,2021.2.3,60.080158948080616,
7.0,2.0,3.0,0.0,10.0,,,,,,,,,0,0,0,0,0,7,7,7,,,,,,,,,,,,,,,,,,,,,,,,,,,,,,,,,,,,,,,,,,,,,,1,001,2021_Nov_17_1104,eeg_contingent_digits,2021.2.3,60.080158948080616,
8.0,1.0,9.0,2.0,48.0,,,,,,,,,0,0,0,0,0,8,8,8,0,0,0,0,,,,,,,,,0.006728350000003047,None,['return'],[0.7663271999999779],32.00257829999998,None,,,,,,,,,,,,,,,,,,,,,,,,,,,,1,001,2021_Nov_17_1104,eeg_contingent_digits,2021.2.3,60.080158948080616,
8.0,1.0,9.0,2.0,48.0,,,,,,,,,0,0,0,0,0,8,8,8,,,,,,,,,,,,,,,,,,,,,,,,,,,,,,,,,,,,,,,,,,,,,,1,001,2021_Nov_17_1104,eeg_contingent_digits,2021.2.3,60.080158948080616,
9.0,8.0,1.0,0.0,21.0,,,,,,,,,0,0,0,0,0,9,9,9,0,0,0,0,,,,,,,,,0.0083041499999581,None,['return'],[0.821689499999934],33.278185699999995,None,,,,,,,,,,,,,,,,,,,,,,,,,,,,1,001,2021_Nov_17_1104,eeg_contingent_digits,2021.2.3,60.080158948080616,
9.0,8.0,1.0,0.0,21.0,,,,,,,,,0,0,0,0,0,9,9,9,,,,,,,,,,,,,,,,,,,,,,,,,,,,,,,,,,,,,,,,,,,,,,1,001,2021_Nov_17_1104,eeg_contingent_digits,2021.2.3,60.080158948080616,
,,,,,,,,,,,,,0,0,0,0,,,,,,,,,,,,,,,,,,,,,,,34.13518899999997,None,,,,,,,,,,,,,,,,,,,,,,,,,,1,001,2021_Nov_17_1104,eeg_contingent_digits,2021.2.3,60.080158948080616,
,,,,,0.0,1.0,2.0,0.0,33.0,1.0,1.0,0.0,,,,,,,,,,,,,0,0,0,0,0,0,0,0,,,,,,,,,35.90203539999993,None,38.21279449999997,None,0.0032169999999496213,None,39.56486640000003,None,"['1', 'return']","[0.4371155999999701, 0.5802592000000004]",40.568550500000015,None,40.568550500000015,None,40.568550500000015,None,,,,,,,,,,1,001,2021_Nov_17_1104,eeg_contingent_digits,2021.2.3,60.080158948080616,
,,,,,0.0,1.0,2.0,0.0,33.0,1.0,1.0,0.0,,,,,,,,,,,,,0,0,0,0,,,,,,,,,,,,,,,,,,,,,,,,,,,,,41.20032170000002,None,41.20032170000002,None,None,None,None,None,None,1,001,2021_Nov_17_1104,eeg_contingent_digits,2021.2.3,60.080158948080616,
,,,,,1.0,0.0,8.0,3.0,49.0,1.0,0.0,1.0,,,,,,,,,,,,,0,1,1,1,0,0,0,0,,,,,,,,,,,43.200484200000005,None,0.006755500000053871,None,45.25575689999994,None,"['0', 'return']","[0.18935129999999845, 0.3241218000000572]",46.267499499999985,None,46.267499499999985,None,46.267499499999985,None,,,,,,,,,,1,001,2021_Nov_17_1104,eeg_contingent_digits,2021.2.3,60.080158948080616,
,,,,,1.0,0.0,8.0,3.0,49.0,1.0,0.0,1.0,,,,,,,,,,,,,0,1,1,1,,,,,,,,,,,,,,,,,,,,,,,,,,,,,46.638777300000015,None,46.638777300000015,None,None,None,None,None,None,1,001,2021_Nov_17_1104,eeg_contingent_digits,2021.2.3,60.080158948080616,
,,,,,2.0,4.0,9.0,2.0,7.0,1.0,1.0,0.0,,,,,,,,,,,,,0,2,2,2,0,0,0,0,,,,,,,,,,,48.65039860000002,None,0.00361459999987801,None,50.75870520000001,None,"['0', 'return']","[0.5386592999999493, 0.6456617000000051]",51.76696679999998,None,51.76696679999998,None,51.76696679999998,None,,,,,,,,,,1,001,2021_Nov_17_1104,eeg_contingent_digits,2021.2.3,60.080158948080616,
,,,,,2.0,4.0,9.0,2.0,7.0,1.0,1.0,0.0,,,,,,,,,,,,,0,2,2,2,,,,,,,,,,,,,,,,,,,,,,,,,,,,,52.45577560000004,None,52.45577560000004,None,None,None,None,None,None,1,001,2021_Nov_17_1104,eeg_contingent_digits,2021.2.3,60.080158948080616,
,,,,,3.0,6.0,2.0,9.0,33.0,1.0,0.0,-0.0,,,,,,,,,,,,,0,3,3,3,0,0,0,0,,,,,,,,,,,54.46635259999994,None,0.006407700000067962,None,56.52382130000001,None,"['5', 'return']","[0.170480399999974, 0.3267181999999593]",57.53319190000002,None,57.53319190000002,None,57.53319190000002,None,,,,,,,,,,1,001,2021_Nov_17_1104,eeg_contingent_digits,2021.2.3,60.080158948080616,
,,,,,3.0,6.0,2.0,9.0,33.0,1.0,0.0,-0.0,,,,,,,,,,,,,0,3,3,3,,,,,,,,,,,,,,,,,,,,,,,,,,,,,57.90615289999994,None,57.90615289999994,None,None,None,None,None,None,1,001,2021_Nov_17_1104,eeg_contingent_digits,2021.2.3,60.080158948080616,
,,,,,4.0,5.0,2.0,4.0,7.0,1.0,1.0,0.0,,,,,,,,,,,,,0,4,4,4,0,0,0,0,,,,,,,,,,,59.91619179999998,None,0.0032030000000986547,None,62.02543830000002,None,"['4', 'return']","[2.289861500000029, 2.4207109000000173]",63.03294749999998,None,63.03294749999998,None,63.03294749999998,64.03292079999994,,,,,,,,,,1,001,2021_Nov_17_1104,eeg_contingent_digits,2021.2.3,60.080158948080616,
,,,,,4.0,5.0,2.0,4.0,7.0,1.0,1.0,0.0,,,,,,,,,,,,,0,4,4,4,,,,,,,,,,,,,,,,,,,,,,,,,,,,,65.50353319999999,None,65.50353319999999,None,None,None,None,None,None,1,001,2021_Nov_17_1104,eeg_contingent_digits,2021.2.3,60.080158948080616,
,,,,,5.0,9.0,1.0,2.0,14.0,1.0,0.0,-1.0,,,,,,,,,,,,,0,5,5,5,0,0,0,0,,,,,,,,,,,67.51548649999995,None,0.0061303999999609005,None,69.57695339999998,None,"['9', 'return']","[0.4994470999999976, 0.6464916999999559]",70.58233569999993,None,70.58233569999993,None,70.58233569999993,None,,,,,,,,,,1,001,2021_Nov_17_1104,eeg_contingent_digits,2021.2.3,60.080158948080616,
,,,,,5.0,9.0,1.0,2.0,14.0,1.0,0.0,-1.0,,,,,,,,,,,,,0,5,5,5,,,,,,,,,,,,,,,,,,,,,,,,,,,,,71.27098739999997,None,71.27098739999997,None,None,None,None,None,None,1,001,2021_Nov_17_1104,eeg_contingent_digits,2021.2.3,60.080158948080616,
,,,,,6.0,4.0,2.0,9.0,33.0,1.0,1.0,0.0,,,,,,,,,,,,,0,6,6,6,0,0,0,0,,,,,,,,,,,73.28192409999997,None,0.003927999999973508,None,75.33663939999997,None,"['4', 'return']","[1.2079990999999382, 1.3521769999999833]",76.34872129999997,None,76.34872129999997,None,76.34872129999997,77.34847809999997,,,,,,,,,,1,001,2021_Nov_17_1104,eeg_contingent_digits,2021.2.3,60.080158948080616,
,,,,,6.0,4.0,2.0,9.0,33.0,1.0,1.0,0.0,,,,,,,,,,,,,0,6,6,6,,,,,,,,,,,,,,,,,,,,,,,,,,,,,77.7590126,None,77.7590126,None,None,None,None,None,None,1,001,2021_Nov_17_1104,eeg_contingent_digits,2021.2.3,60.080158948080616,
,,,,,7.0,9.0,6.0,3.0,21.0,1.0,0.0,-1.0,,,,,,,,,,,,,0,7,7,7,0,0,0,0,,,,,,,,,,,79.76718900000003,None,0.0076272000000017215,None,81.86507219999999,None,"['9', 'return']","[0.18098860000009154, 0.3281044000000293]",82.86475629999995,None,82.86475629999995,None,82.86475629999995,None,,,,,,,,,,1,001,2021_Nov_17_1104,eeg_contingent_digits,2021.2.3,60.080158948080616,
,,,,,7.0,9.0,6.0,3.0,21.0,1.0,0.0,-1.0,,,,,,,,,,,,,0,7,7,7,,,,,,,,,,,,,,,,,,,,,,,,,,,,,83.23786989999996,None,83.23786989999996,None,None,None,None,None,None,1,001,2021_Nov_17_1104,eeg_contingent_digits,2021.2.3,60.080158948080616,
,,,,,8.0,1.0,5.0,9.0,13.0,1.0,1.0,0.0,,,,,,,,,,,,,0,8,8,8,0,0,0,0,,,,,,,,,,,85.2485218999999,None,0.004657000000179323,None,87.30520390000004,None,"['1', 'return']","[0.5841967000001205, 0.6531342000000677]",88.31468200000006,None,88.31468200000006,None,88.31468200000006,None,,,,,,,,,,1,001,2021_Nov_17_1104,eeg_contingent_digits,2021.2.3,60.080158948080616,
,,,,,8.0,1.0,5.0,9.0,13.0,1.0,1.0,0.0,,,,,,,,,,,,,0,8,8,8,,,,,,,,,,,,,,,,,,,,,,,,,,,,,89.02059320000001,None,89.02059320000001,None,None,None,None,None,None,1,001,2021_Nov_17_1104,eeg_contingent_digits,2021.2.3,60.080158948080616,
,,,,,9.0,0.0,6.0,5.0,21.0,1.0,0.0,2.0,,,,,,,,,,,,,0,9,9,9,0,0,0,0,,,,,,,,,,,91.03206809999995,None,0.013940449999836346,None,93.13326879999988,None,"['0', 'return']","[0.24381359999983943, 0.3830794999998943]",94.14701350000007,None,94.14701350000007,None,94.14701350000007,None,,,,,,,,,,1,001,2021_Nov_17_1104,eeg_contingent_digits,2021.2.3,60.080158948080616,
,,,,,9.0,0.0,6.0,5.0,21.0,1.0,0.0,2.0,,,,,,,,,,,,,0,9,9,9,,,,,,,,,,,,,,,,,,,,,,,,,,,,,94.57138070000008,None,94.57138070000008,None,None,None,None,None,None,1,001,2021_Nov_17_1104,eeg_contingent_digits,2021.2.3,60.080158948080616,
,,,,,10.0,4.0,2.0,1.0,33.0,1.0,1.0,0.0,,,,,,,,,,,,,0,10,10,10,0,0,0,0,,,,,,,,,,,96.58018830000003,None,0.01297305000025517,None,98.57586279999998,None,"['5', 'return']","[0.8487855999999283, 0.9427705000000515]",99.58008159999997,None,99.58008159999997,None,99.58008159999997,None,,,,,,,,,,1,001,2021_Nov_17_1104,eeg_contingent_digits,2021.2.3,60.080158948080616,
,,,,,10.0,4.0,2.0,1.0,33.0,1.0,1.0,0.0,,,,,,,,,,,,,0,10,10,10,,,,,,,,,,,,,,,,,,,,,,,,,,,,,100.57113109999989,None,100.57113109999989,None,None,None,None,None,None,1,001,2021_Nov_17_1104,eeg_contingent_digits,2021.2.3,60.080158948080616,
,,,,,11.0,0.0,5.0,9.0,48.0,1.0,0.0,2.0,,,,,,,,,,,,,0,11,11,11,0,0,0,0,,,,,,,,,,,102.57959190000008,None,0.007684299999937139,None,104.64782150000008,None,"['0', 'return']","[0.2738528000002134, 0.4217489000000114]",105.66302929999995,None,105.66302929999995,None,105.66302929999995,None,,,,,,,,,,1,001,2021_Nov_17_1104,eeg_contingent_digits,2021.2.3,60.080158948080616,
,,,,,11.0,0.0,5.0,9.0,48.0,1.0,0.0,2.0,,,,,,,,,,,,,0,11,11,11,,,,,,,,,,,,,,,,,,,,,,,,,,,,,106.13668489999998,None,106.13668489999998,None,None,None,None,None,None,1,001,2021_Nov_17_1104,eeg_contingent_digits,2021.2.3,60.080158948080616,
,,,,,12.0,0.0,4.0,3.0,61.0,1.0,1.0,0.0,,,,,,,,,,,,,0,12,12,12,0,0,0,0,,,,,,,,,,,108.14586029999998,None,0.002955600000177583,None,110.21872610000003,None,"['0', 'return']","[0.21628800000007686, 0.32350259999998343]",111.22947209999995,None,111.22947209999995,None,111.22947209999995,None,,,,,,,,,,1,001,2021_Nov_17_1104,eeg_contingent_digits,2021.2.3,60.080158948080616,
,,,,,12.0,0.0,4.0,3.0,61.0,1.0,1.0,0.0,,,,,,,,,,,,,0,12,12,12,,,,,,,,,,,,,,,,,,,,,,,,,,,,,111.60243249999996,None,111.60243249999996,None,None,None,None,None,None,1,001,2021_Nov_17_1104,eeg_contingent_digits,2021.2.3,60.080158948080616,
,,,,,13.0,4.0,9.0,0.0,7.0,1.0,0.0,2.0,,,,,,,,,,,,,0,13,13,13,0,0,0,0,,,,,,,,,,,113.61223910000001,None,0.006189299999959985,None,115.7182830999999,None,"['0', 'return']","[0.4638846000000285, 0.6149992000000566]",116.72883250000007,None,116.72883250000007,None,116.72883250000007,None,,,,,,,,,,1,001,2021_Nov_17_1104,eeg_contingent_digits,2021.2.3,60.080158948080616,
,,,,,13.0,4.0,9.0,0.0,7.0,1.0,0.0,2.0,,,,,,,,,,,,,0,13,13,13,,,,,,,,,,,,,,,,,,,,,,,,,,,,,117.3840355000001,None,117.3840355000001,None,None,None,None,None,None,1,001,2021_Nov_17_1104,eeg_contingent_digits,2021.2.3,60.080158948080616,
,,,,,14.0,0.0,8.0,5.0,48.0,1.0,1.0,0.0,,,,,,,,,,,,,0,14,14,14,0,0,0,0,,,,,,,,,,,119.39684539999996,None,0.014574550000133968,None,121.48397340000008,None,"['0', 'return']","[0.31718000000000757, 0.4442088999999214]",122.49481879999996,None,122.49481879999996,None,122.49481879999996,None,,,,,,,,,,1,001,2021_Nov_17_1104,eeg_contingent_digits,2021.2.3,60.080158948080616,
,,,,,14.0,0.0,8.0,5.0,48.0,1.0,1.0,0.0,,,,,,,,,,,,,0,14,14,14,,,,,,,,,,,,,,,,,,,,,,,,,,,,,122.98441869999999,None,122.98441869999999,None,None,None,None,None,None,1,001,2021_Nov_17_1104,eeg_contingent_digits,2021.2.3,60.080158948080616,
,,,,,15.0,8.0,9.0,2.0,48.0,1.0,0.0,-0.0,,,,,,,,,,,,,0,15,15,15,0,0,0,0,,,,,,,,,,,124.99508920000005,None,0.007053300000279705,None,127.1073904000001,None,"['5', 'return']","[0.7996096000001671, 0.9027479000001222]",128.11113839999996,None,128.11113839999996,None,128.11113839999996,None,,,,,,,,,,1,001,2021_Nov_17_1104,eeg_contingent_digits,2021.2.3,60.080158948080616,
,,,,,15.0,8.0,9.0,2.0,48.0,1.0,0.0,-0.0,,,,,,,,,,,,,0,15,15,15,,,,,,,,,,,,,,,,,,,,,,,,,,,,,129.06767690000004,None,129.06767690000004,None,None,None,None,None,None,1,001,2021_Nov_17_1104,eeg_contingent_digits,2021.2.3,60.080158948080616,
,,,,,16.0,1.0,0.0,8.0,10.0,1.0,1.0,0.0,,,,,,,,,,,,,0,16,16,16,0,0,0,0,,,,,,,,,,,131.07939219999992,None,0.012937250000049971,None,133.13893259999998,None,"['1', 'return']","[0.3047182000000248, 0.4106648000001769]",134.14409820000003,None,134.14409820000003,None,134.14409820000003,None,,,,,,,,,,1,001,2021_Nov_17_1104,eeg_contingent_digits,2021.2.3,60.080158948080616,
,,,,,16.0,1.0,0.0,8.0,10.0,1.0,1.0,0.0,,,,,,,,,,,,,0,16,16,16,,,,,,,,,,,,,,,,,,,,,,,,,,,,,134.60094149999998,None,134.60094149999998,None,None,None,None,None,None,1,001,2021_Nov_17_1104,eeg_contingent_digits,2021.2.3,60.080158948080616,
,,,,,17.0,9.0,5.0,0.0,48.0,1.0,0.0,-1.0,,,,,,,,,,,,,0,17,17,17,0,0,0,0,,,,,,,,,,,136.61018789999991,None,0.00722130000008292,None,138.69383019999998,None,['return'],[0.6651271000000634],139.69381439999995,None,139.69381439999995,None,139.69381439999995,None,,,,,,,,,,1,001,2021_Nov_17_1104,eeg_contingent_digits,2021.2.3,60.080158948080616,
,,,,,17.0,9.0,5.0,0.0,48.0,1.0,0.0,-1.0,,,,,,,,,,,,,0,17,17,17,,,,,,,,,,,,,,,,,,,,,,,,,,,,,140.3992136999999,None,140.3992136999999,None,None,None,None,None,None,1,001,2021_Nov_17_1104,eeg_contingent_digits,2021.2.3,60.080158948080616,
,,,,,18.0,2.0,9.0,1.0,13.0,1.0,1.0,0.0,,,,,,,,,,,,,0,18,18,18,0,0,0,0,,,,,,,,,,,142.41087449999998,None,0.006591400000161229,None,144.52144209999994,None,['return'],[0.3175108000000364],145.52644939999993,None,145.52644939999993,None,145.52644939999993,None,,,,,,,,,,1,001,2021_Nov_17_1104,eeg_contingent_digits,2021.2.3,60.080158948080616,
,,,,,18.0,2.0,9.0,1.0,13.0,1.0,1.0,0.0,,,,,,,,,,,,,0,18,18,18,,,,,,,,,,,,,,,,,,,,,,,,,,,,,145.88301160000003,None,145.88301160000003,None,None,None,None,None,None,1,001,2021_Nov_17_1104,eeg_contingent_digits,2021.2.3,60.080158948080616,
,,,,,19.0,2.0,9.0,1.0,48.0,1.0,0.0,-2.0,,,,,,,,,,,,,0,19,19,19,0,0,0,0,,,,,,,,,,,147.8927098999999,None,0.00875129999985802,None,149.95819799999992,None,"['2', 'return']","[0.4725455999998758, 0.6526186999999481]",150.97024670000008,None,150.97024670000008,None,150.97024670000008,None,,,,,,,,,,1,001,2021_Nov_17_1104,eeg_contingent_digits,2021.2.3,60.080158948080616,
,,,,,19.0,2.0,9.0,1.0,48.0,1.0,0.0,-2.0,,,,,,,,,,,,,0,19,19,19,,,,,,,,,,,,,,,,,,,,,,,,,,,,,151.69164220000005,None,151.69164220000005,None,None,None,None,None,None,1,001,2021_Nov_17_1104,eeg_contingent_digits,2021.2.3,60.080158948080616,
,,,,,,,,,,,,,,,,,,,,,,,,,,,,,,,,,,,,,,,,,,,153.6756454,None,,,,,,,,,,,,,,,,,,,,,,,,,,,,
