TrialID,NFB_digit1,NFB_digit2,NFB_digit3,Speaker_trial,NV_trial,Triggered_trial,Jitter_trial,practice_block.thisRepN,practice_block.thisTrialN,practice_block.thisN,practice_block.thisIndex,practice_trials.thisRepN,practice_trials.thisTrialN,practice_trials.thisN,practice_trials.thisIndex,response_practice.thisRepN,response_practice.thisTrialN,response_practice.thisN,response_practice.thisIndex,calibration_block.thisRepN,calibration_block.thisTrialN,calibration_block.thisN,calibration_block.thisIndex,exp_trials.thisRepN,exp_trials.thisTrialN,exp_trials.thisN,exp_trials.thisIndex,response_exp.thisRepN,response_exp.thisTrialN,response_exp.thisN,response_exp.thisIndex,Digit1_clear.started,Digit1_clear.stopped,Digit2_clear.started,Digit2_clear.stopped,Digit3_clear.started,Digit3_clear.stopped,response_practice_resp.keys,response_practice_resp.rt,response_practice_resp.started,response_practice_resp.stopped,text_practice_repeat.started,text_practice_repeat.stopped,text.started,text.stopped,text_calibration_repeat.started,text_calibration_repeat.stopped,text_break.started,text_break.stopped,Fixation.started,Fixation.stopped,text_6.started,text_6.stopped,Fixation_Play.started,Fixation_Play.stopped,sound_digit1.started,sound_digit1.stopped,sound_digit2.started,sound_digit2.stopped,sound_digit3.started,sound_digit3.stopped,key_resp.keys,key_resp.rt,key_resp.started,key_resp.stopped,text_nextblock.started,text_nextblock.stopped,response_nextblock.keys,response_nextblock.started,response_nextblock.stopped,response_nextblock.rt,participant,session,date,expName,psychopyVersion,frameRate,
0.0,6.0,2.0,4.0,33.0,,,,0,0,0,0,0,0,0,0,0,0,0,0,,,,,,,,,,,,,0.01420473999951355,None,0.4950470399999176,None,0.9781907399992633,None,['return'],[0.4124315999997634],16.4000446,None,,,,,,,,,,,,,,,,,,,,,,,,,,,,,,,1,001,2021_Nov_09_1119,eeg_contingent_digits,2021.2.3,60.0196144097731,
0.0,6.0,2.0,4.0,33.0,,,,0,0,0,0,0,0,0,0,1,0,1,0,,,,,,,,,,,,,,,,,,,['return'],[0.1059056000003693],16.86659200000031,None,,,,,,,,,,,,,,,,,,,,,,,,,,,,,,,1,001,2021_Nov_09_1119,eeg_contingent_digits,2021.2.3,60.0196144097731,
0.0,6.0,2.0,4.0,33.0,,,,0,0,0,0,0,0,0,0,2,0,2,0,,,,,,,,,,,,,,,,,,,['return'],[0.10794469999927969],17.016531700000087,None,,,,,,,,,,,,,,,,,,,,,,,,,,,,,,,1,001,2021_Nov_09_1119,eeg_contingent_digits,2021.2.3,60.0196144097731,
0.0,6.0,2.0,4.0,33.0,,,,0,0,0,0,0,0,0,0,,,,,,,,,,,,,,,,,,,,,,,,,,,,,,,,,,,,,,,,,,,,,,,,,,,,,,,,,1,001,2021_Nov_09_1119,eeg_contingent_digits,2021.2.3,60.0196144097731,
,,,,,,,,0,0,0,0,,,,,,,,,,,,,,,,,,,,,,,,,,,,,,,17.166428100000303,None,,,,,,,,,,,,,,,,,,,,,,,,,,,,,1,001,2021_Nov_09_1119,eeg_contingent_digits,2021.2.3,60.0196144097731,
,,,,,,,,,,,,,,,,,,,,0,0,0,0,,,,,,,,,,,,,,,,,,,,,19.598913699999684,None,39.94133160000001,None,,,,,,,,,,,,,,,,,,,,,,,,,1,001,2021_Nov_09_1119,eeg_contingent_digits,2021.2.3,60.0196144097731,
0.0,1.0,0.0,2.0,49.0,1.0,1.0,0.0,,,,,,,,,,,,,,,,,0,0,0,0,0,0,0,0,,,,,,,,,,,,,,,,,42.35690069999964,None,43.139971000000514,None,43.139971000000514,None,72.21229579999999,73.6117578000003,0.013176149999708286,None,0.49317195000003267,None,0.9760900499995842,None,['return'],[2.13361519999944],73.67839670000012,None,,,,,,,1,001,2021_Nov_09_1119,eeg_contingent_digits,2021.2.3,60.0196144097731,
0.0,1.0,0.0,2.0,49.0,1.0,1.0,0.0,,,,,,,,,,,,,,,,,0,0,0,0,1,0,1,0,,,,,,,,,,,,,,,,,,,,,,,,,,,,,,,['return'],[0.15180210000016814],75.8442315000002,None,,,,,,,1,001,2021_Nov_09_1119,eeg_contingent_digits,2021.2.3,60.0196144097731,
0.0,1.0,0.0,2.0,49.0,1.0,1.0,0.0,,,,,,,,,,,,,,,,,0,0,0,0,2,0,2,0,,,,,,,,,,,,,,,,,,,,,,,,,,,,,,,['return'],[0.11987190000036207],76.04414019999967,None,,,,,,,1,001,2021_Nov_09_1119,eeg_contingent_digits,2021.2.3,60.0196144097731,
0.0,1.0,0.0,2.0,49.0,1.0,1.0,0.0,,,,,,,,,,,,,,,,,0,0,0,0,,,,,,,,,,,,,,,,,,,,,,,,,,,,,,,,,,,,,,,None,None,None,None,None,,1,001,2021_Nov_09_1119,eeg_contingent_digits,2021.2.3,60.0196144097731,
1.0,1.0,8.0,2.0,49.0,1.0,0.0,-1.0,,,,,,,,,,,,,,,,,0,1,1,1,0,0,0,0,,,,,,,,,,,,,,,,,,,76.2274497999997,None,76.2274497999997,None,80.29255629999989,81.69208379999964,0.009589639999830979,None,0.48554323999906046,None,0.9686618399991858,None,['return'],[4.5419471000004705],81.74200579999979,None,,,,,,,1,001,2021_Nov_09_1119,eeg_contingent_digits,2021.2.3,60.0196144097731,
1.0,1.0,8.0,2.0,49.0,1.0,0.0,-1.0,,,,,,,,,,,,,,,,,0,1,1,1,1,0,1,0,,,,,,,,,,,,,,,,,,,,,,,,,,,,,,,['return'],[0.11235880000003817],86.32361330000003,None,,,,,,,1,001,2021_Nov_09_1119,eeg_contingent_digits,2021.2.3,60.0196144097731,
1.0,1.0,8.0,2.0,49.0,1.0,0.0,-1.0,,,,,,,,,,,,,,,,,0,1,1,1,2,0,2,0,,,,,,,,,,,,,,,,,,,,,,,,,,,,,,,['return'],[0.10641019999911805],86.47354790000009,None,,,,,,,1,001,2021_Nov_09_1119,eeg_contingent_digits,2021.2.3,60.0196144097731,
1.0,1.0,8.0,2.0,49.0,1.0,0.0,-1.0,,,,,,,,,,,,,,,,,0,1,1,1,,,,,,,,,,,,,,,,,,,,,,,,,,,,,,,,,,,,,,,None,None,None,None,None,,1,001,2021_Nov_09_1119,eeg_contingent_digits,2021.2.3,60.0196144097731,
2.0,3.0,2.0,1.0,13.0,1.0,1.0,0.0,,,,,,,,,,,,,,,,,0,2,2,2,0,0,0,0,,,,,,,,,,,,,,,,,,,86.6402106000005,None,86.6402106000005,None,94.98698270000023,96.38647930000025,0.006140249999589287,None,0.4788428499996371,None,0.9620460500000263,None,['return'],[1.135448500000166],96.43641690000004,None,,,,,,,1,001,2021_Nov_09_1119,eeg_contingent_digits,2021.2.3,60.0196144097731,
2.0,3.0,2.0,1.0,13.0,1.0,1.0,0.0,,,,,,,,,,,,,,,,,0,2,2,2,1,0,1,0,,,,,,,,,,,,,,,,,,,,,,,,,,,,,,,['return'],[0.12051079999946523],97.61934960000053,None,,,,,,,1,001,2021_Nov_09_1119,eeg_contingent_digits,2021.2.3,60.0196144097731,
2.0,3.0,2.0,1.0,13.0,1.0,1.0,0.0,,,,,,,,,,,,,,,,,0,2,2,2,2,0,2,0,,,,,,,,,,,,,,,,,,,,,,,,,,,,,,,['return'],[0.09793949999948381],97.78592180000032,None,,,,,,,1,001,2021_Nov_09_1119,eeg_contingent_digits,2021.2.3,60.0196144097731,
2.0,3.0,2.0,1.0,13.0,1.0,1.0,0.0,,,,,,,,,,,,,,,,,0,2,2,2,,,,,,,,,,,,,,,,,,,,,,,,,,,,,,,,,,,,,,,None,None,None,None,None,,1,001,2021_Nov_09_1119,eeg_contingent_digits,2021.2.3,60.0196144097731,
3.0,9.0,9.0,3.0,13.0,1.0,0.0,2.0,,,,,,,,,,,,,,,,,0,3,3,3,0,0,0,0,,,,,,,,,,,,,,,,,,,97.93588780000027,None,97.93588780000027,None,108.36530200000016,109.76475349999964,0.014036249998753192,None,0.4947322499992879,None,0.977746349998597,None,['return'],[1.0610393000006297],109.81472880000001,None,,,,,,,1,001,2021_Nov_09_1119,eeg_contingent_digits,2021.2.3,60.0196144097731,
3.0,9.0,9.0,3.0,13.0,1.0,0.0,2.0,,,,,,,,,,,,,,,,,0,3,3,3,1,0,1,0,,,,,,,,,,,,,,,,,,,,,,,,,,,,,,,['return'],[0.09751190000042698],110.91428689999975,None,,,,,,,1,001,2021_Nov_09_1119,eeg_contingent_digits,2021.2.3,60.0196144097731,
3.0,9.0,9.0,3.0,13.0,1.0,0.0,2.0,,,,,,,,,,,,,,,,,0,3,3,3,2,0,2,0,,,,,,,,,,,,,,,,,,,,,,,,,,,,,,,['return'],[0.11615150000034191],111.04761609999969,None,,,,,,,1,001,2021_Nov_09_1119,eeg_contingent_digits,2021.2.3,60.0196144097731,
3.0,9.0,9.0,3.0,13.0,1.0,0.0,2.0,,,,,,,,,,,,,,,,,0,3,3,3,,,,,,,,,,,,,,,,,,,,,,,,,,,,,,,,,,,,,,,None,None,None,None,None,,1,001,2021_Nov_09_1119,eeg_contingent_digits,2021.2.3,60.0196144097731,
4.0,1.0,8.0,2.0,21.0,1.0,1.0,0.0,,,,,,,,,,,,,,,,,0,4,4,4,0,0,0,0,,,,,,,,,,,,,,,,,,,111.21424000000025,None,111.21424000000025,None,120.72724930000004,122.12675880000006,0.0081537500000195,None,0.482746650000081,None,0.9659158499998739,None,['return'],[2.682870799999364],122.17678419999993,None,,,,,,,1,001,2021_Nov_09_1119,eeg_contingent_digits,2021.2.3,60.0196144097731,
4.0,1.0,8.0,2.0,21.0,1.0,1.0,0.0,,,,,,,,,,,,,,,,,0,4,4,4,1,0,1,0,,,,,,,,,,,,,,,,,,,,,,,,,,,,,,,['return'],[0.14327550000052724],124.89237529999991,None,,,,,,,1,001,2021_Nov_09_1119,eeg_contingent_digits,2021.2.3,60.0196144097731,
4.0,1.0,8.0,2.0,21.0,1.0,1.0,0.0,,,,,,,,,,,,,,,,,0,4,4,4,2,0,2,0,,,,,,,,,,,,,,,,,,,,,,,,,,,,,,,['return'],[0.0960281000006944],125.07561189999979,None,,,,,,,1,001,2021_Nov_09_1119,eeg_contingent_digits,2021.2.3,60.0196144097731,
4.0,1.0,8.0,2.0,21.0,1.0,1.0,0.0,,,,,,,,,,,,,,,,,0,4,4,4,,,,,,,,,,,,,,,,,,,,,,,,,,,,,,,,,,,,,,,None,None,None,None,None,,1,001,2021_Nov_09_1119,eeg_contingent_digits,2021.2.3,60.0196144097731,
5.0,0.0,2.0,2.0,14.0,1.0,0.0,1.0,,,,,,,,,,,,,,,,,0,5,5,5,0,0,0,0,,,,,,,,,,,,,,,,,,,125.22558500000014,None,125.22558500000014,None,135.8215607000002,137.22106390000044,0.007063080000079935,None,0.4806154800007789,None,0.9637747800006764,None,['return'],[1.435859100000016],137.2876610000003,None,,,,,,,1,001,2021_Nov_09_1119,eeg_contingent_digits,2021.2.3,60.0196144097731,
5.0,0.0,2.0,2.0,14.0,1.0,0.0,1.0,,,,,,,,,,,,,,,,,0,5,5,5,1,0,1,0,,,,,,,,,,,,,,,,,,,,,,,,,,,,,,,['return'],[0.13713690000076895],138.77040880000004,None,,,,,,,1,001,2021_Nov_09_1119,eeg_contingent_digits,2021.2.3,60.0196144097731,
5.0,0.0,2.0,2.0,14.0,1.0,0.0,1.0,,,,,,,,,,,,,,,,,0,5,5,5,2,0,2,0,,,,,,,,,,,,,,,,,,,,,,,,,,,,,,,['return'],[0.09780580000006012],138.95370689999982,None,,,,,,,1,001,2021_Nov_09_1119,eeg_contingent_digits,2021.2.3,60.0196144097731,
5.0,0.0,2.0,2.0,14.0,1.0,0.0,1.0,,,,,,,,,,,,,,,,,0,5,5,5,,,,,,,,,,,,,,,,,,,,,,,,,,,,,,,,,,,,,,,None,None,None,None,None,,1,001,2021_Nov_09_1119,eeg_contingent_digits,2021.2.3,60.0196144097731,
6.0,3.0,1.0,4.0,14.0,1.0,1.0,0.0,,,,,,,,,,,,,,,,,0,6,6,6,0,0,0,0,,,,,,,,,,,,,,,,,,,139.10365319999983,None,139.10365319999983,None,156.81350250000014,158.21308690000023,0.004913179999675776,None,0.4930021800000759,None,0.9762013800000204,None,['return'],[1.1236334000004717],158.27972219999992,None,,,,,,,1,001,2021_Nov_09_1119,eeg_contingent_digits,2021.2.3,60.0196144097731,
6.0,3.0,1.0,4.0,14.0,1.0,1.0,0.0,,,,,,,,,,,,,,,,,0,6,6,6,1,0,1,0,,,,,,,,,,,,,,,,,,,,,,,,,,,,,,,['return'],[0.125463999999738],159.4459251999997,None,,,,,,,1,001,2021_Nov_09_1119,eeg_contingent_digits,2021.2.3,60.0196144097731,
6.0,3.0,1.0,4.0,14.0,1.0,1.0,0.0,,,,,,,,,,,,,,,,,0,6,6,6,2,0,2,0,,,,,,,,,,,,,,,,,,,,,,,,,,,,,,,['return'],[0.1268198999996457],159.61254710000048,None,,,,,,,1,001,2021_Nov_09_1119,eeg_contingent_digits,2021.2.3,60.0196144097731,
6.0,3.0,1.0,4.0,14.0,1.0,1.0,0.0,,,,,,,,,,,,,,,,,0,6,6,6,,,,,,,,,,,,,,,,,,,,,,,,,,,,,,,,,,,,,,,None,None,None,None,None,,1,001,2021_Nov_09_1119,eeg_contingent_digits,2021.2.3,60.0196144097731,
7.0,3.0,0.0,2.0,10.0,1.0,0.0,-2.0,,,,,,,,,,,,,,,,,0,7,7,7,0,0,0,0,,,,,,,,,,,,,,,,,,,159.7958660000004,None,159.7958660000004,None,162.84474709999995,164.2441761,0.01608894000037253,None,0.4986401400001341,None,0.9817788400005156,None,['return'],[0.6772095999995145],164.29412159999993,None,,,,,,,1,001,2021_Nov_09_1119,eeg_contingent_digits,2021.2.3,60.0196144097731,
7.0,3.0,0.0,2.0,10.0,1.0,0.0,-2.0,,,,,,,,,,,,,,,,,0,7,7,7,1,0,1,0,,,,,,,,,,,,,,,,,,,,,,,,,,,,,,,['return'],[0.13679830000000948],165.01054159999967,None,,,,,,,1,001,2021_Nov_09_1119,eeg_contingent_digits,2021.2.3,60.0196144097731,
7.0,3.0,0.0,2.0,10.0,1.0,0.0,-2.0,,,,,,,,,,,,,,,,,0,7,7,7,2,0,2,0,,,,,,,,,,,,,,,,,,,,,,,,,,,,,,,['return'],[0.11354909999954543],165.19380499999988,None,,,,,,,1,001,2021_Nov_09_1119,eeg_contingent_digits,2021.2.3,60.0196144097731,
7.0,3.0,0.0,2.0,10.0,1.0,0.0,-2.0,,,,,,,,,,,,,,,,,0,7,7,7,,,,,,,,,,,,,,,,,,,,,,,,,,,,,,,,,,,,,,,165.4103715000001,None,return,165.4103715000001,None,1.2809814000002007,1,001,2021_Nov_09_1119,eeg_contingent_digits,2021.2.3,60.0196144097731,
8.0,0.0,4.0,2.0,33.0,1.0,1.0,0.0,,,,,,,,,,,,,,,,,0,8,8,8,0,0,0,0,,,,,,,,,,,,,,,,,,,166.72652600000038,None,166.72652600000038,None,170.14190489999964,171.5413913000002,0.004656580000300892,None,0.49249698000039643,None,0.975681980000445,None,['return'],[0.9958989999995538],171.5913658999998,None,,,,,,,1,001,2021_Nov_09_1119,eeg_contingent_digits,2021.2.3,60.0196144097731,
8.0,0.0,4.0,2.0,33.0,1.0,1.0,0.0,,,,,,,,,,,,,,,,,0,8,8,8,1,0,1,0,,,,,,,,,,,,,,,,,,,,,,,,,,,,,,,['return'],[0.09901439999975992],172.6242815000005,None,,,,,,,1,001,2021_Nov_09_1119,eeg_contingent_digits,2021.2.3,60.0196144097731,
8.0,0.0,4.0,2.0,33.0,1.0,1.0,0.0,,,,,,,,,,,,,,,,,0,8,8,8,2,0,2,0,,,,,,,,,,,,,,,,,,,,,,,,,,,,,,,['return'],[0.1256721000008838],172.75758889999997,None,,,,,,,1,001,2021_Nov_09_1119,eeg_contingent_digits,2021.2.3,60.0196144097731,
8.0,0.0,4.0,2.0,33.0,1.0,1.0,0.0,,,,,,,,,,,,,,,,,0,8,8,8,,,,,,,,,,,,,,,,,,,,,,,,,,,,,,,,,,,,,,,None,None,None,None,None,,1,001,2021_Nov_09_1119,eeg_contingent_digits,2021.2.3,60.0196144097731,
9.0,1.0,1.0,2.0,13.0,1.0,0.0,-0.0,,,,,,,,,,,,,,,,,0,9,9,9,0,0,0,0,,,,,,,,,,,,,,,,,,,172.94089989999975,None,172.94089989999975,None,176.4062100000001,177.80568250000033,0.0157620499994664,None,0.4813865500000247,None,0.9645104499995796,None,['return'],[0.6194851999998718],177.85572450000018,None,,,,,,,1,001,2021_Nov_09_1119,eeg_contingent_digits,2021.2.3,60.0196144097731,
9.0,1.0,1.0,2.0,13.0,1.0,0.0,-0.0,,,,,,,,,,,,,,,,,0,9,9,9,1,0,1,0,,,,,,,,,,,,,,,,,,,,,,,,,,,,,,,['return'],[0.1211870999995881],178.52205270000013,None,,,,,,,1,001,2021_Nov_09_1119,eeg_contingent_digits,2021.2.3,60.0196144097731,
9.0,1.0,1.0,2.0,13.0,1.0,0.0,-0.0,,,,,,,,,,,,,,,,,0,9,9,9,2,0,2,0,,,,,,,,,,,,,,,,,,,,,,,,,,,,,,,['return'],[0.1065667000002577],178.68864589999976,None,,,,,,,1,001,2021_Nov_09_1119,eeg_contingent_digits,2021.2.3,60.0196144097731,
9.0,1.0,1.0,2.0,13.0,1.0,0.0,-0.0,,,,,,,,,,,,,,,,,0,9,9,9,,,,,,,,,,,,,,,,,,,,,,,,,,,,,,,,,,,,,,,None,None,None,None,None,,1,001,2021_Nov_09_1119,eeg_contingent_digits,2021.2.3,60.0196144097731,
10.0,5.0,1.0,3.0,49.0,1.0,1.0,0.0,,,,,,,,,,,,,,,,,0,10,10,10,0,0,0,0,,,,,,,,,,,,,,,,,,,178.8552725999998,None,178.8552725999998,None,181.45438100000047,182.8537851000001,0.01085337999938929,None,0.4882184799989773,None,0.9713820799997848,None,['return'],[0.9715043000005608],182.90373770000042,None,,,,,,,1,001,2021_Nov_09_1119,eeg_contingent_digits,2021.2.3,60.0196144097731,
10.0,5.0,1.0,3.0,49.0,1.0,1.0,0.0,,,,,,,,,,,,,,,,,0,10,10,10,1,0,1,0,,,,,,,,,,,,,,,,,,,,,,,,,,,,,,,['return'],[0.13113239999984216],183.92003490000025,None,,,,,,,1,001,2021_Nov_09_1119,eeg_contingent_digits,2021.2.3,60.0196144097731,
10.0,5.0,1.0,3.0,49.0,1.0,1.0,0.0,,,,,,,,,,,,,,,,,0,10,10,10,2,0,2,0,,,,,,,,,,,,,,,,,,,,,,,,,,,,,,,['return'],[0.09254619999956049],184.0866160000005,None,,,,,,,1,001,2021_Nov_09_1119,eeg_contingent_digits,2021.2.3,60.0196144097731,
10.0,5.0,1.0,3.0,49.0,1.0,1.0,0.0,,,,,,,,,,,,,,,,,0,10,10,10,,,,,,,,,,,,,,,,,,,,,,,,,,,,,,,,,,,,,,,None,None,None,None,None,,1,001,2021_Nov_09_1119,eeg_contingent_digits,2021.2.3,60.0196144097731,
11.0,5.0,5.0,8.0,33.0,1.0,0.0,-2.0,,,,,,,,,,,,,,,,,0,11,11,11,0,0,0,0,,,,,,,,,,,,,,,,,,,184.23662460000014,None,184.23662460000014,None,186.31912100000045,187.71858429999975,0.010135850000551727,None,0.48688135000065813,None,0.9699742500006323,None,['return'],[0.6905456000004051],187.76859739999963,None,,,,,,,1,001,2021_Nov_09_1119,eeg_contingent_digits,2021.2.3,60.0196144097731,
11.0,5.0,5.0,8.0,33.0,1.0,0.0,-2.0,,,,,,,,,,,,,,,,,0,11,11,11,1,0,1,0,,,,,,,,,,,,,,,,,,,,,,,,,,,,,,,['return'],[0.1255554999997912],188.50162170000021,None,,,,,,,1,001,2021_Nov_09_1119,eeg_contingent_digits,2021.2.3,60.0196144097731,
11.0,5.0,5.0,8.0,33.0,1.0,0.0,-2.0,,,,,,,,,,,,,,,,,0,11,11,11,2,0,2,0,,,,,,,,,,,,,,,,,,,,,,,,,,,,,,,['return'],[0.09496430000035616],188.66821530000016,None,,,,,,,1,001,2021_Nov_09_1119,eeg_contingent_digits,2021.2.3,60.0196144097731,
11.0,5.0,5.0,8.0,33.0,1.0,0.0,-2.0,,,,,,,,,,,,,,,,,0,11,11,11,,,,,,,,,,,,,,,,,,,,,,,,,,,,,,,,,,,,,,,None,None,None,None,None,,1,001,2021_Nov_09_1119,eeg_contingent_digits,2021.2.3,60.0196144097731,
12.0,9.0,5.0,2.0,21.0,1.0,1.0,0.0,,,,,,,,,,,,,,,,,0,12,12,12,0,0,0,0,,,,,,,,,,,,,,,,,,,188.81816379999964,None,188.81816379999964,None,197.26502080000046,198.66444820000015,0.0164008499996271,None,0.4992511499995089,None,0.9824042499994903,None,['return'],[0.672668799999883],198.71440540000003,None,,,,,,,1,001,2021_Nov_09_1119,eeg_contingent_digits,2021.2.3,60.0196144097731,
12.0,9.0,5.0,2.0,21.0,1.0,1.0,0.0,,,,,,,,,,,,,,,,,0,12,12,12,1,0,1,0,,,,,,,,,,,,,,,,,,,,,,,,,,,,,,,['return'],[0.1322794999996404],199.43080199999986,None,,,,,,,1,001,2021_Nov_09_1119,eeg_contingent_digits,2021.2.3,60.0196144097731,
12.0,9.0,5.0,2.0,21.0,1.0,1.0,0.0,,,,,,,,,,,,,,,,,0,12,12,12,2,0,2,0,,,,,,,,,,,,,,,,,,,,,,,,,,,,,,,['return'],[0.09359049999966373],199.59748920000038,None,,,,,,,1,001,2021_Nov_09_1119,eeg_contingent_digits,2021.2.3,60.0196144097731,
12.0,9.0,5.0,2.0,21.0,1.0,1.0,0.0,,,,,,,,,,,,,,,,,0,12,12,12,,,,,,,,,,,,,,,,,,,,,,,,,,,,,,,,,,,,,,,None,None,None,None,None,,1,001,2021_Nov_09_1119,eeg_contingent_digits,2021.2.3,60.0196144097731,
13.0,3.0,1.0,1.0,1.0,1.0,0.0,1.0,,,,,,,,,,,,,,,,,0,13,13,13,0,0,0,0,,,,,,,,,,,,,,,,,,,199.74737650000043,None,199.74737650000043,None,209.24386779999986,210.64328589999968,0.003956579999794485,None,0.49107877999904304,None,0.974216479999086,None,['return'],[0.5257311999994272],210.69323359999999,None,,,,,,,1,001,2021_Nov_09_1119,eeg_contingent_digits,2021.2.3,60.0196144097731,
13.0,3.0,1.0,1.0,1.0,1.0,0.0,1.0,,,,,,,,,,,,,,,,,0,13,13,13,1,0,1,0,,,,,,,,,,,,,,,,,,,,,,,,,,,,,,,['return'],[0.12729110000054789],211.25968190000003,None,,,,,,,1,001,2021_Nov_09_1119,eeg_contingent_digits,2021.2.3,60.0196144097731,
13.0,3.0,1.0,1.0,1.0,1.0,0.0,1.0,,,,,,,,,,,,,,,,,0,13,13,13,2,0,2,0,,,,,,,,,,,,,,,,,,,,,,,,,,,,,,,['return'],[0.11275089999980992],211.4262690000005,None,,,,,,,1,001,2021_Nov_09_1119,eeg_contingent_digits,2021.2.3,60.0196144097731,
13.0,3.0,1.0,1.0,1.0,1.0,0.0,1.0,,,,,,,,,,,,,,,,,0,13,13,13,,,,,,,,,,,,,,,,,,,,,,,,,,,,,,,,,,,,,,,None,None,None,None,None,,1,001,2021_Nov_09_1119,eeg_contingent_digits,2021.2.3,60.0196144097731,
14.0,5.0,9.0,8.0,33.0,1.0,1.0,0.0,,,,,,,,,,,,,,,,,0,14,14,14,0,0,0,0,,,,,,,,,,,,,,,,,,,211.59289530000024,None,211.59289530000024,None,213.65886310000042,215.0583701000005,0.0024626800004625693,None,0.4713834800004406,None,0.9545511800006352,None,['return'],[0.8626942000000781],215.10822310000003,None,,,,,,,1,001,2021_Nov_09_1119,eeg_contingent_digits,2021.2.3,60.0196144097731,
14.0,5.0,9.0,8.0,33.0,1.0,1.0,0.0,,,,,,,,,,,,,,,,,0,14,14,14,1,0,1,0,,,,,,,,,,,,,,,,,,,,,,,,,,,,,,,['return'],[0.10706879999997909],216.007877,None,,,,,,,1,001,2021_Nov_09_1119,eeg_contingent_digits,2021.2.3,60.0196144097731,
14.0,5.0,9.0,8.0,33.0,1.0,1.0,0.0,,,,,,,,,,,,,,,,,0,14,14,14,2,0,2,0,,,,,,,,,,,,,,,,,,,,,,,,,,,,,,,['return'],[0.11718680000012682],216.1578156000005,None,,,,,,,1,001,2021_Nov_09_1119,eeg_contingent_digits,2021.2.3,60.0196144097731,
14.0,5.0,9.0,8.0,33.0,1.0,1.0,0.0,,,,,,,,,,,,,,,,,0,14,14,14,,,,,,,,,,,,,,,,,,,,,,,,,,,,,,,,,,,,,,,None,None,None,None,None,,1,001,2021_Nov_09_1119,eeg_contingent_digits,2021.2.3,60.0196144097731,
15.0,5.0,4.0,4.0,10.0,1.0,0.0,-1.0,,,,,,,,,,,,,,,,,0,15,15,15,0,0,0,0,,,,,,,,,,,,,,,,,,,216.3244365999999,None,216.3244365999999,None,218.39033870000003,219.78980599999977,0.015043749999676947,None,0.4966003500003353,None,0.979822950000198,None,['return'],[0.7231080999999904],219.8398159999997,None,,,,,,,1,001,2021_Nov_09_1119,eeg_contingent_digits,2021.2.3,60.0196144097731,
15.0,5.0,4.0,4.0,10.0,1.0,0.0,-1.0,,,,,,,,,,,,,,,,,0,15,15,15,1,0,1,0,,,,,,,,,,,,,,,,,,,,,,,,,,,,,,,['return'],[0.1168498000006366],220.6061351999997,None,,,,,,,1,001,2021_Nov_09_1119,eeg_contingent_digits,2021.2.3,60.0196144097731,
15.0,5.0,4.0,4.0,10.0,1.0,0.0,-1.0,,,,,,,,,,,,,,,,,0,15,15,15,2,0,2,0,,,,,,,,,,,,,,,,,,,,,,,,,,,,,,,['return'],[0.1347830000004251],220.7561169999999,None,,,,,,,1,001,2021_Nov_09_1119,eeg_contingent_digits,2021.2.3,60.0196144097731,
15.0,5.0,4.0,4.0,10.0,1.0,0.0,-1.0,,,,,,,,,,,,,,,,,0,15,15,15,,,,,,,,,,,,,,,,,,,,,,,,,,,,,,,,,,,,,,,220.97268669999994,None,return,220.97268669999994,None,0.06220399999983783,1,001,2021_Nov_09_1119,eeg_contingent_digits,2021.2.3,60.0196144097731,
16.0,1.0,5.0,3.0,1.0,0.0,1.0,0.0,,,,,,,,,,,,,,,,,0,16,16,16,0,0,0,0,,,,,,,,,,,,,,,,,,,221.07265780000034,None,221.07265780000034,None,238.01626469999974,239.4157113000001,0.009983179999835556,None,0.4698159800000212,None,0.9529915800003437,None,['return'],[0.993039800000588],239.46573629999966,None,,,,,,,1,001,2021_Nov_09_1119,eeg_contingent_digits,2021.2.3,60.0196144097731,
16.0,1.0,5.0,3.0,1.0,0.0,1.0,0.0,,,,,,,,,,,,,,,,,0,16,16,16,1,0,1,0,,,,,,,,,,,,,,,,,,,,,,,,,,,,,,,['return'],[0.13612100000045757],240.49860590000026,None,,,,,,,1,001,2021_Nov_09_1119,eeg_contingent_digits,2021.2.3,60.0196144097731,
16.0,1.0,5.0,3.0,1.0,0.0,1.0,0.0,,,,,,,,,,,,,,,,,0,16,16,16,2,0,2,0,,,,,,,,,,,,,,,,,,,,,,,,,,,,,,,['return'],[0.12070170000060898],240.68205409999973,None,,,,,,,1,001,2021_Nov_09_1119,eeg_contingent_digits,2021.2.3,60.0196144097731,
16.0,1.0,5.0,3.0,1.0,0.0,1.0,0.0,,,,,,,,,,,,,,,,,0,16,16,16,,,,,,,,,,,,,,,,,,,,,,,,,,,,,,,,,,,,,,,None,None,None,None,None,,1,001,2021_Nov_09_1119,eeg_contingent_digits,2021.2.3,60.0196144097731,
17.0,1.0,1.0,3.0,10.0,0.0,0.0,1.0,,,,,,,,,,,,,,,,,0,17,17,17,0,0,0,0,,,,,,,,,,,,,,,,,,,240.8651488000005,None,240.8651488000005,None,246.9128642000005,248.31234089999998,0.011630680000052962,None,0.489732279999771,None,0.9562247800004116,None,['return'],[1.0723454999997557],248.3623276999997,None,,,,,,,1,001,2021_Nov_09_1119,eeg_contingent_digits,2021.2.3,60.0196144097731,
17.0,1.0,1.0,3.0,10.0,0.0,0.0,1.0,,,,,,,,,,,,,,,,,0,17,17,17,1,0,1,0,,,,,,,,,,,,,,,,,,,,,,,,,,,,,,,['return'],[0.11613570000008622],249.47855330000039,None,,,,,,,1,001,2021_Nov_09_1119,eeg_contingent_digits,2021.2.3,60.0196144097731,
17.0,1.0,1.0,3.0,10.0,0.0,0.0,1.0,,,,,,,,,,,,,,,,,0,17,17,17,2,0,2,0,,,,,,,,,,,,,,,,,,,,,,,,,,,,,,,['return'],[0.12617240000054153],249.62853859999996,None,,,,,,,1,001,2021_Nov_09_1119,eeg_contingent_digits,2021.2.3,60.0196144097731,
17.0,1.0,1.0,3.0,10.0,0.0,0.0,1.0,,,,,,,,,,,,,,,,,0,17,17,17,,,,,,,,,,,,,,,,,,,,,,,,,,,,,,,,,,,,,,,None,None,None,None,None,,1,001,2021_Nov_09_1119,eeg_contingent_digits,2021.2.3,60.0196144097731,
18.0,5.0,1.0,8.0,48.0,0.0,1.0,0.0,,,,,,,,,,,,,,,,,0,18,18,18,0,0,0,0,,,,,,,,,,,,,,,,,,,249.81180180000047,None,249.81180180000047,None,258.0586579999999,259.4581227999997,0.0009597799999028211,None,0.46845177999966836,None,0.9515923799999655,None,['return'],[0.9104925000001458],259.5081058000005,None,,,,,,,1,001,2021_Nov_09_1119,eeg_contingent_digits,2021.2.3,60.0196144097731,
18.0,5.0,1.0,8.0,48.0,0.0,1.0,0.0,,,,,,,,,,,,,,,,,0,18,18,18,1,0,1,0,,,,,,,,,,,,,,,,,,,,,,,,,,,,,,,['return'],[0.13699279999946157],260.45761980000043,None,,,,,,,1,001,2021_Nov_09_1119,eeg_contingent_digits,2021.2.3,60.0196144097731,
18.0,5.0,1.0,8.0,48.0,0.0,1.0,0.0,,,,,,,,,,,,,,,,,0,18,18,18,2,0,2,0,,,,,,,,,,,,,,,,,,,,,,,,,,,,,,,['return'],[0.08944910000082018],260.64115589999983,None,,,,,,,1,001,2021_Nov_09_1119,eeg_contingent_digits,2021.2.3,60.0196144097731,
18.0,5.0,1.0,8.0,48.0,0.0,1.0,0.0,,,,,,,,,,,,,,,,,0,18,18,18,,,,,,,,,,,,,,,,,,,,,,,,,,,,,,,,,,,,,,,None,None,None,None,None,,1,001,2021_Nov_09_1119,eeg_contingent_digits,2021.2.3,60.0196144097731,
19.0,0.0,1.0,2.0,7.0,0.0,0.0,-1.0,,,,,,,,,,,,,,,,,0,19,19,19,0,0,0,0,,,,,,,,,,,,,,,,,,,260.7909830999997,None,260.7909830999997,None,268.10485229999995,269.5043327000003,0.01652765000017098,None,0.49958985000012035,None,0.9826861499996085,None,['return'],[0.6561941999998453],269.55431150000004,None,,,,,,,1,001,2021_Nov_09_1119,eeg_contingent_digits,2021.2.3,60.0196144097731,
19.0,0.0,1.0,2.0,7.0,0.0,0.0,-1.0,,,,,,,,,,,,,,,,,0,19,19,19,1,0,1,0,,,,,,,,,,,,,,,,,,,,,,,,,,,,,,,['return'],[0.11652059999960329],270.2540402000004,None,,,,,,,1,001,2021_Nov_09_1119,eeg_contingent_digits,2021.2.3,60.0196144097731,
19.0,0.0,1.0,2.0,7.0,0.0,0.0,-1.0,,,,,,,,,,,,,,,,,0,19,19,19,2,0,2,0,,,,,,,,,,,,,,,,,,,,,,,,,,,,,,,['return'],[0.12656199999946693],270.40396390000024,None,,,,,,,1,001,2021_Nov_09_1119,eeg_contingent_digits,2021.2.3,60.0196144097731,
19.0,0.0,1.0,2.0,7.0,0.0,0.0,-1.0,,,,,,,,,,,,,,,,,0,19,19,19,,,,,,,,,,,,,,,,,,,,,,,,,,,,,,,,,,,,,,,None,None,None,None,None,,1,001,2021_Nov_09_1119,eeg_contingent_digits,2021.2.3,60.0196144097731,
20.0,5.0,9.0,2.0,48.0,0.0,1.0,0.0,,,,,,,,,,,,,,,,,0,20,20,20,0,0,0,0,,,,,,,,,,,,,,,,,,,270.5872386000001,None,270.5872386000001,None,290.37980460000017,291.77924090000033,0.015066749999277818,None,0.49664024999947287,None,0.9797295499993197,None,['return'],[7.973155099999531],291.8292148999999,None,,,,,,,1,001,2021_Nov_09_1119,eeg_contingent_digits,2021.2.3,60.0196144097731,
20.0,5.0,9.0,2.0,48.0,0.0,1.0,0.0,,,,,,,,,,,,,,,,,0,20,20,20,1,0,1,0,,,,,,,,,,,,,,,,,,,,,,,,,,,,,,,['return'],[0.31151600000066537],299.84283080000023,None,,,,,,,1,001,2021_Nov_09_1119,eeg_contingent_digits,2021.2.3,60.0196144097731,
20.0,5.0,9.0,2.0,48.0,0.0,1.0,0.0,,,,,,,,,,,,,,,,,0,20,20,20,2,0,2,0,,,,,,,,,,,,,,,,,,,,,,,,,,,,,,,['return'],[0.24169530000017403],300.19269749999967,None,,,,,,,1,001,2021_Nov_09_1119,eeg_contingent_digits,2021.2.3,60.0196144097731,
20.0,5.0,9.0,2.0,48.0,0.0,1.0,0.0,,,,,,,,,,,,,,,,,0,20,20,20,,,,,,,,,,,,,,,,,,,,,,,,,,,,,,,,,,,,,,,None,None,None,None,None,,1,001,2021_Nov_09_1119,eeg_contingent_digits,2021.2.3,60.0196144097731,
21.0,3.0,8.0,1.0,61.0,0.0,0.0,0.0,,,,,,,,,,,,,,,,,0,21,21,21,0,0,0,0,,,,,,,,,,,,,,,,,,,300.49267940000027,None,300.49267940000027,None,305.5407213999997,306.9402192999996,0.012722079998638947,None,0.4919415799986382,None,0.9751263799989829,None,"['num_6', 'return']","[3.0041192999997293, 3.684136299999409]",306.99015059999965,None,,,,,,,1,001,2021_Nov_09_1119,eeg_contingent_digits,2021.2.3,60.0196144097731,
21.0,3.0,8.0,1.0,61.0,0.0,0.0,0.0,,,,,,,,,,,,,,,,,0,21,21,21,1,0,1,0,,,,,,,,,,,,,,,,,,,,,,,,,,,,,,,"['num_3', 'return']","[0.15221180000025925, 0.47226210000007995]",310.7220583999997,None,,,,,,,1,001,2021_Nov_09_1119,eeg_contingent_digits,2021.2.3,60.0196144097731,
21.0,3.0,8.0,1.0,61.0,0.0,0.0,0.0,,,,,,,,,,,,,,,,,0,21,21,21,2,0,2,0,,,,,,,,,,,,,,,,,,,,,,,,,,,,,,,"['num_1', 'return']","[0.739798200000223, 0.8998343000002933]",311.238523,None,,,,,,,1,001,2021_Nov_09_1119,eeg_contingent_digits,2021.2.3,60.0196144097731,
21.0,3.0,8.0,1.0,61.0,0.0,0.0,0.0,,,,,,,,,,,,,,,,,0,21,21,21,,,,,,,,,,,,,,,,,,,,,,,,,,,,,,,,,,,,,,,None,None,None,None,None,,1,001,2021_Nov_09_1119,eeg_contingent_digits,2021.2.3,60.0196144097731,
22.0,0.0,8.0,2.0,14.0,0.0,1.0,0.0,,,,,,,,,,,,,,,,,0,22,22,22,0,0,0,0,,,,,,,,,,,,,,,,,,,312.1881807,None,312.1881807,None,320.8349500000004,322.2343842999999,0.011741880000045057,None,0.49000728000009985,None,0.9731959800001277,None,"['num_5', 'num_5', 'return']","[1.3338441000005332, 1.7417424000004758, 1.9897589000001972]",322.2843958000003,None,,,,,,,1,001,2021_Nov_09_1119,eeg_contingent_digits,2021.2.3,60.0196144097731,
22.0,0.0,8.0,2.0,14.0,0.0,1.0,0.0,,,,,,,,,,,,,,,,,0,22,22,22,1,0,1,0,,,,,,,,,,,,,,,,,,,,,,,,,,,,,,,"['num_5', 'return']","[0.18924280000010185, 0.39726689999952214]",324.31691000000046,None,,,,,,,1,001,2021_Nov_09_1119,eeg_contingent_digits,2021.2.3,60.0196144097731,
22.0,0.0,8.0,2.0,14.0,0.0,1.0,0.0,,,,,,,,,,,,,,,,,0,22,22,22,2,0,2,0,,,,,,,,,,,,,,,,,,,,,,,,,,,,,,,"['num_5', 'return']","[0.2040484999997716, 0.4120580999997401]",324.75010050000037,None,,,,,,,1,001,2021_Nov_09_1119,eeg_contingent_digits,2021.2.3,60.0196144097731,
22.0,0.0,8.0,2.0,14.0,0.0,1.0,0.0,,,,,,,,,,,,,,,,,0,22,22,22,,,,,,,,,,,,,,,,,,,,,,,,,,,,,,,,,,,,,,,None,None,None,None,None,,1,001,2021_Nov_09_1119,eeg_contingent_digits,2021.2.3,60.0196144097731,
23.0,3.0,5.0,2.0,13.0,0.0,0.0,2.0,,,,,,,,,,,,,,,,,0,23,23,23,0,0,0,0,,,,,,,,,,,,,,,,,,,325.21658730000036,None,325.21658730000036,None,335.94590960000005,337.3453274000003,0.0044133100000181,None,0.4753674100002172,None,0.9584698099997695,None,['return'],[0.9674589999995078],337.3786522999999,None,,,,,,,1,001,2021_Nov_09_1119,eeg_contingent_digits,2021.2.3,60.0196144097731,
23.0,3.0,5.0,2.0,13.0,0.0,0.0,2.0,,,,,,,,,,,,,,,,,0,23,23,23,1,0,1,0,,,,,,,,,,,,,,,,,,,,,,,,,,,,,,,['return'],[0.21584249999978056],338.37827089999973,None,,,,,,,1,001,2021_Nov_09_1119,eeg_contingent_digits,2021.2.3,60.0196144097731,
23.0,3.0,5.0,2.0,13.0,0.0,0.0,2.0,,,,,,,,,,,,,,,,,0,23,23,23,2,0,2,0,,,,,,,,,,,,,,,,,,,,,,,,,,,,,,,['return'],[0.20593389999976353],338.6281547999997,None,,,,,,,1,001,2021_Nov_09_1119,eeg_contingent_digits,2021.2.3,60.0196144097731,
23.0,3.0,5.0,2.0,13.0,0.0,0.0,2.0,,,,,,,,,,,,,,,,,0,23,23,23,,,,,,,,,,,,,,,,,,,,,,,,,,,,,,,,,,,,,,,338.9114141,None,return,338.9114141,None,1.082686100000501,1,001,2021_Nov_09_1119,eeg_contingent_digits,2021.2.3,60.0196144097731,
24.0,1.0,1.0,1.0,49.0,0.0,1.0,0.0,,,,,,,,,,,,,,,,,0,24,24,24,0,0,0,0,,,,,,,,,,,,,,,,,,,340.02765439999985,None,340.02765439999985,None,344.39266450000014,345.79214349999984,0.015686079999795766,None,0.4811900799995783,None,0.9643145800000639,None,['return'],[1.2884957999995095],345.82549070000005,None,,,,,,,1,001,2021_Nov_09_1119,eeg_contingent_digits,2021.2.3,60.0196144097731,
24.0,1.0,1.0,1.0,49.0,0.0,1.0,0.0,,,,,,,,,,,,,,,,,0,24,24,24,1,0,1,0,,,,,,,,,,,,,,,,,,,,,,,,,,,,,,,['return'],[0.24383430000034423],347.1581664000005,None,,,,,,,1,001,2021_Nov_09_1119,eeg_contingent_digits,2021.2.3,60.0196144097731,
24.0,1.0,1.0,1.0,49.0,0.0,1.0,0.0,,,,,,,,,,,,,,,,,0,24,24,24,2,0,2,0,,,,,,,,,,,,,,,,,,,,,,,,,,,,,,,['return'],[0.22449260000030336],347.44151630000033,None,,,,,,,1,001,2021_Nov_09_1119,eeg_contingent_digits,2021.2.3,60.0196144097731,
24.0,1.0,1.0,1.0,49.0,0.0,1.0,0.0,,,,,,,,,,,,,,,,,0,24,24,24,,,,,,,,,,,,,,,,,,,,,,,,,,,,,,,,,,,,,,,None,None,None,None,None,,1,001,2021_Nov_09_1119,eeg_contingent_digits,2021.2.3,60.0196144097731,
25.0,5.0,9.0,4.0,1.0,0.0,0.0,-0.0,,,,,,,,,,,,,,,,,0,25,25,25,0,0,0,0,,,,,,,,,,,,,,,,,,,347.72474239999974,None,347.72474239999974,None,352.13974039999994,353.53923920000034,0.000974510000560258,None,0.468509310000627,None,0.9517178100004458,None,['return'],[0.7487412999998924],353.58921139999984,None,,,,,,,1,001,2021_Nov_09_1119,eeg_contingent_digits,2021.2.3,60.0196144097731,
25.0,5.0,9.0,4.0,1.0,0.0,0.0,-0.0,,,,,,,,,,,,,,,,,0,25,25,25,1,0,1,0,,,,,,,,,,,,,,,,,,,,,,,,,,,,,,,['return'],[0.18970999999964988],354.3722416999999,None,,,,,,,1,001,2021_Nov_09_1119,eeg_contingent_digits,2021.2.3,60.0196144097731,
25.0,5.0,9.0,4.0,1.0,0.0,0.0,-0.0,,,,,,,,,,,,,,,,,0,25,25,25,2,0,2,0,,,,,,,,,,,,,,,,,,,,,,,,,,,,,,,['return'],[0.15648660000078962],354.60545749999983,None,,,,,,,1,001,2021_Nov_09_1119,eeg_contingent_digits,2021.2.3,60.0196144097731,
25.0,5.0,9.0,4.0,1.0,0.0,0.0,-0.0,,,,,,,,,,,,,,,,,0,25,25,25,,,,,,,,,,,,,,,,,,,,,,,,,,,,,,,,,,,,,,,None,None,None,None,None,,1,001,2021_Nov_09_1119,eeg_contingent_digits,2021.2.3,60.0196144097731,
26.0,3.0,2.0,4.0,21.0,0.0,1.0,0.0,,,,,,,,,,,,,,,,,0,26,26,26,0,0,0,0,,,,,,,,,,,,,,,,,,,354.82207110000036,None,354.82207110000036,None,360.58654000000024,361.9860593000003,0.0016517800004294259,None,0.4698875800004316,None,0.9530051800002184,None,['return'],[0.5179533000000447],362.0360319000001,None,,,,,,,1,001,2021_Nov_09_1119,eeg_contingent_digits,2021.2.3,60.0196144097731,
26.0,3.0,2.0,4.0,21.0,0.0,1.0,0.0,,,,,,,,,,,,,,,,,0,26,26,26,1,0,1,0,,,,,,,,,,,,,,,,,,,,,,,,,,,,,,,['return'],[0.15958509999927628],362.6023359999999,None,,,,,,,1,001,2021_Nov_09_1119,eeg_contingent_digits,2021.2.3,60.0196144097731,
26.0,3.0,2.0,4.0,21.0,0.0,1.0,0.0,,,,,,,,,,,,,,,,,0,26,26,26,2,0,2,0,,,,,,,,,,,,,,,,,,,,,,,,,,,,,,,['return'],[0.13554339999973308],362.80235509999966,None,,,,,,,1,001,2021_Nov_09_1119,eeg_contingent_digits,2021.2.3,60.0196144097731,
26.0,3.0,2.0,4.0,21.0,0.0,1.0,0.0,,,,,,,,,,,,,,,,,0,26,26,26,,,,,,,,,,,,,,,,,,,,,,,,,,,,,,,,,,,,,,,None,None,None,None,None,,1,001,2021_Nov_09_1119,eeg_contingent_digits,2021.2.3,60.0196144097731,
27.0,9.0,4.0,2.0,13.0,0.0,0.0,0.0,,,,,,,,,,,,,,,,,0,27,27,27,0,0,0,0,,,,,,,,,,,,,,,,,,,363.00233170000047,None,363.00233170000047,None,368.83342189999985,370.2329129999998,0.008874880000803387,None,0.4843170800004373,None,0.9674039800011087,None,['return'],[0.7669485999995231],370.2828651,None,,,,,,,1,001,2021_Nov_09_1119,eeg_contingent_digits,2021.2.3,60.0196144097731,
27.0,9.0,4.0,2.0,13.0,0.0,0.0,0.0,,,,,,,,,,,,,,,,,0,27,27,27,1,0,1,0,,,,,,,,,,,,,,,,,,,,,,,,,,,,,,,['return'],[0.16721210000014253],371.0825670000004,None,,,,,,,1,001,2021_Nov_09_1119,eeg_contingent_digits,2021.2.3,60.0196144097731,
27.0,9.0,4.0,2.0,13.0,0.0,0.0,0.0,,,,,,,,,,,,,,,,,0,27,27,27,2,0,2,0,,,,,,,,,,,,,,,,,,,,,,,,,,,,,,,['return'],[0.15933550000045216],371.2824744999998,None,,,,,,,1,001,2021_Nov_09_1119,eeg_contingent_digits,2021.2.3,60.0196144097731,
27.0,9.0,4.0,2.0,13.0,0.0,0.0,0.0,,,,,,,,,,,,,,,,,0,27,27,27,,,,,,,,,,,,,,,,,,,,,,,,,,,,,,,,,,,,,,,None,None,None,None,None,,1,001,2021_Nov_09_1119,eeg_contingent_digits,2021.2.3,60.0196144097731,
28.0,3.0,0.0,2.0,48.0,0.0,1.0,0.0,,,,,,,,,,,,,,,,,0,28,28,28,0,0,0,0,,,,,,,,,,,,,,,,,,,371.4990925000002,None,371.4990925000002,None,375.11445639999965,376.51387929999964,0.01444757999979629,None,0.49542208000002574,None,0.978666279999743,None,['return'],[0.5098747000001822],376.56387369999993,None,,,,,,,1,001,2021_Nov_09_1119,eeg_contingent_digits,2021.2.3,60.0196144097731,
28.0,3.0,0.0,2.0,48.0,0.0,1.0,0.0,,,,,,,,,,,,,,,,,0,28,28,28,1,0,1,0,,,,,,,,,,,,,,,,,,,,,,,,,,,,,,,['return'],[0.16014869999980874],377.11361620000025,None,,,,,,,1,001,2021_Nov_09_1119,eeg_contingent_digits,2021.2.3,60.0196144097731,
28.0,3.0,0.0,2.0,48.0,0.0,1.0,0.0,,,,,,,,,,,,,,,,,0,28,28,28,2,0,2,0,,,,,,,,,,,,,,,,,,,,,,,,,,,,,,,['return'],[0.16031259999999747],377.3134398000002,None,,,,,,,1,001,2021_Nov_09_1119,eeg_contingent_digits,2021.2.3,60.0196144097731,
28.0,3.0,0.0,2.0,48.0,0.0,1.0,0.0,,,,,,,,,,,,,,,,,0,28,28,28,,,,,,,,,,,,,,,,,,,,,,,,,,,,,,,,,,,,,,,None,None,None,None,None,,1,001,2021_Nov_09_1119,eeg_contingent_digits,2021.2.3,60.0196144097731,
29.0,5.0,2.0,8.0,1.0,0.0,0.0,2.0,,,,,,,,,,,,,,,,,0,29,29,29,0,0,0,0,,,,,,,,,,,,,,,,,,,377.53018489999977,None,377.53018489999977,None,383.22796879999987,384.6274555,0.00797667999904661,None,0.48247127999911754,None,0.965630579999015,None,['return'],[0.38828970000031404],384.6774102999998,None,,,,,,,1,001,2021_Nov_09_1119,eeg_contingent_digits,2021.2.3,60.0196144097731,
29.0,5.0,2.0,8.0,1.0,0.0,0.0,2.0,,,,,,,,,,,,,,,,,0,29,29,29,1,0,1,0,,,,,,,,,,,,,,,,,,,,,,,,,,,,,,,['return'],[0.15512970000054338],385.11058909999974,None,,,,,,,1,001,2021_Nov_09_1119,eeg_contingent_digits,2021.2.3,60.0196144097731,
29.0,5.0,2.0,8.0,1.0,0.0,0.0,2.0,,,,,,,,,,,,,,,,,0,29,29,29,2,0,2,0,,,,,,,,,,,,,,,,,,,,,,,,,,,,,,,['return'],[0.1552185999998983],385.31049340000027,None,,,,,,,1,001,2021_Nov_09_1119,eeg_contingent_digits,2021.2.3,60.0196144097731,
29.0,5.0,2.0,8.0,1.0,0.0,0.0,2.0,,,,,,,,,,,,,,,,,0,29,29,29,,,,,,,,,,,,,,,,,,,,,,,,,,,,,,,,,,,,,,,None,None,None,None,None,,1,001,2021_Nov_09_1119,eeg_contingent_digits,2021.2.3,60.0196144097731,
30.0,9.0,4.0,2.0,49.0,0.0,1.0,0.0,,,,,,,,,,,,,,,,,0,30,30,30,0,0,0,0,,,,,,,,,,,,,,,,,,,385.52716620000047,None,385.52716620000047,None,396.48964160000014,397.8891058999998,0.0014172099990901188,None,0.48591540999950666,None,0.9690973099995972,None,['return'],[2.438495100000182],397.93908660000034,None,,,,,,,1,001,2021_Nov_09_1119,eeg_contingent_digits,2021.2.3,60.0196144097731,
30.0,9.0,4.0,2.0,49.0,0.0,1.0,0.0,,,,,,,,,,,,,,,,,0,30,30,30,1,0,1,0,,,,,,,,,,,,,,,,,,,,,,,,,,,,,,,['return'],[0.14012720000027912],400.42146090000006,None,,,,,,,1,001,2021_Nov_09_1119,eeg_contingent_digits,2021.2.3,60.0196144097731,
30.0,9.0,4.0,2.0,49.0,0.0,1.0,0.0,,,,,,,,,,,,,,,,,0,30,30,30,2,0,2,0,,,,,,,,,,,,,,,,,,,,,,,,,,,,,,,['return'],[0.12481710000065505],400.60476560000006,None,,,,,,,1,001,2021_Nov_09_1119,eeg_contingent_digits,2021.2.3,60.0196144097731,
30.0,9.0,4.0,2.0,49.0,0.0,1.0,0.0,,,,,,,,,,,,,,,,,0,30,30,30,,,,,,,,,,,,,,,,,,,,,,,,,,,,,,,,,,,,,,,None,None,None,None,None,,1,001,2021_Nov_09_1119,eeg_contingent_digits,2021.2.3,60.0196144097731,
31.0,1.0,0.0,2.0,7.0,0.0,0.0,-1.0,,,,,,,,,,,,,,,,,0,31,31,31,0,0,0,0,,,,,,,,,,,,,,,,,,,400.78806820000045,None,400.78806820000045,None,404.8697824000001,406.26926790000016,0.014325980000648997,None,0.4785076799998933,None,0.9617026800005988,None,['return'],[23.810093799999777],406.31930550000016,None,,,,,,,1,001,2021_Nov_09_1119,eeg_contingent_digits,2021.2.3,60.0196144097731,
31.0,1.0,0.0,2.0,7.0,0.0,0.0,-1.0,,,,,,,,,,,,,,,,,0,31,31,31,1,0,1,0,,,,,,,,,,,,,,,,,,,,,,,,,,,,,,,['return'],[0.1044659999997748],430.17687149999983,None,,,,,,,1,001,2021_Nov_09_1119,eeg_contingent_digits,2021.2.3,60.0196144097731,
31.0,1.0,0.0,2.0,7.0,0.0,0.0,-1.0,,,,,,,,,,,,,,,,,0,31,31,31,2,0,2,0,,,,,,,,,,,,,,,,,,,,,,,,,,,,,,,['return'],[0.10657480000008945],430.3268275999999,None,,,,,,,1,001,2021_Nov_09_1119,eeg_contingent_digits,2021.2.3,60.0196144097731,
31.0,1.0,0.0,2.0,7.0,0.0,0.0,-1.0,,,,,,,,,,,,,,,,,0,31,31,31,,,,,,,,,,,,,,,,,,,,,,,,,,,,,,,,,,,,,,,430.51016789999994,None,return,430.51016789999994,None,1.5631794999999329,1,001,2021_Nov_09_1119,eeg_contingent_digits,2021.2.3,60.0196144097731,
