TrialID,NFB_digit1,NFB_digit2,NFB_digit3,Speaker_trial,NV_trial,Triggered_trial,Jitter_trial,practice_block.thisRepN,practice_block.thisTrialN,practice_block.thisN,practice_block.thisIndex,practice_trials.thisRepN,practice_trials.thisTrialN,practice_trials.thisN,practice_trials.thisIndex,response_practice.thisRepN,response_practice.thisTrialN,response_practice.thisN,response_practice.thisIndex,calibration_block.thisRepN,calibration_block.thisTrialN,calibration_block.thisN,calibration_block.thisIndex,exp_trials.thisRepN,exp_trials.thisTrialN,exp_trials.thisN,exp_trials.thisIndex,response_exp.thisRepN,response_exp.thisTrialN,response_exp.thisN,response_exp.thisIndex,Digit1_clear.started,Digit1_clear.stopped,Digit2_clear.started,Digit2_clear.stopped,Digit3_clear.started,Digit3_clear.stopped,response_practice_resp.keys,response_practice_resp.rt,response_practice_resp.started,response_practice_resp.stopped,text_practice_repeat.started,text_practice_repeat.stopped,text.started,text.stopped,text_calibration_repeat.started,text_calibration_repeat.stopped,text_break.started,text_break.stopped,Fixation.started,Fixation.stopped,text_6.started,text_6.stopped,Fixation_Play.started,Fixation_Play.stopped,sound_digit1.started,sound_digit1.stopped,sound_digit2.started,sound_digit2.stopped,sound_digit3.started,sound_digit3.stopped,key_resp.keys,key_resp.rt,key_resp.started,key_resp.stopped,text_nextblock.started,text_nextblock.stopped,response_nextblock.keys,response_nextblock.started,response_nextblock.stopped,response_nextblock.rt,participant,session,date,expName,psychopyVersion,frameRate,
0.0,6.0,2.0,4.0,33.0,,,,0,0,0,0,0,0,0,0,0,0,0,0,,,,,,,,,,,,,0.014318120000098133,None,0.4951680200001647,None,0.9616263200005051,None,['return'],[0.8092523999994228],17.695265299999846,None,,,,,,,,,,,,,,,,,,,,,,,,,,,,,,,1,001,2021_Nov_09_1053,eeg_contingent_digits,2021.2.3,60.00376823663302,
0.0,6.0,2.0,4.0,33.0,,,,0,0,0,0,0,0,0,0,1,0,1,0,,,,,,,,,,,,,,,,,,,['return'],[0.1668240999997579],18.56169460000001,None,,,,,,,,,,,,,,,,,,,,,,,,,,,,,,,1,001,2021_Nov_09_1053,eeg_contingent_digits,2021.2.3,60.00376823663302,
0.0,6.0,2.0,4.0,33.0,,,,0,0,0,0,0,0,0,0,2,0,2,0,,,,,,,,,,,,,,,,,,,['return'],[0.1830191000008199],18.76160710000022,None,,,,,,,,,,,,,,,,,,,,,,,,,,,,,,,1,001,2021_Nov_09_1053,eeg_contingent_digits,2021.2.3,60.00376823663302,
0.0,6.0,2.0,4.0,33.0,,,,0,0,0,0,0,0,0,0,,,,,,,,,,,,,,,,,,,,,,,,,,,,,,,,,,,,,,,,,,,,,,,,,,,,,,,,,1,001,2021_Nov_09_1053,eeg_contingent_digits,2021.2.3,60.00376823663302,
,,,,,,,,0,0,0,0,,,,,,,,,,,,,,,,,,,,,,,,,,,,,,,18.978124000000207,None,,,,,,,,,,,,,,,,,,,,,,,,,,,,,1,001,2021_Nov_09_1053,eeg_contingent_digits,2021.2.3,60.00376823663302,
,,,,,,,,,,,,,,,,,,,,0,0,0,0,,,,,,,,,,,,,,,,,,,,,22.426816600000166,None,42.83582790000037,None,,,,,,,,,,,,,,,,,,,,,,,,,1,001,2021_Nov_09_1053,eeg_contingent_digits,2021.2.3,60.00376823663302,
0.0,9.0,5.0,1.0,48.0,1.0,1.0,0.0,,,,,,,,,,,,,,,,,0,0,0,0,0,0,0,0,,,,,,,,,,,,,,,,,45.05155840000043,None,47.3340489000002,None,47.3340489000002,None,73.69075040000007,75.0901788000001,0.00852845000099478,None,0.4835269500008508,None,0.9666969500012783,None,['return'],[2.81190450000031],75.14014570000018,None,,,,,,,1,001,2021_Nov_09_1053,eeg_contingent_digits,2021.2.3,60.00376823663302,
0.0,9.0,5.0,1.0,48.0,1.0,1.0,0.0,,,,,,,,,,,,,,,,,0,0,0,0,1,0,1,0,,,,,,,,,,,,,,,,,,,,,,,,,,,,,,,['return'],[0.2429587000005995],77.98908650000067,None,,,,,,,1,001,2021_Nov_09_1053,eeg_contingent_digits,2021.2.3,60.00376823663302,
0.0,9.0,5.0,1.0,48.0,1.0,1.0,0.0,,,,,,,,,,,,,,,,,0,0,0,0,2,0,2,0,,,,,,,,,,,,,,,,,,,,,,,,,,,,,,,['return'],[0.19967439999982162],78.27234380000027,None,,,,,,,1,001,2021_Nov_09_1053,eeg_contingent_digits,2021.2.3,60.00376823663302,
0.0,9.0,5.0,1.0,48.0,1.0,1.0,0.0,,,,,,,,,,,,,,,,,0,0,0,0,,,,,,,,,,,,,,,,,,,,,,,,,,,,,,,,,,,,,,,None,None,None,None,None,,1,001,2021_Nov_09_1053,eeg_contingent_digits,2021.2.3,60.00376823663302,
1.0,4.0,6.0,2.0,48.0,1.0,0.0,-1.0,,,,,,,,,,,,,,,,,0,1,1,1,0,0,0,0,,,,,,,,,,,,,,,,,,,78.52220560000023,None,78.52220560000023,None,82.58756600000015,83.98679850000008,0.0060313500007396215,None,0.47857215000021824,None,0.9617010500005563,None,['return'],[1.4273721000008663],84.03666359999988,None,,,,,,,1,001,2021_Nov_09_1053,eeg_contingent_digits,2021.2.3,60.00376823663302,
1.0,4.0,6.0,2.0,48.0,1.0,0.0,-1.0,,,,,,,,,,,,,,,,,0,1,1,1,1,0,1,0,,,,,,,,,,,,,,,,,,,,,,,,,,,,,,,['return'],[0.1290856999994503],85.50288850000015,None,,,,,,,1,001,2021_Nov_09_1053,eeg_contingent_digits,2021.2.3,60.00376823663302,
1.0,4.0,6.0,2.0,48.0,1.0,0.0,-1.0,,,,,,,,,,,,,,,,,0,1,1,1,2,0,2,0,,,,,,,,,,,,,,,,,,,,,,,,,,,,,,,['return'],[0.16252499999973224],85.66950020000058,None,,,,,,,1,001,2021_Nov_09_1053,eeg_contingent_digits,2021.2.3,60.00376823663302,
1.0,4.0,6.0,2.0,48.0,1.0,0.0,-1.0,,,,,,,,,,,,,,,,,0,1,1,1,,,,,,,,,,,,,,,,,,,,,,,,,,,,,,,,,,,,,,,None,None,None,None,None,,1,001,2021_Nov_09_1053,eeg_contingent_digits,2021.2.3,60.00376823663302,
2.0,2.0,8.0,9.0,61.0,1.0,1.0,0.0,,,,,,,,,,,,,,,,,0,2,2,2,0,0,0,0,,,,,,,,,,,,,,,,,,,85.8860837000002,None,85.8860837000002,None,107.34459820000029,108.74416030000066,0.006364640000356303,None,0.4792228400001477,None,0.9623909399997501,None,['return'],[1.357056900000316],108.81071940000038,None,,,,,,,1,001,2021_Nov_09_1053,eeg_contingent_digits,2021.2.3,60.00376823663302,
2.0,2.0,8.0,9.0,61.0,1.0,1.0,0.0,,,,,,,,,,,,,,,,,0,2,2,2,1,0,1,0,,,,,,,,,,,,,,,,,,,,,,,,,,,,,,,['return'],[0.1575756000002002],110.21020899999985,None,,,,,,,1,001,2021_Nov_09_1053,eeg_contingent_digits,2021.2.3,60.00376823663302,
2.0,2.0,8.0,9.0,61.0,1.0,1.0,0.0,,,,,,,,,,,,,,,,,0,2,2,2,2,0,2,0,,,,,,,,,,,,,,,,,,,,,,,,,,,,,,,['return'],[0.1656791000004887],110.41010770000048,None,,,,,,,1,001,2021_Nov_09_1053,eeg_contingent_digits,2021.2.3,60.00376823663302,
2.0,2.0,8.0,9.0,61.0,1.0,1.0,0.0,,,,,,,,,,,,,,,,,0,2,2,2,,,,,,,,,,,,,,,,,,,,,,,,,,,,,,,,,,,,,,,None,None,None,None,None,,1,001,2021_Nov_09_1053,eeg_contingent_digits,2021.2.3,60.00376823663302,
3.0,9.0,4.0,1.0,21.0,1.0,0.0,1.0,,,,,,,,,,,,,,,,,0,3,3,3,0,0,0,0,,,,,,,,,,,,,,,,,,,110.62671030000001,None,110.62671030000001,None,116.7078588000004,118.10723969999981,0.001889350000055856,None,0.4869469499999468,None,0.9701769499997681,None,['return'],[1.762595600000168],118.15717140000015,None,,,,,,,1,001,2021_Nov_09_1053,eeg_contingent_digits,2021.2.3,60.00376823663302,
3.0,9.0,4.0,1.0,21.0,1.0,0.0,1.0,,,,,,,,,,,,,,,,,0,3,3,3,1,0,1,0,,,,,,,,,,,,,,,,,,,,,,,,,,,,,,,['return'],[0.17127500000060536],119.95642120000048,None,,,,,,,1,001,2021_Nov_09_1053,eeg_contingent_digits,2021.2.3,60.00376823663302,
3.0,9.0,4.0,1.0,21.0,1.0,0.0,1.0,,,,,,,,,,,,,,,,,0,3,3,3,2,0,2,0,,,,,,,,,,,,,,,,,,,,,,,,,,,,,,,['return'],[0.1706014999999752],120.17307179999989,None,,,,,,,1,001,2021_Nov_09_1053,eeg_contingent_digits,2021.2.3,60.00376823663302,
3.0,9.0,4.0,1.0,21.0,1.0,0.0,1.0,,,,,,,,,,,,,,,,,0,3,3,3,,,,,,,,,,,,,,,,,,,,,,,,,,,,,,,,,,,,,,,None,None,None,None,None,,1,001,2021_Nov_09_1053,eeg_contingent_digits,2021.2.3,60.00376823663302,
4.0,5.0,6.0,4.0,61.0,1.0,1.0,0.0,,,,,,,,,,,,,,,,,0,4,4,4,0,0,0,0,,,,,,,,,,,,,,,,,,,120.40633440000056,None,120.40633440000056,None,123.02198870000029,124.42150630000015,0.00654413000029308,None,0.47955533000003925,None,0.9627564299998994,None,['return'],[0.7435476999999082],124.48815310000009,None,,,,,,,1,001,2021_Nov_09_1053,eeg_contingent_digits,2021.2.3,60.00376823663302,
4.0,5.0,6.0,4.0,61.0,1.0,1.0,0.0,,,,,,,,,,,,,,,,,0,4,4,4,1,0,1,0,,,,,,,,,,,,,,,,,,,,,,,,,,,,,,,['return'],[0.1845576000005167],125.27112990000023,None,,,,,,,1,001,2021_Nov_09_1053,eeg_contingent_digits,2021.2.3,60.00376823663302,
4.0,5.0,6.0,4.0,61.0,1.0,1.0,0.0,,,,,,,,,,,,,,,,,0,4,4,4,2,0,2,0,,,,,,,,,,,,,,,,,,,,,,,,,,,,,,,['return'],[0.19186569999965286],125.48776530000032,None,,,,,,,1,001,2021_Nov_09_1053,eeg_contingent_digits,2021.2.3,60.00376823663302,
4.0,5.0,6.0,4.0,61.0,1.0,1.0,0.0,,,,,,,,,,,,,,,,,0,4,4,4,,,,,,,,,,,,,,,,,,,,,,,,,,,,,,,,,,,,,,,None,None,None,None,None,,1,001,2021_Nov_09_1053,eeg_contingent_digits,2021.2.3,60.00376823663302,
5.0,9.0,5.0,6.0,61.0,1.0,0.0,2.0,,,,,,,,,,,,,,,,,0,5,5,5,0,0,0,0,,,,,,,,,,,,,,,,,,,125.73766890000024,None,125.73766890000024,None,130.4526163999999,131.85201529999995,0.010387250000349013,None,0.487322949999907,None,0.9704963499998485,None,['return'],[0.8896065000008093],131.90197140000055,None,,,,,,,1,001,2021_Nov_09_1053,eeg_contingent_digits,2021.2.3,60.00376823663302,
5.0,9.0,5.0,6.0,61.0,1.0,0.0,2.0,,,,,,,,,,,,,,,,,0,5,5,5,1,0,1,0,,,,,,,,,,,,,,,,,,,,,,,,,,,,,,,['return'],[0.16463860000021668],132.83493520000047,None,,,,,,,1,001,2021_Nov_09_1053,eeg_contingent_digits,2021.2.3,60.00376823663302,
5.0,9.0,5.0,6.0,61.0,1.0,0.0,2.0,,,,,,,,,,,,,,,,,0,5,5,5,2,0,2,0,,,,,,,,,,,,,,,,,,,,,,,,,,,,,,,['return'],[0.18872039999951085],133.03487550000045,None,,,,,,,1,001,2021_Nov_09_1053,eeg_contingent_digits,2021.2.3,60.00376823663302,
5.0,9.0,5.0,6.0,61.0,1.0,0.0,2.0,,,,,,,,,,,,,,,,,0,5,5,5,,,,,,,,,,,,,,,,,,,,,,,,,,,,,,,,,,,,,,,None,None,None,None,None,,1,001,2021_Nov_09_1053,eeg_contingent_digits,2021.2.3,60.00376823663302,
6.0,9.0,8.0,2.0,49.0,1.0,1.0,0.0,,,,,,,,,,,,,,,,,0,6,6,6,0,0,0,0,,,,,,,,,,,,,,,,,,,133.28479320000042,None,133.28479320000042,None,139.6657006000005,141.0652183000002,0.00898343999961071,None,0.4845763399998759,None,0.9676317399998879,None,['return'],[2.1483392999998614],141.1151719999998,None,,,,,,,1,001,2021_Nov_09_1053,eeg_contingent_digits,2021.2.3,60.00376823663302,
6.0,9.0,8.0,2.0,49.0,1.0,1.0,0.0,,,,,,,,,,,,,,,,,0,6,6,6,1,0,1,0,,,,,,,,,,,,,,,,,,,,,,,,,,,,,,,['return'],[0.1578655000002982],143.2976548000006,None,,,,,,,1,001,2021_Nov_09_1053,eeg_contingent_digits,2021.2.3,60.00376823663302,
6.0,9.0,8.0,2.0,49.0,1.0,1.0,0.0,,,,,,,,,,,,,,,,,0,6,6,6,2,0,2,0,,,,,,,,,,,,,,,,,,,,,,,,,,,,,,,['return'],[0.15803850000065722],143.4975768000004,None,,,,,,,1,001,2021_Nov_09_1053,eeg_contingent_digits,2021.2.3,60.00376823663302,
6.0,9.0,8.0,2.0,49.0,1.0,1.0,0.0,,,,,,,,,,,,,,,,,0,6,6,6,,,,,,,,,,,,,,,,,,,,,,,,,,,,,,,,,,,,,,,None,None,None,None,None,,1,001,2021_Nov_09_1053,eeg_contingent_digits,2021.2.3,60.00376823663302,
7.0,2.0,9.0,0.0,13.0,1.0,0.0,-2.0,,,,,,,,,,,,,,,,,0,7,7,7,0,0,0,0,,,,,,,,,,,,,,,,,,,143.7141700000002,None,143.7141700000002,None,148.19587260000026,149.59526600000027,0.014921559999493184,None,0.47970335999980307,None,0.9628546599997208,None,['return'],[0.44217659999958414],149.6452994000001,None,,,,,,,1,001,2021_Nov_09_1053,eeg_contingent_digits,2021.2.3,60.00376823663302,
7.0,2.0,9.0,0.0,13.0,1.0,0.0,-2.0,,,,,,,,,,,,,,,,,0,7,7,7,1,0,1,0,,,,,,,,,,,,,,,,,,,,,,,,,,,,,,,['return'],[0.20720230000006268],150.1282914000003,None,,,,,,,1,001,2021_Nov_09_1053,eeg_contingent_digits,2021.2.3,60.00376823663302,
7.0,2.0,9.0,0.0,13.0,1.0,0.0,-2.0,,,,,,,,,,,,,,,,,0,7,7,7,2,0,2,0,,,,,,,,,,,,,,,,,,,,,,,,,,,,,,,['return'],[0.1571867000002385],150.3782959,None,,,,,,,1,001,2021_Nov_09_1053,eeg_contingent_digits,2021.2.3,60.00376823663302,
7.0,2.0,9.0,0.0,13.0,1.0,0.0,-2.0,,,,,,,,,,,,,,,,,0,7,7,7,,,,,,,,,,,,,,,,,,,,,,,,,,,,,,,,,,,,,,,150.64489550000053,None,return,150.64489550000053,None,6.57054750000043,1,001,2021_Nov_09_1053,eeg_contingent_digits,2021.2.3,60.00376823663302,
8.0,4.0,9.0,6.0,33.0,1.0,1.0,0.0,,,,,,,,,,,,,,,,,0,8,8,8,0,0,0,0,,,,,,,,,,,,,,,,,,,157.2423718,None,157.2423718,None,174.16932540000016,175.56877560000066,0.010779849998471036,None,0.48806154999874707,None,0.9712223499991524,None,['return'],[0.7398407999999108],175.63542460000008,None,,,,,,,1,001,2021_Nov_09_1053,eeg_contingent_digits,2021.2.3,60.00376823663302,
8.0,4.0,9.0,6.0,33.0,1.0,1.0,0.0,,,,,,,,,,,,,,,,,0,8,8,8,1,0,1,0,,,,,,,,,,,,,,,,,,,,,,,,,,,,,,,['return'],[0.19675129999995988],176.41848140000002,None,,,,,,,1,001,2021_Nov_09_1053,eeg_contingent_digits,2021.2.3,60.00376823663302,
8.0,4.0,9.0,6.0,33.0,1.0,1.0,0.0,,,,,,,,,,,,,,,,,0,8,8,8,2,0,2,0,,,,,,,,,,,,,,,,,,,,,,,,,,,,,,,['return'],[0.16357690000040748],176.65168150000045,None,,,,,,,1,001,2021_Nov_09_1053,eeg_contingent_digits,2021.2.3,60.00376823663302,
8.0,4.0,9.0,6.0,33.0,1.0,1.0,0.0,,,,,,,,,,,,,,,,,0,8,8,8,,,,,,,,,,,,,,,,,,,,,,,,,,,,,,,,,,,,,,,None,None,None,None,None,,1,001,2021_Nov_09_1053,eeg_contingent_digits,2021.2.3,60.00376823663302,
9.0,2.0,8.0,9.0,14.0,1.0,0.0,1.0,,,,,,,,,,,,,,,,,0,9,9,9,0,0,0,0,,,,,,,,,,,,,,,,,,,176.86827989999983,None,176.86827989999983,None,182.9493263000004,184.34877870000037,4.113999966648407e-05,None,0.4832096399995862,None,0.9664251399999557,None,['return'],[0.6004456999999093],184.39875800000027,None,,,,,,,1,001,2021_Nov_09_1053,eeg_contingent_digits,2021.2.3,60.00376823663302,
9.0,2.0,8.0,9.0,14.0,1.0,0.0,1.0,,,,,,,,,,,,,,,,,0,9,9,9,1,0,1,0,,,,,,,,,,,,,,,,,,,,,,,,,,,,,,,['return'],[0.18338609999955224],185.03184349999992,None,,,,,,,1,001,2021_Nov_09_1053,eeg_contingent_digits,2021.2.3,60.00376823663302,
9.0,2.0,8.0,9.0,14.0,1.0,0.0,1.0,,,,,,,,,,,,,,,,,0,9,9,9,2,0,2,0,,,,,,,,,,,,,,,,,,,,,,,,,,,,,,,['return'],[0.16683050000028743],185.2484355000006,None,,,,,,,1,001,2021_Nov_09_1053,eeg_contingent_digits,2021.2.3,60.00376823663302,
9.0,2.0,8.0,9.0,14.0,1.0,0.0,1.0,,,,,,,,,,,,,,,,,0,9,9,9,,,,,,,,,,,,,,,,,,,,,,,,,,,,,,,,,,,,,,,None,None,None,None,None,,1,001,2021_Nov_09_1053,eeg_contingent_digits,2021.2.3,60.00376823663302,
10.0,9.0,1.0,3.0,7.0,1.0,1.0,0.0,,,,,,,,,,,,,,,,,0,10,10,10,0,0,0,0,,,,,,,,,,,,,,,,,,,185.4650631000004,None,185.4650631000004,None,202.70849390000058,204.10795710000002,0.013453340000523895,None,0.49341353999989224,None,0.9766620400005195,None,['return'],[0.6410735999997996],204.1579814000006,None,,,,,,,1,001,2021_Nov_09_1053,eeg_contingent_digits,2021.2.3,60.00376823663302,
10.0,9.0,1.0,3.0,7.0,1.0,1.0,0.0,,,,,,,,,,,,,,,,,0,10,10,10,1,0,1,0,,,,,,,,,,,,,,,,,,,,,,,,,,,,,,,['return'],[0.23801480000020092],204.84102070000063,None,,,,,,,1,001,2021_Nov_09_1053,eeg_contingent_digits,2021.2.3,60.00376823663302,
10.0,9.0,1.0,3.0,7.0,1.0,1.0,0.0,,,,,,,,,,,,,,,,,0,10,10,10,2,0,2,0,,,,,,,,,,,,,,,,,,,,,,,,,,,,,,,['return'],[0.21879449999960343],205.12424030000057,None,,,,,,,1,001,2021_Nov_09_1053,eeg_contingent_digits,2021.2.3,60.00376823663302,
10.0,9.0,1.0,3.0,7.0,1.0,1.0,0.0,,,,,,,,,,,,,,,,,0,10,10,10,,,,,,,,,,,,,,,,,,,,,,,,,,,,,,,,,,,,,,,None,None,None,None,None,,1,001,2021_Nov_09_1053,eeg_contingent_digits,2021.2.3,60.00376823663302,
11.0,9.0,1.0,3.0,13.0,1.0,0.0,1.0,,,,,,,,,,,,,,,,,0,11,11,11,0,0,0,0,,,,,,,,,,,,,,,,,,,205.40752220000013,None,205.40752220000013,None,211.48849289999998,212.88797560000057,0.016436849999990955,None,0.4994173499999306,None,0.9825262499998644,None,['return'],[0.5729959999998755],212.93795490000048,None,,,,,,,1,001,2021_Nov_09_1053,eeg_contingent_digits,2021.2.3,60.00376823663302,
11.0,9.0,1.0,3.0,13.0,1.0,0.0,1.0,,,,,,,,,,,,,,,,,0,11,11,11,1,0,1,0,,,,,,,,,,,,,,,,,,,,,,,,,,,,,,,['return'],[0.18059549999998126],213.55437750000056,None,,,,,,,1,001,2021_Nov_09_1053,eeg_contingent_digits,2021.2.3,60.00376823663302,
11.0,9.0,1.0,3.0,13.0,1.0,0.0,1.0,,,,,,,,,,,,,,,,,0,11,11,11,2,0,2,0,,,,,,,,,,,,,,,,,,,,,,,,,,,,,,,['return'],[0.15601479999986623],213.77095700000064,None,,,,,,,1,001,2021_Nov_09_1053,eeg_contingent_digits,2021.2.3,60.00376823663302,
11.0,9.0,1.0,3.0,13.0,1.0,0.0,1.0,,,,,,,,,,,,,,,,,0,11,11,11,,,,,,,,,,,,,,,,,,,,,,,,,,,,,,,,,,,,,,,None,None,None,None,None,,1,001,2021_Nov_09_1053,eeg_contingent_digits,2021.2.3,60.00376823663302,
12.0,2.0,4.0,0.0,7.0,1.0,1.0,0.0,,,,,,,,,,,,,,,,,0,12,12,12,0,0,0,0,,,,,,,,,,,,,,,,,,,213.9875579999998,None,213.9875579999998,None,218.20262150000053,219.6021614000001,0.009313149999798043,None,0.4851172500002576,None,0.9682436500006588,None,['return'],[0.2668516000003365],219.65206430000035,None,,,,,,,1,001,2021_Nov_09_1053,eeg_contingent_digits,2021.2.3,60.00376823663302,
12.0,2.0,4.0,0.0,7.0,1.0,1.0,0.0,,,,,,,,,,,,,,,,,0,12,12,12,1,0,1,0,,,,,,,,,,,,,,,,,,,,,,,,,,,,,,,['return'],[0.18314490000011574],219.95190189999994,None,,,,,,,1,001,2021_Nov_09_1053,eeg_contingent_digits,2021.2.3,60.00376823663302,
12.0,2.0,4.0,0.0,7.0,1.0,1.0,0.0,,,,,,,,,,,,,,,,,0,12,12,12,2,0,2,0,,,,,,,,,,,,,,,,,,,,,,,,,,,,,,,['return'],[0.19842349999998987],220.1685292000002,None,,,,,,,1,001,2021_Nov_09_1053,eeg_contingent_digits,2021.2.3,60.00376823663302,
12.0,2.0,4.0,0.0,7.0,1.0,1.0,0.0,,,,,,,,,,,,,,,,,0,12,12,12,,,,,,,,,,,,,,,,,,,,,,,,,,,,,,,,,,,,,,,None,None,None,None,None,,1,001,2021_Nov_09_1053,eeg_contingent_digits,2021.2.3,60.00376823663302,
13.0,5.0,0.0,2.0,33.0,1.0,0.0,-2.0,,,,,,,,,,,,,,,,,0,13,13,13,0,0,0,0,,,,,,,,,,,,,,,,,,,220.41849170000023,None,220.41849170000023,None,222.75089930000013,224.15037780000057,0.003157539998937864,None,0.489464039998893,None,0.9726256399990234,None,['return'],[5.974494800000684],224.2003838999999,None,,,,,,,1,001,2021_Nov_09_1053,eeg_contingent_digits,2021.2.3,60.00376823663302,
13.0,5.0,0.0,2.0,33.0,1.0,0.0,-2.0,,,,,,,,,,,,,,,,,0,13,13,13,1,0,1,0,,,,,,,,,,,,,,,,,,,,,,,,,,,,,,,['return'],[0.16012809999938327],230.21472119999999,None,,,,,,,1,001,2021_Nov_09_1053,eeg_contingent_digits,2021.2.3,60.00376823663302,
13.0,5.0,0.0,2.0,33.0,1.0,0.0,-2.0,,,,,,,,,,,,,,,,,0,13,13,13,2,0,2,0,,,,,,,,,,,,,,,,,,,,,,,,,,,,,,,['return'],[0.19216150000011112],230.41465049999988,None,,,,,,,1,001,2021_Nov_09_1053,eeg_contingent_digits,2021.2.3,60.00376823663302,
13.0,5.0,0.0,2.0,33.0,1.0,0.0,-2.0,,,,,,,,,,,,,,,,,0,13,13,13,,,,,,,,,,,,,,,,,,,,,,,,,,,,,,,,,,,,,,,None,None,None,None,None,,1,001,2021_Nov_09_1053,eeg_contingent_digits,2021.2.3,60.00376823663302,
14.0,9.0,0.0,2.0,48.0,1.0,1.0,0.0,,,,,,,,,,,,,,,,,0,14,14,14,0,0,0,0,,,,,,,,,,,,,,,,,,,230.66457830000036,None,230.66457830000036,None,239.51123880000068,240.91073630000028,0.006965049999962503,None,0.4804523499997231,None,0.9636133499998323,None,['return'],[1.5100982000003569],240.9606975000006,None,,,,,,,1,001,2021_Nov_09_1053,eeg_contingent_digits,2021.2.3,60.00376823663302,
14.0,9.0,0.0,2.0,48.0,1.0,1.0,0.0,,,,,,,,,,,,,,,,,0,14,14,14,1,0,1,0,,,,,,,,,,,,,,,,,,,,,,,,,,,,,,,['return'],[0.17665979999947012],242.51008790000014,None,,,,,,,1,001,2021_Nov_09_1053,eeg_contingent_digits,2021.2.3,60.00376823663302,
14.0,9.0,0.0,2.0,48.0,1.0,1.0,0.0,,,,,,,,,,,,,,,,,0,14,14,14,2,0,2,0,,,,,,,,,,,,,,,,,,,,,,,,,,,,,,,['return'],[0.18414020000000164],242.72659569999996,None,,,,,,,1,001,2021_Nov_09_1053,eeg_contingent_digits,2021.2.3,60.00376823663302,
14.0,9.0,0.0,2.0,48.0,1.0,1.0,0.0,,,,,,,,,,,,,,,,,0,14,14,14,,,,,,,,,,,,,,,,,,,,,,,,,,,,,,,,,,,,,,,None,None,None,None,None,,1,001,2021_Nov_09_1053,eeg_contingent_digits,2021.2.3,60.00376823663302,
15.0,9.0,8.0,4.0,49.0,1.0,0.0,-2.0,,,,,,,,,,,,,,,,,0,15,15,15,0,0,0,0,,,,,,,,,,,,,,,,,,,242.9599162000004,None,242.9599162000004,None,249.8906361999998,251.2900954000006,0.0013523400002668495,None,0.48587054000017815,None,0.9690602399996351,None,['return'],[0.38657269999930577],251.34008919999997,None,,,,,,,1,001,2021_Nov_09_1053,eeg_contingent_digits,2021.2.3,60.00376823663302,
15.0,9.0,8.0,4.0,49.0,1.0,0.0,-2.0,,,,,,,,,,,,,,,,,0,15,15,15,1,0,1,0,,,,,,,,,,,,,,,,,,,,,,,,,,,,,,,['return'],[0.17752819999986968],251.77315309999994,None,,,,,,,1,001,2021_Nov_09_1053,eeg_contingent_digits,2021.2.3,60.00376823663302,
15.0,9.0,8.0,4.0,49.0,1.0,0.0,-2.0,,,,,,,,,,,,,,,,,0,15,15,15,2,0,2,0,,,,,,,,,,,,,,,,,,,,,,,,,,,,,,,['return'],[0.16881349999948725],251.98982280000018,None,,,,,,,1,001,2021_Nov_09_1053,eeg_contingent_digits,2021.2.3,60.00376823663302,
