TrialID,NFB_digit1,NFB_digit2,NFB_digit3,Speaker_trial,NV_trial,Triggered_trial,Jitter_trial,practice_block.thisRepN,practice_block.thisTrialN,practice_block.thisN,practice_block.thisIndex,practice_trials.thisRepN,practice_trials.thisTrialN,practice_trials.thisN,practice_trials.thisIndex,response_practice.thisRepN,response_practice.thisTrialN,response_practice.thisN,response_practice.thisIndex,calibration_block.thisRepN,calibration_block.thisTrialN,calibration_block.thisN,calibration_block.thisIndex,exp_trials.thisRepN,exp_trials.thisTrialN,exp_trials.thisN,exp_trials.thisIndex,response_exp.thisRepN,response_exp.thisTrialN,response_exp.thisN,response_exp.thisIndex,Digit1_clear.started,Digit1_clear.stopped,Digit2_clear.started,Digit2_clear.stopped,Digit3_clear.started,Digit3_clear.stopped,response_practice_resp.keys,response_practice_resp.rt,response_practice_resp.started,response_practice_resp.stopped,text_practice_repeat.started,text_practice_repeat.stopped,text.started,text.stopped,text_calibration_repeat.started,text_calibration_repeat.stopped,text_break.started,text_break.stopped,Fixation.started,Fixation.stopped,text_6.started,text_6.stopped,Fixation_Play.started,Fixation_Play.stopped,sound_digit1.started,sound_digit1.stopped,sound_digit2.started,sound_digit2.stopped,sound_digit3.started,sound_digit3.stopped,key_resp.keys,key_resp.rt,key_resp.started,key_resp.stopped,text_nextblock.started,text_nextblock.stopped,response_nextblock.keys,response_nextblock.started,response_nextblock.stopped,response_nextblock.rt,participant,session,date,expName,psychopyVersion,frameRate,
0.0,6.0,2.0,4.0,33.0,,,,0,0,0,0,0,0,0,0,0,0,0,0,,,,,,,,,,,,,0.014642520003690151,None,0.4957646200018644,None,0.9789389200013829,None,['return'],[4.56362739999895],16.238954399999784,None,,,,,,,,,,,,,,,,,,,,,,,,,,,,,,,1,001,2021_Nov_09_1401,eeg_contingent_digits,2021.2.3,59.99822405257798,
0.0,6.0,2.0,4.0,33.0,,,,0,0,0,0,0,0,0,0,1,0,1,0,,,,,,,,,,,,,,,,,,,['return'],[0.5326774000022851],20.853894600000785,None,,,,,,,,,,,,,,,,,,,,,,,,,,,,,,,1,001,2021_Nov_09_1401,eeg_contingent_digits,2021.2.3,59.99822405257798,
0.0,6.0,2.0,4.0,33.0,,,,0,0,0,0,0,0,0,0,2,0,2,0,,,,,,,,,,,,,,,,,,,['return'],[0.23020339999857242],21.420361000000412,None,,,,,,,,,,,,,,,,,,,,,,,,,,,,,,,1,001,2021_Nov_09_1401,eeg_contingent_digits,2021.2.3,59.99822405257798,
0.0,6.0,2.0,4.0,33.0,,,,0,0,0,0,0,0,0,0,,,,,,,,,,,,,,,,,,,,,,,,,,,,,,,,,,,,,,,,,,,,,,,,,,,,,,,,,1,001,2021_Nov_09_1401,eeg_contingent_digits,2021.2.3,59.99822405257798,
,,,,,,,,0,0,0,0,,,,,,,,,,,,,,,,,,,,,,,,,,,,,,,21.68687580000187,None,,,,,,,,,,,,,,,,,,,,,,,,,,,,,1,001,2021_Nov_09_1401,eeg_contingent_digits,2021.2.3,59.99822405257798,
,,,,,,,,,,,,,,,,,,,,0,0,0,0,,,,,,,,,,,,,,,,,,,,,25.06921870000224,None,45.39458350000132,None,,,,,,,,,,,,,,,,,,,,,,,,,1,001,2021_Nov_09_1401,eeg_contingent_digits,2021.2.3,59.99822405257798,
0.0,0.0,5.0,8.0,48.0,1.0,1.0,0.0,,,,,,,,,,,,,,,,,0,0,0,0,0,0,0,0,,,,,,,,,,,,,,,,,48.02690810000058,None,49.942873200001486,None,49.942873200001486,None,53.30824180000127,54.70771010000317,0.004661149996536551,None,0.49247264999939944,None,0.9590359499961778,None,['return'],[1.1885667000024114],54.757758400002785,None,,,,,,,1,001,2021_Nov_09_1401,eeg_contingent_digits,2021.2.3,59.99822405257798,
0.0,0.0,5.0,8.0,48.0,1.0,1.0,0.0,,,,,,,,,,,,,,,,,0,0,0,0,1,0,1,0,,,,,,,,,,,,,,,,,,,,,,,,,,,,,,,['return'],[0.22792069999923115],55.99044060000233,None,,,,,,,1,001,2021_Nov_09_1401,eeg_contingent_digits,2021.2.3,59.99822405257798,
0.0,0.0,5.0,8.0,48.0,1.0,1.0,0.0,,,,,,,,,,,,,,,,,0,0,0,0,2,0,2,0,,,,,,,,,,,,,,,,,,,,,,,,,,,,,,,['return'],[0.21718959999998333],56.257104000000254,None,,,,,,,1,001,2021_Nov_09_1401,eeg_contingent_digits,2021.2.3,59.99822405257798,
0.0,0.0,5.0,8.0,48.0,1.0,1.0,0.0,,,,,,,,,,,,,,,,,0,0,0,0,,,,,,,,,,,,,,,,,,,,,,,,,,,,,,,,,,,,,,,None,None,None,None,None,,1,001,2021_Nov_09_1401,eeg_contingent_digits,2021.2.3,59.99822405257798,
1.0,9.0,5.0,3.0,21.0,1.0,0.0,1.0,,,,,,,,,,,,,,,,,0,1,1,1,0,0,0,0,,,,,,,,,,,,,,,,,,,56.54036190000261,None,56.54036190000261,None,60.972005499999796,62.37151840000297,0.006184550002217293,None,0.4788529500037839,None,0.9620418500016967,None,['return'],[0.508786999998847],62.42145309999978,None,,,,,,,1,001,2021_Nov_09_1401,eeg_contingent_digits,2021.2.3,59.99822405257798,
1.0,9.0,5.0,3.0,21.0,1.0,0.0,1.0,,,,,,,,,,,,,,,,,0,1,1,1,1,0,1,0,,,,,,,,,,,,,,,,,,,,,,,,,,,,,,,['return'],[0.20704330000080517],62.97124220000114,None,,,,,,,1,001,2021_Nov_09_1401,eeg_contingent_digits,2021.2.3,59.99822405257798,
1.0,9.0,5.0,3.0,21.0,1.0,0.0,1.0,,,,,,,,,,,,,,,,,0,1,1,1,2,0,2,0,,,,,,,,,,,,,,,,,,,,,,,,,,,,,,,['return'],[0.2051452000014251],63.22111560000121,None,,,,,,,1,001,2021_Nov_09_1401,eeg_contingent_digits,2021.2.3,59.99822405257798,
1.0,9.0,5.0,3.0,21.0,1.0,0.0,1.0,,,,,,,,,,,,,,,,,0,1,1,1,,,,,,,,,,,,,,,,,,,,,,,,,,,,,,,,,,,,,,,None,None,None,None,None,,1,001,2021_Nov_09_1401,eeg_contingent_digits,2021.2.3,59.99822405257798,
2.0,2.0,6.0,9.0,13.0,1.0,1.0,0.0,,,,,,,,,,,,,,,,,0,2,2,2,0,0,0,0,,,,,,,,,,,,,,,,,,,63.50438159999976,None,63.50438159999976,None,74.60018930000297,75.999687800002,0.014249650001147529,None,0.4950149500000407,None,0.9615230499985046,None,['return'],[0.7284743999989587],76.04965609999999,None,,,,,,,1,001,2021_Nov_09_1401,eeg_contingent_digits,2021.2.3,59.99822405257798,
2.0,2.0,6.0,9.0,13.0,1.0,1.0,0.0,,,,,,,,,,,,,,,,,0,2,2,2,1,0,1,0,,,,,,,,,,,,,,,,,,,,,,,,,,,,,,,['return'],[0.2101461999991443],76.81602330000169,None,,,,,,,1,001,2021_Nov_09_1401,eeg_contingent_digits,2021.2.3,59.99822405257798,
2.0,2.0,6.0,9.0,13.0,1.0,1.0,0.0,,,,,,,,,,,,,,,,,0,2,2,2,2,0,2,0,,,,,,,,,,,,,,,,,,,,,,,,,,,,,,,['return'],[0.184266000000207],77.06588860000193,None,,,,,,,1,001,2021_Nov_09_1401,eeg_contingent_digits,2021.2.3,59.99822405257798,
2.0,2.0,6.0,9.0,13.0,1.0,1.0,0.0,,,,,,,,,,,,,,,,,0,2,2,2,,,,,,,,,,,,,,,,,,,,,,,,,,,,,,,,,,,,,,,None,None,None,None,None,,1,001,2021_Nov_09_1401,eeg_contingent_digits,2021.2.3,59.99822405257798,
3.0,5.0,9.0,8.0,14.0,1.0,0.0,0.0,,,,,,,,,,,,,,,,,0,3,3,3,0,0,0,0,,,,,,,,,,,,,,,,,,,77.31581160000133,None,77.31581160000133,None,82.41389909999998,83.81340660000205,0.01663515000473126,None,0.4998302500061982,None,0.9829905500046152,None,['return'],[1.0907924999992247],83.86329640000258,None,,,,,,,1,001,2021_Nov_09_1401,eeg_contingent_digits,2021.2.3,59.99822405257798,
3.0,5.0,9.0,8.0,14.0,1.0,0.0,0.0,,,,,,,,,,,,,,,,,0,3,3,3,1,0,1,0,,,,,,,,,,,,,,,,,,,,,,,,,,,,,,,['return'],[0.17383430000336375],84.996251200002,None,,,,,,,1,001,2021_Nov_09_1401,eeg_contingent_digits,2021.2.3,59.99822405257798,
3.0,5.0,9.0,8.0,14.0,1.0,0.0,0.0,,,,,,,,,,,,,,,,,0,3,3,3,2,0,2,0,,,,,,,,,,,,,,,,,,,,,,,,,,,,,,,['return'],[0.17332299999907264],85.21279380000124,None,,,,,,,1,001,2021_Nov_09_1401,eeg_contingent_digits,2021.2.3,59.99822405257798,
3.0,5.0,9.0,8.0,14.0,1.0,0.0,0.0,,,,,,,,,,,,,,,,,0,3,3,3,,,,,,,,,,,,,,,,,,,,,,,,,,,,,,,,,,,,,,,None,None,None,None,None,,1,001,2021_Nov_09_1401,eeg_contingent_digits,2021.2.3,59.99822405257798,
4.0,1.0,6.0,8.0,61.0,1.0,1.0,0.0,,,,,,,,,,,,,,,,,0,4,4,4,0,0,0,0,,,,,,,,,,,,,,,,,,,85.46274000000267,None,85.46274000000267,None,87.74518770000213,89.14468110000234,0.008242220006650314,None,0.4830022200039821,None,0.9661371200054418,None,['return'],[1.8873468999991019],89.19468020000204,None,,,,,,,1,001,2021_Nov_09_1401,eeg_contingent_digits,2021.2.3,59.99822405257798,
4.0,1.0,6.0,8.0,61.0,1.0,1.0,0.0,,,,,,,,,,,,,,,,,0,4,4,4,1,0,1,0,,,,,,,,,,,,,,,,,,,,,,,,,,,,,,,['return'],[0.1948318000031577],91.12722280000162,None,,,,,,,1,001,2021_Nov_09_1401,eeg_contingent_digits,2021.2.3,59.99822405257798,
4.0,1.0,6.0,8.0,61.0,1.0,1.0,0.0,,,,,,,,,,,,,,,,,0,4,4,4,2,0,2,0,,,,,,,,,,,,,,,,,,,,,,,,,,,,,,,['return'],[0.18554880000010598],91.36049590000039,None,,,,,,,1,001,2021_Nov_09_1401,eeg_contingent_digits,2021.2.3,59.99822405257798,
4.0,1.0,6.0,8.0,61.0,1.0,1.0,0.0,,,,,,,,,,,,,,,,,0,4,4,4,,,,,,,,,,,,,,,,,,,,,,,,,,,,,,,,,,,,,,,None,None,None,None,None,,1,001,2021_Nov_09_1401,eeg_contingent_digits,2021.2.3,59.99822405257798,
5.0,8.0,8.0,4.0,49.0,1.0,0.0,-2.0,,,,,,,,,,,,,,,,,0,5,5,5,0,0,0,0,,,,,,,,,,,,,,,,,,,91.62712960000135,None,91.62712960000135,None,93.67625740000221,95.0757549000009,0.008957750000263331,None,0.48452404999989085,None,0.9676211500009231,None,['return'],[2.635596500000247],95.142385500003,None,,,,,,,1,001,2021_Nov_09_1401,eeg_contingent_digits,2021.2.3,59.99822405257798,
5.0,8.0,8.0,4.0,49.0,1.0,0.0,-2.0,,,,,,,,,,,,,,,,,0,5,5,5,1,0,1,0,,,,,,,,,,,,,,,,,,,,,,,,,,,,,,,['return'],[0.19330930000069202],97.82468450000306,None,,,,,,,1,001,2021_Nov_09_1401,eeg_contingent_digits,2021.2.3,59.99822405257798,
5.0,8.0,8.0,4.0,49.0,1.0,0.0,-2.0,,,,,,,,,,,,,,,,,0,5,5,5,2,0,2,0,,,,,,,,,,,,,,,,,,,,,,,,,,,,,,,['return'],[0.20009009999921545],98.05797430000166,None,,,,,,,1,001,2021_Nov_09_1401,eeg_contingent_digits,2021.2.3,59.99822405257798,
5.0,8.0,8.0,4.0,49.0,1.0,0.0,-2.0,,,,,,,,,,,,,,,,,0,5,5,5,,,,,,,,,,,,,,,,,,,,,,,,,,,,,,,,,,,,,,,None,None,None,None,None,,1,001,2021_Nov_09_1401,eeg_contingent_digits,2021.2.3,59.99822405257798,
6.0,0.0,9.0,5.0,61.0,1.0,1.0,0.0,,,,,,,,,,,,,,,,,0,6,6,6,0,0,0,0,,,,,,,,,,,,,,,,,,,98.32452510000076,None,98.32452510000076,None,107.7543050000022,109.15374470000097,0.010527450001973193,None,0.48762935000195284,None,0.9707635500017204,None,['return'],[2.7581247000016447],109.20376820000092,None,,,,,,,1,001,2021_Nov_09_1401,eeg_contingent_digits,2021.2.3,59.99822405257798,
6.0,0.0,9.0,5.0,61.0,1.0,1.0,0.0,,,,,,,,,,,,,,,,,0,6,6,6,1,0,1,0,,,,,,,,,,,,,,,,,,,,,,,,,,,,,,,['return'],[0.21535059999951045],112.00255240000115,None,,,,,,,1,001,2021_Nov_09_1401,eeg_contingent_digits,2021.2.3,59.99822405257798,
6.0,0.0,9.0,5.0,61.0,1.0,1.0,0.0,,,,,,,,,,,,,,,,,0,6,6,6,2,0,2,0,,,,,,,,,,,,,,,,,,,,,,,,,,,,,,,['return'],[0.18928210000012768],112.25259610000285,None,,,,,,,1,001,2021_Nov_09_1401,eeg_contingent_digits,2021.2.3,59.99822405257798,
6.0,0.0,9.0,5.0,61.0,1.0,1.0,0.0,,,,,,,,,,,,,,,,,0,6,6,6,,,,,,,,,,,,,,,,,,,,,,,,,,,,,,,,,,,,,,,None,None,None,None,None,,1,001,2021_Nov_09_1401,eeg_contingent_digits,2021.2.3,59.99822405257798,
7.0,2.0,2.0,6.0,21.0,1.0,0.0,1.0,,,,,,,,,,,,,,,,,0,7,7,7,0,0,0,0,,,,,,,,,,,,,,,,,,,112.51920190000237,None,112.51920190000237,None,122.9985508000027,124.39796170000045,0.00041804000284173526,None,0.4839879400060454,None,0.967171740005142,None,['return'],[2.369854699998541],124.44795680000243,None,,,,,,,1,001,2021_Nov_09_1401,eeg_contingent_digits,2021.2.3,59.99822405257798,
7.0,2.0,2.0,6.0,21.0,1.0,0.0,1.0,,,,,,,,,,,,,,,,,0,7,7,7,1,0,1,0,,,,,,,,,,,,,,,,,,,,,,,,,,,,,,,['return'],[0.21005399999921792],126.86368440000297,None,,,,,,,1,001,2021_Nov_09_1401,eeg_contingent_digits,2021.2.3,59.99822405257798,
7.0,2.0,2.0,6.0,21.0,1.0,0.0,1.0,,,,,,,,,,,,,,,,,0,7,7,7,2,0,2,0,,,,,,,,,,,,,,,,,,,,,,,,,,,,,,,['return'],[0.19216579999920214],127.11358620000101,None,,,,,,,1,001,2021_Nov_09_1401,eeg_contingent_digits,2021.2.3,59.99822405257798,
7.0,2.0,2.0,6.0,21.0,1.0,0.0,1.0,,,,,,,,,,,,,,,,,0,7,7,7,,,,,,,,,,,,,,,,,,,,,,,,,,,,,,,,,,,,,,,127.39681960000235,None,return,127.39681960000235,None,1.4209424000000581,1,001,2021_Nov_09_1401,eeg_contingent_digits,2021.2.3,59.99822405257798,
8.0,5.0,1.0,2.0,10.0,1.0,1.0,0.0,,,,,,,,,,,,,,,,,0,8,8,8,0,0,0,0,,,,,,,,,,,,,,,,,,,128.87965950000216,None,128.87965950000216,None,132.19501010000022,133.5945283000001,0.00923614000203088,None,0.4850561400016886,None,0.9683118399989326,None,['return'],[0.9652663999986544],133.64445610000257,None,,,,,,,1,001,2021_Nov_09_1401,eeg_contingent_digits,2021.2.3,59.99822405257798,
8.0,5.0,1.0,2.0,10.0,1.0,1.0,0.0,,,,,,,,,,,,,,,,,0,8,8,8,1,0,1,0,,,,,,,,,,,,,,,,,,,,,,,,,,,,,,,['return'],[0.22160169999915524],134.644073200001,None,,,,,,,1,001,2021_Nov_09_1401,eeg_contingent_digits,2021.2.3,59.99822405257798,
8.0,5.0,1.0,2.0,10.0,1.0,1.0,0.0,,,,,,,,,,,,,,,,,0,8,8,8,2,0,2,0,,,,,,,,,,,,,,,,,,,,,,,,,,,,,,,['return'],[0.17902849999882164],134.91064290000213,None,,,,,,,1,001,2021_Nov_09_1401,eeg_contingent_digits,2021.2.3,59.99822405257798,
8.0,5.0,1.0,2.0,10.0,1.0,1.0,0.0,,,,,,,,,,,,,,,,,0,8,8,8,,,,,,,,,,,,,,,,,,,,,,,,,,,,,,,,,,,,,,,None,None,None,None,None,,1,001,2021_Nov_09_1401,eeg_contingent_digits,2021.2.3,59.99822405257798,
9.0,0.0,6.0,5.0,13.0,1.0,0.0,1.0,,,,,,,,,,,,,,,,,0,9,9,9,0,0,0,0,,,,,,,,,,,,,,,,,,,135.1439207000003,None,135.1439207000003,None,139.55898050000178,140.9584098000014,0.012606750002305489,None,0.4918728500051657,None,0.9583955500020238,None,['return'],[0.5132756999992125],141.00840270000117,None,,,,,,,1,001,2021_Nov_09_1401,eeg_contingent_digits,2021.2.3,59.99822405257798,
9.0,0.0,6.0,5.0,13.0,1.0,0.0,1.0,,,,,,,,,,,,,,,,,0,9,9,9,1,0,1,0,,,,,,,,,,,,,,,,,,,,,,,,,,,,,,,['return'],[0.19566420000046492],141.5580203999998,None,,,,,,,1,001,2021_Nov_09_1401,eeg_contingent_digits,2021.2.3,59.99822405257798,
9.0,0.0,6.0,5.0,13.0,1.0,0.0,1.0,,,,,,,,,,,,,,,,,0,9,9,9,2,0,2,0,,,,,,,,,,,,,,,,,,,,,,,,,,,,,,,['return'],[0.19424660000004224],141.7913933000018,None,,,,,,,1,001,2021_Nov_09_1401,eeg_contingent_digits,2021.2.3,59.99822405257798,
9.0,0.0,6.0,5.0,13.0,1.0,0.0,1.0,,,,,,,,,,,,,,,,,0,9,9,9,,,,,,,,,,,,,,,,,,,,,,,,,,,,,,,,,,,,,,,None,None,None,None,None,,1,001,2021_Nov_09_1401,eeg_contingent_digits,2021.2.3,59.99822405257798,
10.0,9.0,8.0,3.0,14.0,1.0,1.0,0.0,,,,,,,,,,,,,,,,,0,10,10,10,0,0,0,0,,,,,,,,,,,,,,,,,,,142.04129620000094,None,142.04129620000094,None,157.4187899000026,158.81826280000314,0.009218050003255485,None,0.4850803500012262,None,0.9681460500032699,None,['return'],[0.5727827000009711],158.86870350000027,None,,,,,,,1,001,2021_Nov_09_1401,eeg_contingent_digits,2021.2.3,59.99822405257798,
10.0,9.0,8.0,3.0,14.0,1.0,1.0,0.0,,,,,,,,,,,,,,,,,0,10,10,10,1,0,1,0,,,,,,,,,,,,,,,,,,,,,,,,,,,,,,,['return'],[0.1808543999977701],159.4846596000025,None,,,,,,,1,001,2021_Nov_09_1401,eeg_contingent_digits,2021.2.3,59.99822405257798,
10.0,9.0,8.0,3.0,14.0,1.0,1.0,0.0,,,,,,,,,,,,,,,,,0,10,10,10,2,0,2,0,,,,,,,,,,,,,,,,,,,,,,,,,,,,,,,['return'],[0.196229699999094],159.7012992000018,None,,,,,,,1,001,2021_Nov_09_1401,eeg_contingent_digits,2021.2.3,59.99822405257798,
10.0,9.0,8.0,3.0,14.0,1.0,1.0,0.0,,,,,,,,,,,,,,,,,0,10,10,10,,,,,,,,,,,,,,,,,,,,,,,,,,,,,,,,,,,,,,,None,None,None,None,None,,1,001,2021_Nov_09_1401,eeg_contingent_digits,2021.2.3,59.99822405257798,
11.0,1.0,6.0,9.0,48.0,1.0,0.0,0.0,,,,,,,,,,,,,,,,,0,11,11,11,0,0,0,0,,,,,,,,,,,,,,,,,,,159.9678555999999,None,159.9678555999999,None,165.03257490000033,166.4321149000025,0.010923340003500925,None,0.488383440002508,None,0.9715851400032989,None,['return'],[0.6313885000017763],166.4820311000003,None,,,,,,,1,001,2021_Nov_09_1401,eeg_contingent_digits,2021.2.3,59.99822405257798,
11.0,1.0,6.0,9.0,48.0,1.0,0.0,0.0,,,,,,,,,,,,,,,,,0,11,11,11,1,0,1,0,,,,,,,,,,,,,,,,,,,,,,,,,,,,,,,['return'],[0.20498229999793693],167.14845609999975,None,,,,,,,1,001,2021_Nov_09_1401,eeg_contingent_digits,2021.2.3,59.99822405257798,
11.0,1.0,6.0,9.0,48.0,1.0,0.0,0.0,,,,,,,,,,,,,,,,,0,11,11,11,2,0,2,0,,,,,,,,,,,,,,,,,,,,,,,,,,,,,,,['return'],[0.1869388999984949],167.39848140000322,None,,,,,,,1,001,2021_Nov_09_1401,eeg_contingent_digits,2021.2.3,59.99822405257798,
11.0,1.0,6.0,9.0,48.0,1.0,0.0,0.0,,,,,,,,,,,,,,,,,0,11,11,11,,,,,,,,,,,,,,,,,,,,,,,,,,,,,,,,,,,,,,,None,None,None,None,None,,1,001,2021_Nov_09_1401,eeg_contingent_digits,2021.2.3,59.99822405257798,
12.0,8.0,2.0,4.0,13.0,1.0,1.0,0.0,,,,,,,,,,,,,,,,,0,12,12,12,0,0,0,0,,,,,,,,,,,,,,,,,,,167.66492120000112,None,167.66492120000112,None,171.56343870000273,172.96300930000143,0.015861650001170347,None,0.4982835500013607,None,0.9648071500014339,None,['return'],[1.844493299999158],173.01289420000103,None,,,,,,,1,001,2021_Nov_09_1401,eeg_contingent_digits,2021.2.3,59.99822405257798,
12.0,8.0,2.0,4.0,13.0,1.0,1.0,0.0,,,,,,,,,,,,,,,,,0,12,12,12,1,0,1,0,,,,,,,,,,,,,,,,,,,,,,,,,,,,,,,['return'],[0.18589590000192402],174.895547600001,None,,,,,,,1,001,2021_Nov_09_1401,eeg_contingent_digits,2021.2.3,59.99822405257798,
12.0,8.0,2.0,4.0,13.0,1.0,1.0,0.0,,,,,,,,,,,,,,,,,0,12,12,12,2,0,2,0,,,,,,,,,,,,,,,,,,,,,,,,,,,,,,,['return'],[0.19265789999917615],175.12874190000002,None,,,,,,,1,001,2021_Nov_09_1401,eeg_contingent_digits,2021.2.3,59.99822405257798,
12.0,8.0,2.0,4.0,13.0,1.0,1.0,0.0,,,,,,,,,,,,,,,,,0,12,12,12,,,,,,,,,,,,,,,,,,,,,,,,,,,,,,,,,,,,,,,None,None,None,None,None,,1,001,2021_Nov_09_1401,eeg_contingent_digits,2021.2.3,59.99822405257798,
13.0,5.0,4.0,8.0,33.0,1.0,0.0,2.0,,,,,,,,,,,,,,,,,0,13,13,13,0,0,0,0,,,,,,,,,,,,,,,,,,,175.39531120000174,None,175.39531120000174,None,181.35973990000275,182.75922750000245,0.012224950001836987,None,0.49098924999998417,None,0.9574859499989543,None,['return'],[0.5441265999979805],182.80919100000028,None,,,,,,,1,001,2021_Nov_09_1401,eeg_contingent_digits,2021.2.3,59.99822405257798,
13.0,5.0,4.0,8.0,33.0,1.0,0.0,2.0,,,,,,,,,,,,,,,,,0,13,13,13,1,0,1,0,,,,,,,,,,,,,,,,,,,,,,,,,,,,,,,['return'],[0.18504510000275332],183.39230010000028,None,,,,,,,1,001,2021_Nov_09_1401,eeg_contingent_digits,2021.2.3,59.99822405257798,
13.0,5.0,4.0,8.0,33.0,1.0,0.0,2.0,,,,,,,,,,,,,,,,,0,13,13,13,2,0,2,0,,,,,,,,,,,,,,,,,,,,,,,,,,,,,,,['return'],[0.19185660000221105],183.62542400000166,None,,,,,,,1,001,2021_Nov_09_1401,eeg_contingent_digits,2021.2.3,59.99822405257798,
13.0,5.0,4.0,8.0,33.0,1.0,0.0,2.0,,,,,,,,,,,,,,,,,0,13,13,13,,,,,,,,,,,,,,,,,,,,,,,,,,,,,,,,,,,,,,,None,None,None,None,None,,1,001,2021_Nov_09_1401,eeg_contingent_digits,2021.2.3,59.99822405257798,
14.0,5.0,4.0,6.0,49.0,1.0,1.0,0.0,,,,,,,,,,,,,,,,,0,14,14,14,0,0,0,0,,,,,,,,,,,,,,,,,,,183.89216410000154,None,183.89216410000154,None,187.89062879999983,189.29005730000063,0.015377450003143167,None,0.4972616500017466,None,0.9637400500032527,None,['return'],[0.7252152000000933],189.3400391000032,None,,,,,,,1,001,2021_Nov_09_1401,eeg_contingent_digits,2021.2.3,59.99822405257798,
14.0,5.0,4.0,6.0,49.0,1.0,1.0,0.0,,,,,,,,,,,,,,,,,0,14,14,14,1,0,1,0,,,,,,,,,,,,,,,,,,,,,,,,,,,,,,,['return'],[0.16690160000143806],190.1064535000005,None,,,,,,,1,001,2021_Nov_09_1401,eeg_contingent_digits,2021.2.3,59.99822405257798,
14.0,5.0,4.0,6.0,49.0,1.0,1.0,0.0,,,,,,,,,,,,,,,,,0,14,14,14,2,0,2,0,,,,,,,,,,,,,,,,,,,,,,,,,,,,,,,['return'],[0.174924099999771],190.30635640000037,None,,,,,,,1,001,2021_Nov_09_1401,eeg_contingent_digits,2021.2.3,59.99822405257798,
14.0,5.0,4.0,6.0,49.0,1.0,1.0,0.0,,,,,,,,,,,,,,,,,0,14,14,14,,,,,,,,,,,,,,,,,,,,,,,,,,,,,,,,,,,,,,,None,None,None,None,None,,1,001,2021_Nov_09_1401,eeg_contingent_digits,2021.2.3,59.99822405257798,
15.0,0.0,1.0,2.0,33.0,1.0,0.0,2.0,,,,,,,,,,,,,,,,,0,15,15,15,0,0,0,0,,,,,,,,,,,,,,,,,,,190.5562826000023,None,190.5562826000023,None,196.6539322000026,198.05341180000323,0.011137249999592314,None,0.48875034999946365,None,0.9719945500000904,None,['return'],[1.7290869999997085],198.12007900000026,None,,,,,,,1,001,2021_Nov_09_1401,eeg_contingent_digits,2021.2.3,59.99822405257798,
15.0,0.0,1.0,2.0,33.0,1.0,0.0,2.0,,,,,,,,,,,,,,,,,0,15,15,15,1,0,1,0,,,,,,,,,,,,,,,,,,,,,,,,,,,,,,,['return'],[0.1551142999996955],199.88605870000174,None,,,,,,,1,001,2021_Nov_09_1401,eeg_contingent_digits,2021.2.3,59.99822405257798,
15.0,0.0,1.0,2.0,33.0,1.0,0.0,2.0,,,,,,,,,,,,,,,,,0,15,15,15,2,0,2,0,,,,,,,,,,,,,,,,,,,,,,,,,,,,,,,['return'],[0.1472403999978269],200.0859586000006,None,,,,,,,1,001,2021_Nov_09_1401,eeg_contingent_digits,2021.2.3,59.99822405257798,
15.0,0.0,1.0,2.0,33.0,1.0,0.0,2.0,,,,,,,,,,,,,,,,,0,15,15,15,,,,,,,,,,,,,,,,,,,,,,,,,,,,,,,,,,,,,,,200.31926020000174,None,return,200.31926020000174,None,6.265877500001807,1,001,2021_Nov_09_1401,eeg_contingent_digits,2021.2.3,59.99822405257798,
16.0,5.0,4.0,4.0,48.0,0.0,1.0,0.0,,,,,,,,,,,,,,,,,0,16,16,16,0,0,0,0,,,,,,,,,,,,,,,,,,,206.63349830000152,None,206.63349830000152,None,209.43242880000253,210.83195429999978,0.009046240003954154,None,0.4846209400020598,None,0.9511404400036554,None,['return'],[1.2552345000003697],210.88189260000217,None,,,,,,,1,001,2021_Nov_09_1401,eeg_contingent_digits,2021.2.3,59.99822405257798,
16.0,5.0,4.0,4.0,48.0,0.0,1.0,0.0,,,,,,,,,,,,,,,,,0,16,16,16,1,0,1,0,,,,,,,,,,,,,,,,,,,,,,,,,,,,,,,['return'],[0.18769629999951576],212.18138370000088,None,,,,,,,1,001,2021_Nov_09_1401,eeg_contingent_digits,2021.2.3,59.99822405257798,
16.0,5.0,4.0,4.0,48.0,0.0,1.0,0.0,,,,,,,,,,,,,,,,,0,16,16,16,2,0,2,0,,,,,,,,,,,,,,,,,,,,,,,,,,,,,,,['return'],[0.1464698000017961],212.4146679000005,None,,,,,,,1,001,2021_Nov_09_1401,eeg_contingent_digits,2021.2.3,59.99822405257798,
16.0,5.0,4.0,4.0,48.0,0.0,1.0,0.0,,,,,,,,,,,,,,,,,0,16,16,16,,,,,,,,,,,,,,,,,,,,,,,,,,,,,,,,,,,,,,,None,None,None,None,None,,1,001,2021_Nov_09_1401,eeg_contingent_digits,2021.2.3,59.99822405257798,
17.0,1.0,9.0,5.0,33.0,0.0,0.0,-1.0,,,,,,,,,,,,,,,,,0,17,17,17,0,0,0,0,,,,,,,,,,,,,,,,,,,212.63122400000066,None,212.63122400000066,None,214.68051580000247,216.07993290000013,0.00825824000276043,None,0.483016440000938,None,0.9495059400032915,None,['return'],[2.479133400000137],216.12990080000236,None,,,,,,,1,001,2021_Nov_09_1401,eeg_contingent_digits,2021.2.3,59.99822405257798,
17.0,1.0,9.0,5.0,33.0,0.0,0.0,-1.0,,,,,,,,,,,,,,,,,0,17,17,17,1,0,1,0,,,,,,,,,,,,,,,,,,,,,,,,,,,,,,,['return'],[0.1554082999973616],218.64563960000305,None,,,,,,,1,001,2021_Nov_09_1401,eeg_contingent_digits,2021.2.3,59.99822405257798,
17.0,1.0,9.0,5.0,33.0,0.0,0.0,-1.0,,,,,,,,,,,,,,,,,0,17,17,17,2,0,2,0,,,,,,,,,,,,,,,,,,,,,,,,,,,,,,,['return'],[0.13149820000035106],218.84552410000106,None,,,,,,,1,001,2021_Nov_09_1401,eeg_contingent_digits,2021.2.3,59.99822405257798,
17.0,1.0,9.0,5.0,33.0,0.0,0.0,-1.0,,,,,,,,,,,,,,,,,0,17,17,17,,,,,,,,,,,,,,,,,,,,,,,,,,,,,,,,,,,,,,,None,None,None,None,None,,1,001,2021_Nov_09_1401,eeg_contingent_digits,2021.2.3,59.99822405257798,
18.0,1.0,6.0,8.0,49.0,0.0,1.0,0.0,,,,,,,,,,,,,,,,,0,18,18,18,0,0,0,0,,,,,,,,,,,,,,,,,,,219.04547319999983,None,219.04547319999983,None,233.05687730000136,234.45628910000232,0.014129140003205976,None,0.4947608400034369,None,0.9778823400047258,None,['return'],[0.9266418000006524],234.50629910000134,None,,,,,,,1,001,2021_Nov_09_1401,eeg_contingent_digits,2021.2.3,59.99822405257798,
18.0,1.0,6.0,8.0,49.0,0.0,1.0,0.0,,,,,,,,,,,,,,,,,0,18,18,18,1,0,1,0,,,,,,,,,,,,,,,,,,,,,,,,,,,,,,,['return'],[0.15243790000022273],235.47246500000256,None,,,,,,,1,001,2021_Nov_09_1401,eeg_contingent_digits,2021.2.3,59.99822405257798,
18.0,1.0,6.0,8.0,49.0,0.0,1.0,0.0,,,,,,,,,,,,,,,,,0,18,18,18,2,0,2,0,,,,,,,,,,,,,,,,,,,,,,,,,,,,,,,['return'],[0.12839789999998175],235.6725327000022,None,,,,,,,1,001,2021_Nov_09_1401,eeg_contingent_digits,2021.2.3,59.99822405257798,
18.0,1.0,6.0,8.0,49.0,0.0,1.0,0.0,,,,,,,,,,,,,,,,,0,18,18,18,,,,,,,,,,,,,,,,,,,,,,,,,,,,,,,,,,,,,,,None,None,None,None,None,,1,001,2021_Nov_09_1401,eeg_contingent_digits,2021.2.3,59.99822405257798,
19.0,8.0,4.0,6.0,14.0,0.0,0.0,-2.0,,,,,,,,,,,,,,,,,0,19,19,19,0,0,0,0,,,,,,,,,,,,,,,,,,,235.87244250000003,None,235.87244250000003,None,238.93791460000284,240.33743330000289,0.006248340003367048,None,0.47897364000527887,None,0.945462840005348,None,['return'],[0.5255010000000766],240.38737420000325,None,,,,,,,1,001,2021_Nov_09_1401,eeg_contingent_digits,2021.2.3,59.99822405257798,
19.0,8.0,4.0,6.0,14.0,0.0,0.0,-2.0,,,,,,,,,,,,,,,,,0,19,19,19,1,0,1,0,,,,,,,,,,,,,,,,,,,,,,,,,,,,,,,['return'],[0.15907810000135214],240.95382860000245,None,,,,,,,1,001,2021_Nov_09_1401,eeg_contingent_digits,2021.2.3,59.99822405257798,
19.0,8.0,4.0,6.0,14.0,0.0,0.0,-2.0,,,,,,,,,,,,,,,,,0,19,19,19,2,0,2,0,,,,,,,,,,,,,,,,,,,,,,,,,,,,,,,['return'],[0.15112990000125137],241.15373739999995,None,,,,,,,1,001,2021_Nov_09_1401,eeg_contingent_digits,2021.2.3,59.99822405257798,
19.0,8.0,4.0,6.0,14.0,0.0,0.0,-2.0,,,,,,,,,,,,,,,,,0,19,19,19,,,,,,,,,,,,,,,,,,,,,,,,,,,,,,,,,,,,,,,None,None,None,None,None,,1,001,2021_Nov_09_1401,eeg_contingent_digits,2021.2.3,59.99822405257798,
20.0,8.0,1.0,8.0,1.0,0.0,1.0,0.0,,,,,,,,,,,,,,,,,0,20,20,20,0,0,0,0,,,,,,,,,,,,,,,,,,,241.35368420000304,None,241.35368420000304,None,245.735425400002,247.13484600000083,0.0025665300017863046,None,0.4882898300020315,None,0.9548827300022822,None,['return'],[0.5840008999985002],247.18481130000146,None,,,,,,,1,001,2021_Nov_09_1401,eeg_contingent_digits,2021.2.3,59.99822405257798,
20.0,8.0,1.0,8.0,1.0,0.0,1.0,0.0,,,,,,,,,,,,,,,,,0,20,20,20,1,0,1,0,,,,,,,,,,,,,,,,,,,,,,,,,,,,,,,['return'],[0.1676013000032981],247.80122440000196,None,,,,,,,1,001,2021_Nov_09_1401,eeg_contingent_digits,2021.2.3,59.99822405257798,
20.0,8.0,1.0,8.0,1.0,0.0,1.0,0.0,,,,,,,,,,,,,,,,,0,20,20,20,2,0,2,0,,,,,,,,,,,,,,,,,,,,,,,,,,,,,,,['return'],[0.15169329999844194],248.00116490000073,None,,,,,,,1,001,2021_Nov_09_1401,eeg_contingent_digits,2021.2.3,59.99822405257798,
20.0,8.0,1.0,8.0,1.0,0.0,1.0,0.0,,,,,,,,,,,,,,,,,0,20,20,20,,,,,,,,,,,,,,,,,,,,,,,,,,,,,,,,,,,,,,,None,None,None,None,None,,1,001,2021_Nov_09_1401,eeg_contingent_digits,2021.2.3,59.99822405257798,
21.0,5.0,5.0,4.0,7.0,0.0,0.0,2.0,,,,,,,,,,,,,,,,,0,21,21,21,0,0,0,0,,,,,,,,,,,,,,,,,,,248.20097520000127,None,248.20097520000127,None,254.6819632000006,256.081495800001,0.008403930001804838,None,0.48331883000355447,None,0.9665161300035834,None,['return'],[0.4125050000002375],256.1481808000026,None,,,,,,,1,001,2021_Nov_09_1401,eeg_contingent_digits,2021.2.3,59.99822405257798,
21.0,5.0,5.0,4.0,7.0,0.0,0.0,2.0,,,,,,,,,,,,,,,,,0,21,21,21,1,0,1,0,,,,,,,,,,,,,,,,,,,,,,,,,,,,,,,['return'],[0.1708242999993672],256.59789880000244,None,,,,,,,1,001,2021_Nov_09_1401,eeg_contingent_digits,2021.2.3,59.99822405257798,
21.0,5.0,5.0,4.0,7.0,0.0,0.0,2.0,,,,,,,,,,,,,,,,,0,21,21,21,2,0,2,0,,,,,,,,,,,,,,,,,,,,,,,,,,,,,,,['return'],[0.13823879999836208],256.8144828000004,None,,,,,,,1,001,2021_Nov_09_1401,eeg_contingent_digits,2021.2.3,59.99822405257798,
21.0,5.0,5.0,4.0,7.0,0.0,0.0,2.0,,,,,,,,,,,,,,,,,0,21,21,21,,,,,,,,,,,,,,,,,,,,,,,,,,,,,,,,,,,,,,,None,None,None,None,None,,1,001,2021_Nov_09_1401,eeg_contingent_digits,2021.2.3,59.99822405257798,
22.0,0.0,5.0,2.0,49.0,0.0,1.0,0.0,,,,,,,,,,,,,,,,,0,22,22,22,0,0,0,0,,,,,,,,,,,,,,,,,,,257.03107400000226,None,257.03107400000226,None,280.15568669999993,281.5551465000026,0.012121640003897483,None,0.4907709400031308,None,0.9739982400024019,None,['return'],[0.7954813000033027],281.60510369999975,None,,,,,,,1,001,2021_Nov_09_1401,eeg_contingent_digits,2021.2.3,59.99822405257798,
22.0,0.0,5.0,2.0,49.0,0.0,1.0,0.0,,,,,,,,,,,,,,,,,0,22,22,22,1,0,1,0,,,,,,,,,,,,,,,,,,,,,,,,,,,,,,,['return'],[0.18649240000013378],282.4380237000005,None,,,,,,,1,001,2021_Nov_09_1401,eeg_contingent_digits,2021.2.3,59.99822405257798,
22.0,0.0,5.0,2.0,49.0,0.0,1.0,0.0,,,,,,,,,,,,,,,,,0,22,22,22,2,0,2,0,,,,,,,,,,,,,,,,,,,,,,,,,,,,,,,['return'],[0.20112850000077742],282.67140389999986,None,,,,,,,1,001,2021_Nov_09_1401,eeg_contingent_digits,2021.2.3,59.99822405257798,
22.0,0.0,5.0,2.0,49.0,0.0,1.0,0.0,,,,,,,,,,,,,,,,,0,22,22,22,,,,,,,,,,,,,,,,,,,,,,,,,,,,,,,,,,,,,,,None,None,None,None,None,,1,001,2021_Nov_09_1401,eeg_contingent_digits,2021.2.3,59.99822405257798,
23.0,5.0,2.0,9.0,1.0,0.0,0.0,-0.0,,,,,,,,,,,,,,,,,0,23,23,23,0,0,0,0,,,,,,,,,,,,,,,,,,,282.9380247000008,None,282.9380247000008,None,287.9693791999998,289.3688518000017,0.013739140002144268,None,0.49401634000241756,None,0.960475640000368,None,['return'],[1.093656099998043],289.4188326000003,None,,,,,,,1,001,2021_Nov_09_1401,eeg_contingent_digits,2021.2.3,59.99822405257798,
23.0,5.0,2.0,9.0,1.0,0.0,0.0,-0.0,,,,,,,,,,,,,,,,,0,23,23,23,1,0,1,0,,,,,,,,,,,,,,,,,,,,,,,,,,,,,,,['return'],[0.19274850000147126],290.5517131000015,None,,,,,,,1,001,2021_Nov_09_1401,eeg_contingent_digits,2021.2.3,59.99822405257798,
23.0,5.0,2.0,9.0,1.0,0.0,0.0,-0.0,,,,,,,,,,,,,,,,,0,23,23,23,2,0,2,0,,,,,,,,,,,,,,,,,,,,,,,,,,,,,,,['return'],[0.1915393999988737],290.78498899999977,None,,,,,,,1,001,2021_Nov_09_1401,eeg_contingent_digits,2021.2.3,59.99822405257798,
23.0,5.0,2.0,9.0,1.0,0.0,0.0,-0.0,,,,,,,,,,,,,,,,,0,23,23,23,,,,,,,,,,,,,,,,,,,,,,,,,,,,,,,,,,,,,,,291.05157220000183,None,return,291.05157220000183,None,1.2928950999994413,1,001,2021_Nov_09_1401,eeg_contingent_digits,2021.2.3,59.99822405257798,
