TrialID,NFB_digit1,NFB_digit2,NFB_digit3,practice_block.thisRepN,practice_block.thisTrialN,practice_block.thisN,practice_block.thisIndex,practice_trials.thisRepN,practice_trials.thisTrialN,practice_trials.thisN,practice_trials.thisIndex,response_practice.thisRepN,response_practice.thisTrialN,response_practice.thisN,response_practice.thisIndex,calibration_block.thisRepN,calibration_block.thisTrialN,calibration_block.thisN,calibration_block.thisIndex,experimental_block.thisRepN,experimental_block.thisTrialN,experimental_block.thisN,experimental_block.thisIndex,exp_trials.thisRepN,exp_trials.thisTrialN,exp_trials.thisN,exp_trials.thisIndex,Digit1_clear.started,Digit1_clear.stopped,Digit2_clear.started,Digit2_clear.stopped,Digit3_clear.started,Digit3_clear.stopped,key_resp_3.keys,key_resp_3.rt,key_resp_3.started,key_resp_3.stopped,text_4.started,text_4.stopped,text_5.started,text_5.stopped,Begin.started,Begin.stopped,participant,session,date,expName,psychopyVersion,frameRate,
0.0,6.0,2.0,4.0,0,0,0,0,0,0,0,0,0,0,0,0,,,,,,,,,,,,,0.010776879993500188,None,0.4905037799908314,None,0.9534650799905648,None,['return'],[0.9382130000012694],21.546956399994087,None,,,,,,,1,001,2021_Oct_19_1639,eeg_contingent_digits,2021.2.3,60.00340819508855,
0.0,6.0,2.0,4.0,0,0,0,0,0,0,0,0,1,0,1,0,,,,,,,,,,,,,,,,,,,['return'],[0.5634883000020636],22.50261879999016,None,,,,,,,1,001,2021_Oct_19_1639,eeg_contingent_digits,2021.2.3,60.00340819508855,
0.0,6.0,2.0,4.0,0,0,0,0,0,0,0,0,2,0,2,0,,,,,,,,,,,,,,,,,,,['return'],[0.4643395999883069],23.085913999995682,None,,,,,,,1,001,2021_Oct_19_1639,eeg_contingent_digits,2021.2.3,60.00340819508855,
0.0,6.0,2.0,4.0,0,0,0,0,0,0,0,0,,,,,,,,,,,,,,,,,,,,,,,,,,,,,,,,,1,001,2021_Oct_19_1639,eeg_contingent_digits,2021.2.3,60.00340819508855,
1.0,1.0,9.0,3.0,0,0,0,0,0,1,1,1,0,0,0,0,,,,,,,,,,,,,0.009757940002600662,None,0.48589173999789637,None,0.9691347399930237,None,['return'],[0.6344660000031581],25.020683599999757,None,,,,,,,1,001,2021_Oct_19_1639,eeg_contingent_digits,2021.2.3,60.00340819508855,
1.0,1.0,9.0,3.0,0,0,0,0,0,1,1,1,1,0,1,0,,,,,,,,,,,,,,,,,,,['return'],[0.49359489999187645],25.685714299994288,None,,,,,,,1,001,2021_Oct_19_1639,eeg_contingent_digits,2021.2.3,60.00340819508855,
1.0,1.0,9.0,3.0,0,0,0,0,0,1,1,1,2,0,2,0,,,,,,,,,,,,,,,,,,,['return'],[0.5007282000005944],26.202611999993678,None,,,,,,,1,001,2021_Oct_19_1639,eeg_contingent_digits,2021.2.3,60.00340819508855,
1.0,1.0,9.0,3.0,0,0,0,0,0,1,1,1,,,,,,,,,,,,,,,,,,,,,,,,,,,,,,,,,1,001,2021_Oct_19_1639,eeg_contingent_digits,2021.2.3,60.00340819508855,
2.0,8.0,0.0,1.0,0,0,0,0,0,2,2,2,0,0,0,0,,,,,,,,,,,,,0.0016683399881003425,None,0.46981283999048173,None,0.956160039990209,None,['return'],[0.7040973999974085],28.17814119999821,None,,,,,,,1,001,2021_Oct_19_1639,eeg_contingent_digits,2021.2.3,60.00340819508855,
2.0,8.0,0.0,1.0,0,0,0,0,0,2,2,2,1,0,1,0,,,,,,,,,,,,,,,,,,,['return'],[0.4551674000103958],28.902135199998156,None,,,,,,,1,001,2021_Oct_19_1639,eeg_contingent_digits,2021.2.3,60.00340819508855,
2.0,8.0,0.0,1.0,0,0,0,0,0,2,2,2,2,0,2,0,,,,,,,,,,,,,,,,,,,['return'],[0.4308717000094475],29.38541940000141,None,,,,,,,1,001,2021_Oct_19_1639,eeg_contingent_digits,2021.2.3,60.00340819508855,
2.0,8.0,0.0,1.0,0,0,0,0,0,2,2,2,,,,,,,,,,,,,,,,,,,,,,,,,,,,,,,,,1,001,2021_Oct_19_1639,eeg_contingent_digits,2021.2.3,60.00340819508855,
3.0,9.0,6.0,1.0,0,0,0,0,0,3,3,3,0,0,0,0,,,,,,,,,,,,,0.01052794000133872,None,0.4707534399931319,None,0.9539604399906239,None,['return'],[0.5755599000112852],31.268610499988426,None,,,,,,,1,001,2021_Oct_19_1639,eeg_contingent_digits,2021.2.3,60.00340819508855,
3.0,9.0,6.0,1.0,0,0,0,0,0,3,3,3,1,0,1,0,,,,,,,,,,,,,,,,,,,['return'],[0.40557269999408163],31.86856919999991,None,,,,,,,1,001,2021_Oct_19_1639,eeg_contingent_digits,2021.2.3,60.00340819508855,
3.0,9.0,6.0,1.0,0,0,0,0,0,3,3,3,2,0,2,0,,,,,,,,,,,,,,,,,,,['return'],[0.40628390001074877],32.301872899988666,None,,,,,,,1,001,2021_Oct_19_1639,eeg_contingent_digits,2021.2.3,60.00340819508855,
3.0,9.0,6.0,1.0,0,0,0,0,0,3,3,3,,,,,,,,,,,,,,,,,,,,,,,,,,,,,,,,,1,001,2021_Oct_19_1639,eeg_contingent_digits,2021.2.3,60.00340819508855,
4.0,8.0,1.0,5.0,0,0,0,0,0,4,4,4,0,0,0,0,,,,,,,,,,,,,0.007204339999589138,None,0.48089584000990726,None,0.9640755400032504,None,['return'],[0.5135223000106635],34.18964139999298,None,,,,,,,1,001,2021_Oct_19_1639,eeg_contingent_digits,2021.2.3,60.00340819508855,
4.0,8.0,1.0,5.0,0,0,0,0,0,4,4,4,1,0,1,0,,,,,,,,,,,,,,,,,,,['return'],[0.3480976999999257],34.73503419999906,None,,,,,,,1,001,2021_Oct_19_1639,eeg_contingent_digits,2021.2.3,60.00340819508855,
4.0,8.0,1.0,5.0,0,0,0,0,0,4,4,4,2,0,2,0,,,,,,,,,,,,,,,,,,,['return'],[0.395951900005457],35.10122229999979,None,,,,,,,1,001,2021_Oct_19_1639,eeg_contingent_digits,2021.2.3,60.00340819508855,
4.0,8.0,1.0,5.0,0,0,0,0,0,4,4,4,,,,,,,,,,,,,,,,,,,,,,,,,,,,,,,,,1,001,2021_Oct_19_1639,eeg_contingent_digits,2021.2.3,60.00340819508855,
5.0,4.0,1.0,0.0,0,0,0,0,0,5,5,5,0,0,0,0,,,,,,,,,,,,,0.004946939996443689,None,0.47598673999891616,None,0.9595483400044031,None,['return'],[1.8528967000020202],36.968081099999836,None,,,,,,,1,001,2021_Oct_19_1639,eeg_contingent_digits,2021.2.3,60.00340819508855,
5.0,4.0,1.0,0.0,0,0,0,0,0,5,5,5,1,0,1,0,,,,,,,,,,,,,,,,,,,['return'],[1.2380756000056863],38.851142599989544,None,,,,,,,1,001,2021_Oct_19_1639,eeg_contingent_digits,2021.2.3,60.00340819508855,
5.0,4.0,1.0,0.0,0,0,0,0,0,5,5,5,2,0,2,0,,,,,,,,,,,,,,,,,,,['return'],[0.5173855000030017],40.117939599993406,None,,,,,,,1,001,2021_Oct_19_1639,eeg_contingent_digits,2021.2.3,60.00340819508855,
5.0,4.0,1.0,0.0,0,0,0,0,0,5,5,5,,,,,,,,,,,,,,,,,,,,,,,,,,,,,,,,,1,001,2021_Oct_19_1639,eeg_contingent_digits,2021.2.3,60.00340819508855,
6.0,9.0,2.0,6.0,0,0,0,0,0,6,6,6,0,0,0,0,,,,,,,,,,,,,0.0012638399930438027,None,0.46898963999410626,None,0.9522032399981981,None,['return'],[0.7068508999946062],42.12628830000176,None,,,,,,,1,001,2021_Oct_19_1639,eeg_contingent_digits,2021.2.3,60.00340819508855,
6.0,9.0,2.0,6.0,0,0,0,0,0,6,6,6,1,0,1,0,,,,,,,,,,,,,,,,,,,['return'],[0.37518380000256],42.85101489999215,None,,,,,,,1,001,2021_Oct_19_1639,eeg_contingent_digits,2021.2.3,60.00340819508855,
6.0,9.0,2.0,6.0,0,0,0,0,0,6,6,6,2,0,2,0,,,,,,,,,,,,,,,,,,,['return'],[0.3811163999926066],43.25100789999124,None,,,,,,,1,001,2021_Oct_19_1639,eeg_contingent_digits,2021.2.3,60.00340819508855,
6.0,9.0,2.0,6.0,0,0,0,0,0,6,6,6,,,,,,,,,,,,,,,,,,,,,,,,,,,,,,,,,1,001,2021_Oct_19_1639,eeg_contingent_digits,2021.2.3,60.00340819508855,
7.0,2.0,3.0,0.0,0,0,0,0,0,7,7,7,0,0,0,0,,,,,,,,,,,,,0.010143940002308227,None,0.48665563999384176,None,0.9704989399906481,None,['return'],[0.6284484999923734],45.10086629999569,None,,,,,,,1,001,2021_Oct_19_1639,eeg_contingent_digits,2021.2.3,60.00340819508855,
7.0,2.0,3.0,0.0,0,0,0,0,0,7,7,7,1,0,1,0,,,,,,,,,,,,,,,,,,,['return'],[0.412368699995568],45.75080419999722,None,,,,,,,1,001,2021_Oct_19_1639,eeg_contingent_digits,2021.2.3,60.00340819508855,
7.0,2.0,3.0,0.0,0,0,0,0,0,7,7,7,2,0,2,0,,,,,,,,,,,,,,,,,,,['return'],[0.3600373999943258],46.184112999995705,None,,,,,,,1,001,2021_Oct_19_1639,eeg_contingent_digits,2021.2.3,60.00340819508855,
7.0,2.0,3.0,0.0,0,0,0,0,0,7,7,7,,,,,,,,,,,,,,,,,,,,,,,,,,,,,,,,,1,001,2021_Oct_19_1639,eeg_contingent_digits,2021.2.3,60.00340819508855,
8.0,1.0,9.0,2.0,0,0,0,0,0,8,8,8,0,0,0,0,,,,,,,,,,,,,0.0014932400081306696,None,0.48960114001238253,None,0.9526773400139064,None,['return'],[0.8357259000040358],48.02241109999886,None,,,,,,,1,001,2021_Oct_19_1639,eeg_contingent_digits,2021.2.3,60.00340819508855,
8.0,1.0,9.0,2.0,0,0,0,0,0,8,8,8,1,0,1,0,,,,,,,,,,,,,,,,,,,['return'],[0.36319239999284036],48.883910599994124,None,,,,,,,1,001,2021_Oct_19_1639,eeg_contingent_digits,2021.2.3,60.00340819508855,
8.0,1.0,9.0,2.0,0,0,0,0,0,8,8,8,2,0,2,0,,,,,,,,,,,,,,,,,,,['return'],[0.3198813000053633],49.26723440000205,None,,,,,,,1,001,2021_Oct_19_1639,eeg_contingent_digits,2021.2.3,60.00340819508855,
8.0,1.0,9.0,2.0,0,0,0,0,0,8,8,8,,,,,,,,,,,,,,,,,,,,,,,,,,,,,,,,,1,001,2021_Oct_19_1639,eeg_contingent_digits,2021.2.3,60.00340819508855,
9.0,8.0,1.0,0.0,0,0,0,0,0,9,9,9,0,0,0,0,,,,,,,,,,,,,0.0016820400051074103,None,0.4700094400031958,None,0.9530203400063328,None,['return'],[0.6917465000005905],51.07059779998963,None,,,,,,,1,001,2021_Oct_19_1639,eeg_contingent_digits,2021.2.3,60.00340819508855,
9.0,8.0,1.0,0.0,0,0,0,0,0,9,9,9,1,0,1,0,,,,,,,,,,,,,,,,,,,['return'],[0.31452070000523236],51.78369369999564,None,,,,,,,1,001,2021_Oct_19_1639,eeg_contingent_digits,2021.2.3,60.00340819508855,
9.0,8.0,1.0,0.0,0,0,0,0,0,9,9,9,2,0,2,0,,,,,,,,,,,,,,,,,,,['return'],[0.3131468999927165],52.11700800000108,None,,,,,,,1,001,2021_Oct_19_1639,eeg_contingent_digits,2021.2.3,60.00340819508855,
9.0,8.0,1.0,0.0,0,0,0,0,0,9,9,9,,,,,,,,,,,,,,,,,,,,,,,,,,,,,,,,,1,001,2021_Oct_19_1639,eeg_contingent_digits,2021.2.3,60.00340819508855,
,,,,0,0,0,0,,,,,,,,,,,,,,,,,,,,,,,,,,,,,,,52.45060789999843,None,,,,,1,001,2021_Oct_19_1639,eeg_contingent_digits,2021.2.3,60.00340819508855,
,,,,,,,,,,,,,,,,0,0,0,0,,,,,,,,,,,,,,,,,,,,,164.72447999998985,None,,,1,001,2021_Oct_19_1639,eeg_contingent_digits,2021.2.3,60.00340819508855,
,,,,,,,,,,,,,,,,,,,,,,,,,,,,,,,,,,,,,,,,,,174.72632699999667,None,,,,,,,
