TrialID,NFB_digit1,NFB_digit2,NFB_digit3,practice_block.thisRepN,practice_block.thisTrialN,practice_block.thisN,practice_block.thisIndex,practice_trials.thisRepN,practice_trials.thisTrialN,practice_trials.thisN,practice_trials.thisIndex,response_practice.thisRepN,response_practice.thisTrialN,response_practice.thisN,response_practice.thisIndex,calibration_block.thisRepN,calibration_block.thisTrialN,calibration_block.thisN,calibration_block.thisIndex,experimental_block.thisRepN,experimental_block.thisTrialN,experimental_block.thisN,experimental_block.thisIndex,exp_trials.thisRepN,exp_trials.thisTrialN,exp_trials.thisN,exp_trials.thisIndex,response_exp.thisRepN,response_exp.thisTrialN,response_exp.thisN,response_exp.thisIndex,Digit1_clear.started,Digit1_clear.stopped,Digit2_clear.started,Digit2_clear.stopped,Digit3_clear.started,Digit3_clear.stopped,key_resp_3.keys,key_resp_3.rt,key_resp_3.started,key_resp_3.stopped,text_4.started,text_4.stopped,text_5.started,text_5.stopped,Begin.started,Begin.stopped,Fixation.started,Fixation.stopped,text_6.started,text_6.stopped,text_2.started,text_2.stopped,text_7.started,text_7.stopped,text_8.started,text_8.stopped,sound_digit1.started,sound_digit1.stopped,sound_digit2.started,sound_digit2.stopped,sound_digit3.started,sound_digit3.stopped,key_resp.keys,key_resp.rt,key_resp.started,key_resp.stopped,Begin_3.started,Begin_3.stopped,participant,session,date,expName,psychopyVersion,frameRate,
0.0,6.0,2.0,4.0,0,0,0,0,0,0,0,0,0,0,0,0,,,,,,,,,,,,,,,,,0.015918459999966217,None,0.5038068600000543,None,0.9828302600000143,None,"['num_7', 'return']","[0.8078199000000268, 1.0316985000000614]",39.905485599999906,None,,,,,,,,,,,,,,,,,,,,,,,,,,,,,1,001,2021_Oct_20_1057,eeg_contingent_digits,2021.2.3,60.09817638095589,
0.0,6.0,2.0,4.0,0,0,0,0,0,0,0,0,1,0,1,0,,,,,,,,,,,,,,,,,,,,,,,"['num_8', 'return']","[0.17874589999996715, 0.41885629999990215]",40.9585333,None,,,,,,,,,,,,,,,,,,,,,,,,,,,,,1,001,2021_Oct_20_1057,eeg_contingent_digits,2021.2.3,60.09817638095589,
0.0,6.0,2.0,4.0,0,0,0,0,0,0,0,0,2,0,2,0,,,,,,,,,,,,,,,,,,,,,,,"['num_8', 'return']","[0.19244480000008934, 0.4244660000000522]",41.40905049999992,None,,,,,,,,,,,,,,,,,,,,,,,,,,,,,1,001,2021_Oct_20_1057,eeg_contingent_digits,2021.2.3,60.09817638095589,
0.0,6.0,2.0,4.0,0,0,0,0,0,0,0,0,,,,,,,,,,,,,,,,,,,,,,,,,,,,,,,,,,,,,,,,,,,,,,,,,,,,,,,,,,,1,001,2021_Oct_20_1057,eeg_contingent_digits,2021.2.3,60.09817638095589,
1.0,1.0,9.0,3.0,0,0,0,0,0,1,1,1,0,0,0,0,,,,,,,,,,,,,,,,,0.008772079999971538,None,0.4683801799999401,None,0.9516958799999884,None,"['num_7', 'return']","[0.5193546000000424, 0.6233215000000882]",43.297996999999896,None,,,,,,,,,,,,,,,,,,,,,,,,,,,,,1,001,2021_Oct_20_1057,eeg_contingent_digits,2021.2.3,60.09817638095589,
1.0,1.0,9.0,3.0,0,0,0,0,0,1,1,1,1,0,1,0,,,,,,,,,,,,,,,,,,,,,,,"['num_7', 'return']","[0.19300209999994422, 0.31320049999999355]",43.94449009999994,None,,,,,,,,,,,,,,,,,,,,,,,,,,,,,1,001,2021_Oct_20_1057,eeg_contingent_digits,2021.2.3,60.09817638095589,
1.0,1.0,9.0,3.0,0,0,0,0,0,1,1,1,2,0,2,0,,,,,,,,,,,,,,,,,,,,,,,"['num_7', 'return']","[0.16908379999995304, 0.3052979999999934]",44.28011499999991,None,,,,,,,,,,,,,,,,,,,,,,,,,,,,,1,001,2021_Oct_20_1057,eeg_contingent_digits,2021.2.3,60.09817638095589,
1.0,1.0,9.0,3.0,0,0,0,0,0,1,1,1,,,,,,,,,,,,,,,,,,,,,,,,,,,,,,,,,,,,,,,,,,,,,,,,,,,,,,,,,,,1,001,2021_Oct_20_1057,eeg_contingent_digits,2021.2.3,60.09817638095589,
2.0,8.0,0.0,1.0,0,0,0,0,0,2,2,2,0,0,0,0,,,,,,,,,,,,,,,,,0.000669880000032208,None,0.46797178000008444,None,0.9521624800000836,None,"['num_7', 'return']","[0.32021529999997256, 0.37620670000001155]",46.065216899999996,None,,,,,,,,,,,,,,,,,,,,,,,,,,,,,1,001,2021_Oct_20_1057,eeg_contingent_digits,2021.2.3,60.09817638095589,
2.0,8.0,0.0,1.0,0,0,0,0,0,2,2,2,1,0,1,0,,,,,,,,,,,,,,,,,,,,,,,"['num_7', 'return']","[0.14521149999995941, 0.2883733999999549]",46.46505479999996,None,,,,,,,,,,,,,,,,,,,,,,,,,,,,,1,001,2021_Oct_20_1057,eeg_contingent_digits,2021.2.3,60.09817638095589,
2.0,8.0,0.0,1.0,0,0,0,0,0,2,2,2,2,0,2,0,,,,,,,,,,,,,,,,,,,,,,,"['num_7', 'return']","[0.10084970000002613, 0.2688269999999875]",46.78047579999998,None,,,,,,,,,,,,,,,,,,,,,,,,,,,,,1,001,2021_Oct_20_1057,eeg_contingent_digits,2021.2.3,60.09817638095589,
2.0,8.0,0.0,1.0,0,0,0,0,0,2,2,2,,,,,,,,,,,,,,,,,,,,,,,,,,,,,,,,,,,,,,,,,,,,,,,,,,,,,,,,,,,1,001,2021_Oct_20_1057,eeg_contingent_digits,2021.2.3,60.09817638095589,
3.0,9.0,6.0,1.0,0,0,0,0,0,3,3,3,0,0,0,0,,,,,,,,,,,,,,,,,0.0013672799999540075,None,0.4703790799999297,None,0.9540872799999534,None,"['num_7', 'return']","[0.34052759999997306, 0.3889972999999145]",48.532899199999974,None,,,,,,,,,,,,,,,,,,,,,,,,,,,,,1,001,2021_Oct_20_1057,eeg_contingent_digits,2021.2.3,60.09817638095589,
3.0,9.0,6.0,1.0,0,0,0,0,0,3,3,3,1,0,1,0,,,,,,,,,,,,,,,,,,,,,,,"['num_7', 'return']","[0.1645927000000711, 0.28378010000005816]",48.94939959999999,None,,,,,,,,,,,,,,,,,,,,,,,,,,,,,1,001,2021_Oct_20_1057,eeg_contingent_digits,2021.2.3,60.09817638095589,
3.0,9.0,6.0,1.0,0,0,0,0,0,3,3,3,2,0,2,0,,,,,,,,,,,,,,,,,,,,,,,"['num_7', 'return']","[0.19127999999989242, 0.2952338999999711]",49.26626209999995,None,,,,,,,,,,,,,,,,,,,,,,,,,,,,,1,001,2021_Oct_20_1057,eeg_contingent_digits,2021.2.3,60.09817638095589,
3.0,9.0,6.0,1.0,0,0,0,0,0,3,3,3,,,,,,,,,,,,,,,,,,,,,,,,,,,,,,,,,,,,,,,,,,,,,,,,,,,,,,,,,,,1,001,2021_Oct_20_1057,eeg_contingent_digits,2021.2.3,60.09817638095589,
4.0,8.0,1.0,5.0,0,0,0,0,0,4,4,4,0,0,0,0,,,,,,,,,,,,,,,,,0.008817679999992833,None,0.49101057999996556,None,0.9681442799999331,None,"['num_7', 'return']","[0.3822573000001057, 0.4462129000000914]",51.03522009999995,None,,,,,,,,,,,,,,,,,,,,,,,,,,,,,1,001,2021_Oct_20_1057,eeg_contingent_digits,2021.2.3,60.09817638095589,
4.0,8.0,1.0,5.0,0,0,0,0,0,4,4,4,1,0,1,0,,,,,,,,,,,,,,,,,,,,,,,"['num_7', 'return']","[0.13133719999996174, 0.27477379999993445]",51.50270949999992,None,,,,,,,,,,,,,,,,,,,,,,,,,,,,,1,001,2021_Oct_20_1057,eeg_contingent_digits,2021.2.3,60.09817638095589,
4.0,8.0,1.0,5.0,0,0,0,0,0,4,4,4,2,0,2,0,,,,,,,,,,,,,,,,,,,,,,,"['num_7', 'return']","[0.12039200000003802, 0.264238999999975]",51.80108439999992,None,,,,,,,,,,,,,,,,,,,,,,,,,,,,,1,001,2021_Oct_20_1057,eeg_contingent_digits,2021.2.3,60.09817638095589,
4.0,8.0,1.0,5.0,0,0,0,0,0,4,4,4,,,,,,,,,,,,,,,,,,,,,,,,,,,,,,,,,,,,,,,,,,,,,,,,,,,,,,,,,,,1,001,2021_Oct_20_1057,eeg_contingent_digits,2021.2.3,60.09817638095589,
5.0,4.0,1.0,0.0,0,0,0,0,0,5,5,5,0,0,0,0,,,,,,,,,,,,,,,,,0.007831179999925553,None,0.4827100799999471,None,0.9664329799999223,None,"['num_7', 'return']","[0.36076439999999366, 0.45735309999997753]",53.53645929999993,None,,,,,,,,,,,,,,,,,,,,,,,,,,,,,1,001,2021_Oct_20_1057,eeg_contingent_digits,2021.2.3,60.09817638095589,
5.0,4.0,1.0,0.0,0,0,0,0,0,5,5,5,1,0,1,0,,,,,,,,,,,,,,,,,,,,,,,"['num_7', 'return']","[0.14855490000002192, 0.2523556999999528]",54.02097949999995,None,,,,,,,,,,,,,,,,,,,,,,,,,,,,,1,001,2021_Oct_20_1057,eeg_contingent_digits,2021.2.3,60.09817638095589,
5.0,4.0,1.0,0.0,0,0,0,0,0,5,5,5,2,0,2,0,,,,,,,,,,,,,,,,,,,,,,,"['num_7', 'return']","[0.14658049999991363, 0.26621299999999337]",54.30354769999997,None,,,,,,,,,,,,,,,,,,,,,,,,,,,,,1,001,2021_Oct_20_1057,eeg_contingent_digits,2021.2.3,60.09817638095589,
5.0,4.0,1.0,0.0,0,0,0,0,0,5,5,5,,,,,,,,,,,,,,,,,,,,,,,,,,,,,,,,,,,,,,,,,,,,,,,,,,,,,,,,,,,1,001,2021_Oct_20_1057,eeg_contingent_digits,2021.2.3,60.09817638095589,
6.0,9.0,2.0,6.0,0,0,0,0,0,6,6,6,0,0,0,0,,,,,,,,,,,,,,,,,0.01076485999999477,None,0.48890855999991345,None,0.9727239599999393,None,"['num_7', 'return']","[0.3749853000000485, 0.45479660000000877]",56.06650279999997,None,,,,,,,,,,,,,,,,,,,,,,,,,,,,,1,001,2021_Oct_20_1057,eeg_contingent_digits,2021.2.3,60.09817638095589,
6.0,9.0,2.0,6.0,0,0,0,0,0,6,6,6,1,0,1,0,,,,,,,,,,,,,,,,,,,,,,,"['num_7', 'return']","[0.12485929999991185, 0.22897130000001198]",56.540621899999906,None,,,,,,,,,,,,,,,,,,,,,,,,,,,,,1,001,2021_Oct_20_1057,eeg_contingent_digits,2021.2.3,60.09817638095589,
6.0,9.0,2.0,6.0,0,0,0,0,0,6,6,6,2,0,2,0,,,,,,,,,,,,,,,,,,,,,,,"['num_7', 'return']","[0.1389037000000144, 0.24284270000009656]",56.79041409999991,None,,,,,,,,,,,,,,,,,,,,,,,,,,,,,1,001,2021_Oct_20_1057,eeg_contingent_digits,2021.2.3,60.09817638095589,
6.0,9.0,2.0,6.0,0,0,0,0,0,6,6,6,,,,,,,,,,,,,,,,,,,,,,,,,,,,,,,,,,,,,,,,,,,,,,,,,,,,,,,,,,,1,001,2021_Oct_20_1057,eeg_contingent_digits,2021.2.3,60.09817638095589,
7.0,2.0,3.0,0.0,0,0,0,0,0,7,7,7,0,0,0,0,,,,,,,,,,,,,,,,,0.009521980000045005,None,0.4927306800000224,None,0.9533968800000139,None,"['num_7', 'return']","[0.3789276999999629, 0.44284929999992073]",58.50244429999998,None,,,,,,,,,,,,,,,,,,,,,,,,,,,,,1,001,2021_Oct_20_1057,eeg_contingent_digits,2021.2.3,60.09817638095589,
7.0,2.0,3.0,0.0,0,0,0,0,0,7,7,7,1,0,1,0,,,,,,,,,,,,,,,,,,,,,,,"['num_7', 'return']","[0.12973890000000665, 0.1938050999999632]",58.97573089999992,None,,,,,,,,,,,,,,,,,,,,,,,,,,,,,1,001,2021_Oct_20_1057,eeg_contingent_digits,2021.2.3,60.09817638095589,
7.0,2.0,3.0,0.0,0,0,0,0,0,7,7,7,2,0,2,0,,,,,,,,,,,,,,,,,,,,,,,"['num_7', 'return']","[0.18308160000003681, 0.2631659999999556]",59.194171499999925,None,,,,,,,,,,,,,,,,,,,,,,,,,,,,,1,001,2021_Oct_20_1057,eeg_contingent_digits,2021.2.3,60.09817638095589,
7.0,2.0,3.0,0.0,0,0,0,0,0,7,7,7,,,,,,,,,,,,,,,,,,,,,,,,,,,,,,,,,,,,,,,,,,,,,,,,,,,,,,,,,,,1,001,2021_Oct_20_1057,eeg_contingent_digits,2021.2.3,60.09817638095589,
8.0,1.0,9.0,2.0,0,0,0,0,0,8,8,8,0,0,0,0,,,,,,,,,,,,,,,,,0.013537759999962873,None,0.49424255999997513,None,0.9838271599999189,None,"['num_7', 'return']","[0.4110800000000836, 0.5069727000000057]",60.96630909999999,None,,,,,,,,,,,,,,,,,,,,,,,,,,,,,1,001,2021_Oct_20_1057,eeg_contingent_digits,2021.2.3,60.09817638095589,
8.0,1.0,9.0,2.0,0,0,0,0,0,8,8,8,1,0,1,0,,,,,,,,,,,,,,,,,,,,,,,"['num_7', 'return']","[0.09875749999991967, 0.21116779999999835]",61.49458419999996,None,,,,,,,,,,,,,,,,,,,,,,,,,,,,,1,001,2021_Oct_20_1057,eeg_contingent_digits,2021.2.3,60.09817638095589,
8.0,1.0,9.0,2.0,0,0,0,0,0,8,8,8,2,0,2,0,,,,,,,,,,,,,,,,,,,,,,,"['num_7', 'return']","[0.10581120000006194, 0.20996930000001157]",61.72735439999997,None,,,,,,,,,,,,,,,,,,,,,,,,,,,,,1,001,2021_Oct_20_1057,eeg_contingent_digits,2021.2.3,60.09817638095589,
8.0,1.0,9.0,2.0,0,0,0,0,0,8,8,8,,,,,,,,,,,,,,,,,,,,,,,,,,,,,,,,,,,,,,,,,,,,,,,,,,,,,,,,,,,1,001,2021_Oct_20_1057,eeg_contingent_digits,2021.2.3,60.09817638095589,
9.0,8.0,1.0,0.0,0,0,0,0,0,9,9,9,0,0,0,0,,,,,,,,,,,,,,,,,0.009522179999976288,None,0.4858572800000047,None,0.9698525799999516,None,"['num_7', 'return']","[0.31469349999997576, 0.3949537999999393]",63.4146520999999,None,,,,,,,,,,,,,,,,,,,,,,,,,,,,,1,001,2021_Oct_20_1057,eeg_contingent_digits,2021.2.3,60.09817638095589,
9.0,8.0,1.0,0.0,0,0,0,0,0,9,9,9,1,0,1,0,,,,,,,,,,,,,,,,,,,,,,,"['num_7', 'return']","[0.09978339999997843, 0.1877719999999954]",63.829575699999964,None,,,,,,,,,,,,,,,,,,,,,,,,,,,,,1,001,2021_Oct_20_1057,eeg_contingent_digits,2021.2.3,60.09817638095589,
9.0,8.0,1.0,0.0,0,0,0,0,0,9,9,9,2,0,2,0,,,,,,,,,,,,,,,,,,,,,,,"['num_7', 'return']","[0.10768180000002303, 0.18019230000004427]",64.04564649999998,None,,,,,,,,,,,,,,,,,,,,,,,,,,,,,1,001,2021_Oct_20_1057,eeg_contingent_digits,2021.2.3,60.09817638095589,
9.0,8.0,1.0,0.0,0,0,0,0,0,9,9,9,,,,,,,,,,,,,,,,,,,,,,,,,,,,,,,,,,,,,,,,,,,,,,,,,,,,,,,,,,,1,001,2021_Oct_20_1057,eeg_contingent_digits,2021.2.3,60.09817638095589,
,,,,0,0,0,0,,,,,,,,,,,,,,,,,,,,,,,,,,,,,,,,,,,64.24379479999993,None,,,,,,,,,,,,,,,,,,,,,,,,,,,1,001,2021_Oct_20_1057,eeg_contingent_digits,2021.2.3,60.09817638095589,
,,,,,,,,,,,,,,,,0,0,0,0,,,,,,,,,,,,,,,,,,,,,,,,,86.09112899999991,None,,,,,,,,,,,,,,,,,,,,,,,,,1,001,2021_Oct_20_1057,eeg_contingent_digits,2021.2.3,60.09817638095589,
0.0,2.0,0.0,5.0,,,,,,,,,,,,,,,,,0,0,0,0,0,0,0,0,0,0,0,0,,,,,,,,,,,,,,,96.10361109999997,None,99.03110779999997,None,99.03110779999997,None,99.03110779999997,None,99.03110779999997,None,99.03110779999997,None,0.01564035999990665,None,0.48668325999994977,None,0.9763174599999047,None,"['num_7', 'return']","[1.0406083000000308, 1.2649180000000797]",105.42464459999997,None,,,1,001,2021_Oct_20_1057,eeg_contingent_digits,2021.2.3,60.09817638095589,
0.0,2.0,0.0,5.0,,,,,,,,,,,,,,,,,0,0,0,0,0,0,0,0,1,0,1,0,,,,,,,,,,,,,,,,,,,,,,,,,,,,,,,,,"['num_7', 'return']","[0.27932179999993423, 0.4870950999999195]",106.71427269999992,None,,,1,001,2021_Oct_20_1057,eeg_contingent_digits,2021.2.3,60.09817638095589,
0.0,2.0,0.0,5.0,,,,,,,,,,,,,,,,,0,0,0,0,0,0,0,0,2,0,2,0,,,,,,,,,,,,,,,,,,,,,,,,,,,,,,,,,"['num_7', 'return']","[0.2012473999999429, 0.38520789999995486]",107.23205829999995,None,,,1,001,2021_Oct_20_1057,eeg_contingent_digits,2021.2.3,60.09817638095589,
0.0,2.0,0.0,5.0,,,,,,,,,,,,,,,,,0,0,0,0,0,0,0,0,,,,,,,,,,,,,,,,,,,,,,,,,,,,,,,,,,,,,,,,,None,None,1,001,2021_Oct_20_1057,eeg_contingent_digits,2021.2.3,60.09817638095589,
1.0,8.0,0.0,6.0,,,,,,,,,,,,,,,,,0,0,0,0,0,1,1,1,0,0,0,0,,,,,,,,,,,,,,,,,107.6675186,None,107.6675186,None,107.6675186,None,107.6675186,None,107.6675186,None,0.002534680000053413,None,0.4818889800000079,None,0.9657914800000071,None,"['num_7', 'return']","[0.4986208999999917, 0.682621499999982]",115.87071979999996,None,,,1,001,2021_Oct_20_1057,eeg_contingent_digits,2021.2.3,60.09817638095589,
1.0,8.0,0.0,6.0,,,,,,,,,,,,,,,,,0,0,0,0,0,1,1,1,1,0,1,0,,,,,,,,,,,,,,,,,,,,,,,,,,,,,,,,,"['num_7', 'return']","[0.16360900000006495, 0.3394892000000027]",116.57387069999993,None,,,1,001,2021_Oct_20_1057,eeg_contingent_digits,2021.2.3,60.09817638095589,
1.0,8.0,0.0,6.0,,,,,,,,,,,,,,,,,0,0,0,0,0,1,1,1,2,0,2,0,,,,,,,,,,,,,,,,,,,,,,,,,,,,,,,,,"['num_7', 'return']","[0.1405873999999585, 0.3004458999999997]",116.94080239999994,None,,,1,001,2021_Oct_20_1057,eeg_contingent_digits,2021.2.3,60.09817638095589,
1.0,8.0,0.0,6.0,,,,,,,,,,,,,,,,,0,0,0,0,0,1,1,1,,,,,,,,,,,,,,,,,,,,,,,,,,,,,,,,,,,,,,,,,None,None,1,001,2021_Oct_20_1057,eeg_contingent_digits,2021.2.3,60.09817638095589,
2.0,1.0,2.0,6.0,,,,,,,,,,,,,,,,,0,0,0,0,0,2,2,2,0,0,0,0,,,,,,,,,,,,,,,,,117.28631199999995,None,117.28631199999995,None,117.28631199999995,None,117.28631199999995,None,117.28631199999995,None,0.001582659999826319,None,0.460033059999887,None,0.9435452599998371,None,"['num_7', 'return']","[1.1308244000000514, 1.2980254000000286]",122.0632033999999,None,,,1,001,2021_Oct_20_1057,eeg_contingent_digits,2021.2.3,60.09817638095589,
2.0,1.0,2.0,6.0,,,,,,,,,,,,,,,,,0,0,0,0,0,2,2,2,1,0,1,0,,,,,,,,,,,,,,,,,,,,,,,,,,,,,,,,,"['num_7', 'return']","[0.22778349999998682, 0.3796681000000035]",123.39757339999994,None,,,1,001,2021_Oct_20_1057,eeg_contingent_digits,2021.2.3,60.09817638095589,
2.0,1.0,2.0,6.0,,,,,,,,,,,,,,,,,0,0,0,0,0,2,2,2,2,0,2,0,,,,,,,,,,,,,,,,,,,,,,,,,,,,,,,,,"['num_7', 'return']","[0.2109054999999671, 0.3711105999999518]",123.81420999999989,None,,,1,001,2021_Oct_20_1057,eeg_contingent_digits,2021.2.3,60.09817638095589,
2.0,1.0,2.0,6.0,,,,,,,,,,,,,,,,,0,0,0,0,0,2,2,2,,,,,,,,,,,,,,,,,,,,,,,,,,,,,,,,,,,,,,,,,None,None,1,001,2021_Oct_20_1057,eeg_contingent_digits,2021.2.3,60.09817638095589,
3.0,0.0,6.0,4.0,,,,,,,,,,,,,,,,,0,0,0,0,0,3,3,3,0,0,0,0,,,,,,,,,,,,,,,,,124.22540279999998,None,124.22540279999998,None,124.22540279999998,None,124.22540279999998,None,124.22540279999998,None,0.005982259999996131,None,0.46356156000001647,None,0.947516759999985,None,"['num_7', 'return']","[0.5355221000000938, 0.6556861000000254]",129.4256838,None,,,1,001,2021_Oct_20_1057,eeg_contingent_digits,2021.2.3,60.09817638095589,
3.0,0.0,6.0,4.0,,,,,,,,,,,,,,,,,0,0,0,0,0,3,3,3,1,0,1,0,,,,,,,,,,,,,,,,,,,,,,,,,,,,,,,,,"['num_7', 'return']","[0.20426310000004833, 0.30848809999997684]",130.10097559999997,None,,,1,001,2021_Oct_20_1057,eeg_contingent_digits,2021.2.3,60.09817638095589,
3.0,0.0,6.0,4.0,,,,,,,,,,,,,,,,,0,0,0,0,0,3,3,3,2,0,2,0,,,,,,,,,,,,,,,,,,,,,,,,,,,,,,,,,"['num_7', 'return']","[0.17521190000002207, 0.3109675000000607]",130.4342810999999,None,,,1,001,2021_Oct_20_1057,eeg_contingent_digits,2021.2.3,60.09817638095589,
3.0,0.0,6.0,4.0,,,,,,,,,,,,,,,,,0,0,0,0,0,3,3,3,,,,,,,,,,,,,,,,,,,,,,,,,,,,,,,,,,,,,,,,,None,None,1,001,2021_Oct_20_1057,eeg_contingent_digits,2021.2.3,60.09817638095589,
4.0,4.0,8.0,5.0,,,,,,,,,,,,,,,,,0,0,0,0,0,4,4,4,0,0,0,0,,,,,,,,,,,,,,,,,130.78112,None,130.78112,None,130.78112,None,130.78112,None,130.78112,None,0.0032961800000066432,None,0.4701911800000289,None,0.970609579999973,None,"['num_7', 'return']","[1.1116779999999835, 1.336084700000015]",140.13764549999996,None,,,1,001,2021_Oct_20_1057,eeg_contingent_digits,2021.2.3,60.09817638095589,
4.0,4.0,8.0,5.0,,,,,,,,,,,,,,,,,0,0,0,0,0,4,4,4,1,0,1,0,,,,,,,,,,,,,,,,,,,,,,,,,,,,,,,,,"['num_7', 'return']","[0.22659699999996974, 0.45018289999995886]",141.49495319999994,None,,,1,001,2021_Oct_20_1057,eeg_contingent_digits,2021.2.3,60.09817638095589,
4.0,4.0,8.0,5.0,,,,,,,,,,,,,,,,,0,0,0,0,0,4,4,4,2,0,2,0,,,,,,,,,,,,,,,,,,,,,,,,,,,,,,,,,"['num_7', 'return']","[0.21558900000002268, 0.3516996000000745]",141.9774802999999,None,,,1,001,2021_Oct_20_1057,eeg_contingent_digits,2021.2.3,60.09817638095589,
4.0,4.0,8.0,5.0,,,,,,,,,,,,,,,,,0,0,0,0,0,4,4,4,,,,,,,,,,,,,,,,,,,,,,,,,,,,,,,,,,,,,,,,,None,None,1,001,2021_Oct_20_1057,eeg_contingent_digits,2021.2.3,60.09817638095589,
5.0,8.0,5.0,3.0,,,,,,,,,,,,,,,,,0,0,0,0,0,5,5,5,0,0,0,0,,,,,,,,,,,,,,,,,142.3824019,None,142.3824019,None,142.3824019,None,142.3824019,None,142.3824019,None,0.004266079999979411,None,0.47214507999990474,None,0.9554674799999248,None,"['num_7', 'return']","[2.471140699999978, 2.7109780000000683]",156.61846329999992,None,,,1,001,2021_Oct_20_1057,eeg_contingent_digits,2021.2.3,60.09817638095589,
5.0,8.0,5.0,3.0,,,,,,,,,,,,,,,,,0,0,0,0,0,5,5,5,1,0,1,0,,,,,,,,,,,,,,,,,,,,,,,,,,,,,,,,,"['num_7', 'return']","[0.1853116999999429, 0.40921639999999115]",159.3599129999999,None,,,1,001,2021_Oct_20_1057,eeg_contingent_digits,2021.2.3,60.09817638095589,
5.0,8.0,5.0,3.0,,,,,,,,,,,,,,,,,0,0,0,0,0,5,5,5,2,0,2,0,,,,,,,,,,,,,,,,,,,,,,,,,,,,,,,,,"['num_7', 'return']","[0.17582079999999678, 0.3281597000000147]",159.7935106,None,,,1,001,2021_Oct_20_1057,eeg_contingent_digits,2021.2.3,60.09817638095589,
5.0,8.0,5.0,3.0,,,,,,,,,,,,,,,,,0,0,0,0,0,5,5,5,,,,,,,,,,,,,,,,,,,,,,,,,,,,,,,,,,,,,,,,,None,None,1,001,2021_Oct_20_1057,eeg_contingent_digits,2021.2.3,60.09817638095589,
6.0,2.0,9.0,1.0,,,,,,,,,,,,,,,,,0,0,0,0,0,6,6,6,0,0,0,0,,,,,,,,,,,,,,,,,160.1632997999999,None,160.1632997999999,None,160.1632997999999,None,160.1632997999999,None,160.1632997999999,None,0.005970479999973577,None,0.4789757799999279,None,0.9625966799999333,None,"['num_7', 'return']","[1.1733811999999944, 1.3020599000000175]",164.30798229999994,None,,,1,001,2021_Oct_20_1057,eeg_contingent_digits,2021.2.3,60.09817638095589,
6.0,2.0,9.0,1.0,,,,,,,,,,,,,,,,,0,0,0,0,0,6,6,6,1,0,1,0,,,,,,,,,,,,,,,,,,,,,,,,,,,,,,,,,"['num_7', 'return']","[0.20994560000008278, 0.3618228000000272]",165.63146599999993,None,,,1,001,2021_Oct_20_1057,eeg_contingent_digits,2021.2.3,60.09817638095589,
6.0,2.0,9.0,1.0,,,,,,,,,,,,,,,,,0,0,0,0,0,6,6,6,2,0,2,0,,,,,,,,,,,,,,,,,,,,,,,,,,,,,,,,,"['num_7', 'return']","[0.16227179999998498, 0.33018830000003163]",166.01527179999994,None,,,1,001,2021_Oct_20_1057,eeg_contingent_digits,2021.2.3,60.09817638095589,
6.0,2.0,9.0,1.0,,,,,,,,,,,,,,,,,0,0,0,0,0,6,6,6,,,,,,,,,,,,,,,,,,,,,,,,,,,,,,,,,,,,,,,,,None,None,1,001,2021_Oct_20_1057,eeg_contingent_digits,2021.2.3,60.09817638095589,
7.0,4.0,1.0,5.0,,,,,,,,,,,,,,,,,0,0,0,0,0,7,7,7,0,0,0,0,,,,,,,,,,,,,,,,,166.37843679999992,None,166.37843679999992,None,166.37843679999992,None,166.37843679999992,None,166.37843679999992,None,0.006700659999978598,None,0.48769965999997567,None,0.9646536600000672,None,"['num_4', 'return']","[1.1012514000000238, 1.253161000000091]",170.68416259999992,None,,,1,001,2021_Oct_20_1057,eeg_contingent_digits,2021.2.3,60.09817638095589,
7.0,4.0,1.0,5.0,,,,,,,,,,,,,,,,,0,0,0,0,0,7,7,7,1,0,1,0,,,,,,,,,,,,,,,,,,,,,,,,,,,,,,,,,"['num_1', 'return']","[0.103478999999993, 0.34355219999997644]",171.96991719999994,None,,,1,001,2021_Oct_20_1057,eeg_contingent_digits,2021.2.3,60.09817638095589,
7.0,4.0,1.0,5.0,,,,,,,,,,,,,,,,,0,0,0,0,0,7,7,7,2,0,2,0,,,,,,,,,,,,,,,,,,,,,,,,,,,,,,,,,"['num_5', 'return']","[0.1194770999999264, 0.26428089999990334]",172.3376305999999,None,,,1,001,2021_Oct_20_1057,eeg_contingent_digits,2021.2.3,60.09817638095589,
7.0,4.0,1.0,5.0,,,,,,,,,,,,,,,,,0,0,0,0,0,7,7,7,,,,,,,,,,,,,,,,,,,,,,,,,,,,,,,,,,,,,,,,,None,None,1,001,2021_Oct_20_1057,eeg_contingent_digits,2021.2.3,60.09817638095589,
8.0,0.0,5.0,8.0,,,,,,,,,,,,,,,,,0,0,0,0,0,8,8,8,0,0,0,0,,,,,,,,,,,,,,,,,172.6407845,None,172.6407845,None,172.6407845,None,172.6407845,None,172.6407845,None,0.003985360000001492,None,0.4883902600000738,None,0.9559020600000849,None,"['num_4', 'return']","[1.3350164999999379, 1.478908400000023]",177.90628919999995,None,,,1,001,2021_Oct_20_1057,eeg_contingent_digits,2021.2.3,60.09817638095589,
8.0,0.0,5.0,8.0,,,,,,,,,,,,,,,,,0,0,0,0,0,8,8,8,1,0,1,0,,,,,,,,,,,,,,,,,,,,,,,,,,,,,,,,,"['num_5', 'return']","[0.2637403000001086, 0.4394141000000218]",179.40982999999994,None,,,1,001,2021_Oct_20_1057,eeg_contingent_digits,2021.2.3,60.09817638095589,
8.0,0.0,5.0,8.0,,,,,,,,,,,,,,,,,0,0,0,0,0,8,8,8,2,0,2,0,,,,,,,,,,,,,,,,,,,,,,,,,,,,,,,,,"['num_1', 'return']","[0.49255040000002737, 0.6525227999999288]",179.8765550999999,None,,,1,001,2021_Oct_20_1057,eeg_contingent_digits,2021.2.3,60.09817638095589,
8.0,0.0,5.0,8.0,,,,,,,,,,,,,,,,,0,0,0,0,0,8,8,8,,,,,,,,,,,,,,,,,,,,,,,,,,,,,,,,,,,,,,,,,None,None,1,001,2021_Oct_20_1057,eeg_contingent_digits,2021.2.3,60.09817638095589,
9.0,3.0,8.0,6.0,,,,,,,,,,,,,,,,,0,0,0,0,0,9,9,9,0,0,0,0,,,,,,,,,,,,,,,,,180.6049635999999,None,180.6049635999999,None,180.6049635999999,None,180.6049635999999,None,180.6049635999999,None,0.0010310600000593695,None,0.46550446000003376,None,0.9492420599999605,None,"['num_7', 'return']","[1.9105967999998938, 2.070251399999961]",187.2988810999999,None,,,1,001,2021_Oct_20_1057,eeg_contingent_digits,2021.2.3,60.09817638095589,
9.0,3.0,8.0,6.0,,,,,,,,,,,,,,,,,0,0,0,0,0,9,9,9,1,0,1,0,,,,,,,,,,,,,,,,,,,,,,,,,,,,,,,,,"['num_7', 'return']","[0.17477359999998043, 0.3508087999999816]",189.4023580999999,None,,,1,001,2021_Oct_20_1057,eeg_contingent_digits,2021.2.3,60.09817638095589,
9.0,3.0,8.0,6.0,,,,,,,,,,,,,,,,,0,0,0,0,0,9,9,9,2,0,2,0,,,,,,,,,,,,,,,,,,,,,,,,,,,,,,,,,"['num_7', 'return']","[0.1827914000000419, 0.29496470000003683]",189.78618819999997,None,,,1,001,2021_Oct_20_1057,eeg_contingent_digits,2021.2.3,60.09817638095589,
9.0,3.0,8.0,6.0,,,,,,,,,,,,,,,,,0,0,0,0,0,9,9,9,,,,,,,,,,,,,,,,,,,,,,,,,,,,,,,,,,,,,,,,,None,None,1,001,2021_Oct_20_1057,eeg_contingent_digits,2021.2.3,60.09817638095589,
10.0,4.0,0.0,9.0,,,,,,,,,,,,,,,,,0,0,0,0,0,10,10,10,0,0,0,0,,,,,,,,,,,,,,,,,190.11557589999995,None,190.11557589999995,None,190.11557589999995,None,190.11557589999995,None,190.11557589999995,None,0.0028034800001250915,None,0.49117788000012297,None,0.9530991800000947,None,"['num_7', 'return']","[7.189120199999934, 7.285312499999918]",194.64416199999994,None,,,1,001,2021_Oct_20_1057,eeg_contingent_digits,2021.2.3,60.09817638095589,
10.0,4.0,0.0,9.0,,,,,,,,,,,,,,,,,0,0,0,0,0,10,10,10,1,0,1,0,,,,,,,,,,,,,,,,,,,,,,,,,,,,,,,,,"['num_7', 'return']","[0.1825092000000268, 0.3109011000000237]",201.96254169999997,None,,,1,001,2021_Oct_20_1057,eeg_contingent_digits,2021.2.3,60.09817638095589,
10.0,4.0,0.0,9.0,,,,,,,,,,,,,,,,,0,0,0,0,0,10,10,10,2,0,2,0,,,,,,,,,,,,,,,,,,,,,,,,,,,,,,,,,"['num_7', 'return']","[0.1770556999999826, 0.2884141000000682]",202.29684929999996,None,,,1,001,2021_Oct_20_1057,eeg_contingent_digits,2021.2.3,60.09817638095589,
10.0,4.0,0.0,9.0,,,,,,,,,,,,,,,,,0,0,0,0,0,10,10,10,,,,,,,,,,,,,,,,,,,,,,,,,,,,,,,,,,,,,,,,,None,None,1,001,2021_Oct_20_1057,eeg_contingent_digits,2021.2.3,60.09817638095589,
11.0,3.0,2.0,1.0,,,,,,,,,,,,,,,,,0,0,0,0,0,11,11,11,0,0,0,0,,,,,,,,,,,,,,,,,202.63510669999994,None,202.63510669999994,None,202.63510669999994,None,202.63510669999994,None,202.63510669999994,None,0.008631059999970603,None,0.4864968599999884,None,0.9711138599999458,None,"['num_7', 'return']","[0.8101910000000316, 0.8660485999999992]",207.3673260999999,None,,,1,001,2021_Oct_20_1057,eeg_contingent_digits,2021.2.3,60.09817638095589,
11.0,3.0,2.0,1.0,,,,,,,,,,,,,,,,,0,0,0,0,0,11,11,11,1,0,1,0,,,,,,,,,,,,,,,,,,,,,,,,,,,,,,,,,"['num_7', 'return']","[0.15753029999996215, 0.25352989999998954]",208.2675488,None,,,1,001,2021_Oct_20_1057,eeg_contingent_digits,2021.2.3,60.09817638095589,
11.0,3.0,2.0,1.0,,,,,,,,,,,,,,,,,0,0,0,0,0,11,11,11,2,0,2,0,,,,,,,,,,,,,,,,,,,,,,,,,,,,,,,,,"['num_7', 'return']","[0.11412939999991067, 0.22627799999997933]",208.55111399999998,None,,,1,001,2021_Oct_20_1057,eeg_contingent_digits,2021.2.3,60.09817638095589,
11.0,3.0,2.0,1.0,,,,,,,,,,,,,,,,,0,0,0,0,0,11,11,11,,,,,,,,,,,,,,,,,,,,,,,,,,,,,,,,,,,,,,,,,None,None,1,001,2021_Oct_20_1057,eeg_contingent_digits,2021.2.3,60.09817638095589,
12.0,8.0,5.0,4.0,,,,,,,,,,,,,,,,,0,0,0,0,0,12,12,12,0,0,0,0,,,,,,,,,,,,,,,,,208.82043909999993,None,208.82043909999993,None,208.82043909999993,None,208.82043909999993,None,208.82043909999993,None,0.0012527799999588751,None,0.48463558000003104,None,0.9620857800000522,None,"['num_7', 'return']","[0.7716122999999016, 0.8840959999999995]",214.86950419999994,None,,,1,001,2021_Oct_20_1057,eeg_contingent_digits,2021.2.3,60.09817638095589,
12.0,8.0,5.0,4.0,,,,,,,,,,,,,,,,,0,0,0,0,0,12,12,12,1,0,1,0,,,,,,,,,,,,,,,,,,,,,,,,,,,,,,,,,"['num_7', 'return']","[0.13988319999998566, 0.2598644999999351]",215.7737964999999,None,,,1,001,2021_Oct_20_1057,eeg_contingent_digits,2021.2.3,60.09817638095589,
12.0,8.0,5.0,4.0,,,,,,,,,,,,,,,,,0,0,0,0,0,12,12,12,2,0,2,0,,,,,,,,,,,,,,,,,,,,,,,,,,,,,,,,,"['num_7', 'return']","[0.14456520000010187, 0.2961051000000907]",216.05714079999996,None,,,1,001,2021_Oct_20_1057,eeg_contingent_digits,2021.2.3,60.09817638095589,
12.0,8.0,5.0,4.0,,,,,,,,,,,,,,,,,0,0,0,0,0,12,12,12,,,,,,,,,,,,,,,,,,,,,,,,,,,,,,,,,,,,,,,,,None,None,1,001,2021_Oct_20_1057,eeg_contingent_digits,2021.2.3,60.09817638095589,
13.0,1.0,3.0,8.0,,,,,,,,,,,,,,,,,0,0,0,0,0,13,13,13,0,0,0,0,,,,,,,,,,,,,,,,,216.3860441999999,None,216.3860441999999,None,216.3860441999999,None,216.3860441999999,None,216.3860441999999,None,0.007713960000160114,None,0.4858291600002076,None,0.9694504600001892,None,"['num_7', 'return']","[0.6608257999999978, 0.7481956999999966]",224.1170075,None,,,1,001,2021_Oct_20_1057,eeg_contingent_digits,2021.2.3,60.09817638095589,
13.0,1.0,3.0,8.0,,,,,,,,,,,,,,,,,0,0,0,0,0,13,13,13,1,0,1,0,,,,,,,,,,,,,,,,,,,,,,,,,,,,,,,,,"['num_7', 'return']","[0.1607342999999446, 0.3043463999999858]",224.89675799999998,None,,,1,001,2021_Oct_20_1057,eeg_contingent_digits,2021.2.3,60.09817638095589,
13.0,1.0,3.0,8.0,,,,,,,,,,,,,,,,,0,0,0,0,0,13,13,13,2,0,2,0,,,,,,,,,,,,,,,,,,,,,,,,,,,,,,,,,"['num_7', 'return']","[0.130843700000014, 0.28273890000002666]",225.2303427999999,None,,,1,001,2021_Oct_20_1057,eeg_contingent_digits,2021.2.3,60.09817638095589,
13.0,1.0,3.0,8.0,,,,,,,,,,,,,,,,,0,0,0,0,0,13,13,13,,,,,,,,,,,,,,,,,,,,,,,,,,,,,,,,,,,,,,,,,None,None,1,001,2021_Oct_20_1057,eeg_contingent_digits,2021.2.3,60.09817638095589,
14.0,9.0,4.0,6.0,,,,,,,,,,,,,,,,,0,0,0,0,0,14,14,14,0,0,0,0,,,,,,,,,,,,,,,,,225.55860829999995,None,225.55860829999995,None,225.55860829999995,None,225.55860829999995,None,225.55860829999995,None,0.013519539999947483,None,0.5040840399999524,None,0.9869406399999434,None,"['num_7', 'return']","[1.0903703999999834, 1.2181363999999348]",232.95908359999999,None,,,1,001,2021_Oct_20_1057,eeg_contingent_digits,2021.2.3,60.09817638095589,
14.0,9.0,4.0,6.0,,,,,,,,,,,,,,,,,0,0,0,0,0,14,14,14,1,0,1,0,,,,,,,,,,,,,,,,,,,,,,,,,,,,,,,,,"['num_7', 'return']","[0.12454270000000633, 0.25246660000004795]",234.20463029999996,None,,,1,001,2021_Oct_20_1057,eeg_contingent_digits,2021.2.3,60.09817638095589,
14.0,9.0,4.0,6.0,,,,,,,,,,,,,,,,,0,0,0,0,0,14,14,14,2,0,2,0,,,,,,,,,,,,,,,,,,,,,,,,,,,,,,,,,"['num_7', 'return']","[0.11377589999995052, 0.2815753999999515]",234.4876648999999,None,,,1,001,2021_Oct_20_1057,eeg_contingent_digits,2021.2.3,60.09817638095589,
14.0,9.0,4.0,6.0,,,,,,,,,,,,,,,,,0,0,0,0,0,14,14,14,,,,,,,,,,,,,,,,,,,,,,,,,,,,,,,,,,,,,,,,,None,None,1,001,2021_Oct_20_1057,eeg_contingent_digits,2021.2.3,60.09817638095589,
15.0,5.0,4.0,3.0,,,,,,,,,,,,,,,,,0,0,0,0,0,15,15,15,0,0,0,0,,,,,,,,,,,,,,,,,234.82007739999995,None,234.82007739999995,None,234.82007739999995,None,234.82007739999995,None,234.82007739999995,None,0.009759759999951712,None,0.493649860000005,None,0.9773009599999796,None,"['num_7', 'return']","[0.46193540000001576, 0.5736340999999356]",240.0433731999999,None,,,1,001,2021_Oct_20_1057,eeg_contingent_digits,2021.2.3,60.09817638095589,
15.0,5.0,4.0,3.0,,,,,,,,,,,,,,,,,0,0,0,0,0,15,15,15,1,0,1,0,,,,,,,,,,,,,,,,,,,,,,,,,,,,,,,,,"['num_7', 'return']","[0.13564580000002024, 0.271798600000011]",240.6414339999999,None,,,1,001,2021_Oct_20_1057,eeg_contingent_digits,2021.2.3,60.09817638095589,
15.0,5.0,4.0,3.0,,,,,,,,,,,,,,,,,0,0,0,0,0,15,15,15,2,0,2,0,,,,,,,,,,,,,,,,,,,,,,,,,,,,,,,,,"['num_7', 'return']","[0.08288849999996728, 0.2747117999999773]",240.9424522999999,None,,,1,001,2021_Oct_20_1057,eeg_contingent_digits,2021.2.3,60.09817638095589,
