TrialID,NFB_digit1,NFB_digit2,NFB_digit3,practice_block.thisRepN,practice_block.thisTrialN,practice_block.thisN,practice_block.thisIndex,practice_trials.thisRepN,practice_trials.thisTrialN,practice_trials.thisN,practice_trials.thisIndex,response_practice.thisRepN,response_practice.thisTrialN,response_practice.thisN,response_practice.thisIndex,calibration_block.thisRepN,calibration_block.thisTrialN,calibration_block.thisN,calibration_block.thisIndex,experimental_block.thisRepN,experimental_block.thisTrialN,experimental_block.thisN,experimental_block.thisIndex,exp_trials.thisRepN,exp_trials.thisTrialN,exp_trials.thisN,exp_trials.thisIndex,response_exp.thisRepN,response_exp.thisTrialN,response_exp.thisN,response_exp.thisIndex,control_block.thisRepN,control_block.thisTrialN,control_block.thisN,control_block.thisIndex,ctrl_trials.thisRepN,ctrl_trials.thisTrialN,ctrl_trials.thisN,ctrl_trials.thisIndex,response_ctrl.thisRepN,response_ctrl.thisTrialN,response_ctrl.thisN,response_ctrl.thisIndex,Digit1_clear.started,Digit1_clear.stopped,Digit2_clear.started,Digit2_clear.stopped,Digit3_clear.started,Digit3_clear.stopped,key_resp_3.keys,key_resp_3.rt,key_resp_3.started,key_resp_3.stopped,text_4.started,text_4.stopped,text_5.started,text_5.stopped,Begin.started,Begin.stopped,Fixation.started,Fixation.stopped,sound_digit1.started,sound_digit1.stopped,sound_digit2.started,sound_digit2.stopped,sound_digit3.started,sound_digit3.stopped,key_resp.keys,key_resp.started,key_resp.stopped,key_resp.rt,Begin_3.started,Begin_3.stopped,Fixation_2.started,Fixation_2.stopped,sound_digit1_2.started,sound_digit1_2.stopped,sound_digit2_2.started,sound_digit2_2.stopped,sound_digit3_2.started,sound_digit3_2.stopped,key_resp_2.keys,key_resp_2.started,key_resp_2.stopped,key_resp_2.rt,Begin_4.started,Begin_4.stopped,participant,session,date,expName,psychopyVersion,frameRate,
0.0,6.0,2.0,4.0,0,0,0,0,0,0,0,0,0,0,0,0,,,,,,,,,,,,,,,,,,,,,,,,,,,,,0.004284249996999279,None,0.4742056499962928,None,0.9619040499965195,None,['return'],[0.6192777000032947],23.906897200002277,None,,,,,,,,,,,,,,,,,,,,,,,,,,,,,,,,,,,1,001,2021_Oct_15_1319,eeg_contingent_digits,2021.2.3,60.005280464722134,
0.0,6.0,2.0,4.0,0,0,0,0,0,0,0,0,1,0,1,0,,,,,,,,,,,,,,,,,,,,,,,,,,,,,,,,,,,['return'],[0.1540956000026199],24.54801569999836,None,,,,,,,,,,,,,,,,,,,,,,,,,,,,,,,,,,,1,001,2021_Oct_15_1319,eeg_contingent_digits,2021.2.3,60.005280464722134,
0.0,6.0,2.0,4.0,0,0,0,0,0,0,0,0,2,0,2,0,,,,,,,,,,,,,,,,,,,,,,,,,,,,,,,,,,,['return'],[0.12666199999512173],24.73134740000387,None,,,,,,,,,,,,,,,,,,,,,,,,,,,,,,,,,,,1,001,2021_Oct_15_1319,eeg_contingent_digits,2021.2.3,60.005280464722134,
0.0,6.0,2.0,4.0,0,0,0,0,0,0,0,0,,,,,,,,,,,,,,,,,,,,,,,,,,,,,,,,,,,,,,,,,,,,,,,,,,,,,,,,,,,,,,,,,,,,,,,,,,,,,1,001,2021_Oct_15_1319,eeg_contingent_digits,2021.2.3,60.005280464722134,
1.0,1.0,9.0,3.0,0,0,0,0,0,1,1,1,0,0,0,0,,,,,,,,,,,,,,,,,,,,,,,,,,,,,0.009199649997754022,None,0.48863415000232635,None,0.9707846500023152,None,None,,26.33097360000393,None,,,,,,,,,,,,,,,,,,,,,,,,,,,,,,,,,,,1,001,2021_Oct_15_1319,eeg_contingent_digits,2021.2.3,60.005280464722134,
1.0,1.0,9.0,3.0,0,0,0,0,0,1,1,1,1,0,1,0,,,,,,,,,,,,,,,,,,,,,,,,,,,,,,,,,,,['return'],[1.559577599997283],26.324163400000543,None,,,,,,,,,,,,,,,,,,,,,,,,,,,,,,,,,,,1,001,2021_Oct_15_1319,eeg_contingent_digits,2021.2.3,60.005280464722134,
1.0,1.0,9.0,3.0,0,0,0,0,0,1,1,1,2,0,2,0,,,,,,,,,,,,,,,,,,,,,,,,,,,,,,,,,,,['return'],[0.14251299999887124],27.914576000002853,None,,,,,,,,,,,,,,,,,,,,,,,,,,,,,,,,,,,1,001,2021_Oct_15_1319,eeg_contingent_digits,2021.2.3,60.005280464722134,
1.0,1.0,9.0,3.0,0,0,0,0,0,1,1,1,,,,,,,,,,,,,,,,,,,,,,,,,,,,,,,,,,,,,,,,,,,,,,,,,,,,,,,,,,,,,,,,,,,,,,,,,,,,,1,001,2021_Oct_15_1319,eeg_contingent_digits,2021.2.3,60.005280464722134,
2.0,8.0,0.0,1.0,0,0,0,0,0,2,2,2,0,0,0,0,,,,,,,,,,,,,,,,,,,,,,,,,,,,,0.011056750001444016,None,0.4883790500025498,None,0.9717776500037871,None,None,,29.530774499998373,None,,,,,,,,,,,,,,,,,,,,,,,,,,,,,,,,,,,1,001,2021_Oct_15_1319,eeg_contingent_digits,2021.2.3,60.005280464722134,
2.0,8.0,0.0,1.0,0,0,0,0,0,2,2,2,1,0,1,0,,,,,,,,,,,,,,,,,,,,,,,,,,,,,,,,,,,['return'],[0.6069783000057214],29.524486599999364,None,,,,,,,,,,,,,,,,,,,,,,,,,,,,,,,,,,,1,001,2021_Oct_15_1319,eeg_contingent_digits,2021.2.3,60.005280464722134,
2.0,8.0,0.0,1.0,0,0,0,0,0,2,2,2,2,0,2,0,,,,,,,,,,,,,,,,,,,,,,,,,,,,,,,,,,,['return'],[0.14087029999791412],30.1642559000029,None,,,,,,,,,,,,,,,,,,,,,,,,,,,,,,,,,,,1,001,2021_Oct_15_1319,eeg_contingent_digits,2021.2.3,60.005280464722134,
2.0,8.0,0.0,1.0,0,0,0,0,0,2,2,2,,,,,,,,,,,,,,,,,,,,,,,,,,,,,,,,,,,,,,,,,,,,,,,,,,,,,,,,,,,,,,,,,,,,,,,,,,,,,1,001,2021_Oct_15_1319,eeg_contingent_digits,2021.2.3,60.005280464722134,
3.0,9.0,6.0,1.0,0,0,0,0,0,3,3,3,0,0,0,0,,,,,,,,,,,,,,,,,,,,,,,,,,,,,0.010440049998578615,None,0.487198549999448,None,0.9733772500039777,None,None,,31.78063560000301,None,,,,,,,,,,,,,,,,,,,,,,,,,,,,,,,,,,,1,001,2021_Oct_15_1319,eeg_contingent_digits,2021.2.3,60.005280464722134,
3.0,9.0,6.0,1.0,0,0,0,0,0,3,3,3,1,0,1,0,,,,,,,,,,,,,,,,,,,,,,,,,,,,,,,,,,,['return'],[0.6069657999978517],31.77425629999925,None,,,,,,,,,,,,,,,,,,,,,,,,,,,,,,,,,,,1,001,2021_Oct_15_1319,eeg_contingent_digits,2021.2.3,60.005280464722134,
3.0,9.0,6.0,1.0,0,0,0,0,0,3,3,3,2,0,2,0,,,,,,,,,,,,,,,,,,,,,,,,,,,,,,,,,,,['return'],[0.13563910000084434],32.418462499997986,None,,,,,,,,,,,,,,,,,,,,,,,,,,,,,,,,,,,1,001,2021_Oct_15_1319,eeg_contingent_digits,2021.2.3,60.005280464722134,
3.0,9.0,6.0,1.0,0,0,0,0,0,3,3,3,,,,,,,,,,,,,,,,,,,,,,,,,,,,,,,,,,,,,,,,,,,,,,,,,,,,,,,,,,,,,,,,,,,,,,,,,,,,,1,001,2021_Oct_15_1319,eeg_contingent_digits,2021.2.3,60.005280464722134,
4.0,8.0,1.0,5.0,0,0,0,0,0,4,4,4,0,0,0,0,,,,,,,,,,,,,,,,,,,,,,,,,,,,,0.0101703499967698,None,0.47002414999587927,None,0.9533806499966886,None,None,,34.013840650002386,None,,,,,,,,,,,,,,,,,,,,,,,,,,,,,,,,,,,1,001,2021_Oct_15_1319,eeg_contingent_digits,2021.2.3,60.005280464722134,
4.0,8.0,1.0,5.0,0,0,0,0,0,4,4,4,1,0,1,0,,,,,,,,,,,,,,,,,,,,,,,,,,,,,,,,,,,None,,34.01651230000425,None,,,,,,,,,,,,,,,,,,,,,,,,,,,,,,,,,,,1,001,2021_Oct_15_1319,eeg_contingent_digits,2021.2.3,60.005280464722134,
4.0,8.0,1.0,5.0,0,0,0,0,0,4,4,4,2,0,2,0,,,,,,,,,,,,,,,,,,,,,,,,,,,,,,,,,,,['return'],[0.15080399999715155],34.71387929999764,None,,,,,,,,,,,,,,,,,,,,,,,,,,,,,,,,,,,1,001,2021_Oct_15_1319,eeg_contingent_digits,2021.2.3,60.005280464722134,
4.0,8.0,1.0,5.0,0,0,0,0,0,4,4,4,,,,,,,,,,,,,,,,,,,,,,,,,,,,,,,,,,,,,,,,,,,,,,,,,,,,,,,,,,,,,,,,,,,,,,,,,,,,,1,001,2021_Oct_15_1319,eeg_contingent_digits,2021.2.3,60.005280464722134,
5.0,4.0,1.0,0.0,0,0,0,0,0,5,5,5,0,0,0,0,,,,,,,,,,,,,,,,,,,,,,,,,,,,,0.009795650003070477,None,0.48592555000504944,None,0.9692033500032267,None,None,,36.33017384999912,None,,,,,,,,,,,,,,,,,,,,,,,,,,,,,,,,,,,1,001,2021_Oct_15_1319,eeg_contingent_digits,2021.2.3,60.005280464722134,
5.0,4.0,1.0,0.0,0,0,0,0,0,5,5,5,1,0,1,0,,,,,,,,,,,,,,,,,,,,,,,,,,,,,,,,,,,['return'],[0.6777944000059506],36.330284499999834,None,,,,,,,,,,,,,,,,,,,,,,,,,,,,,,,,,,,1,001,2021_Oct_15_1319,eeg_contingent_digits,2021.2.3,60.005280464722134,
5.0,4.0,1.0,0.0,0,0,0,0,0,5,5,5,2,0,2,0,,,,,,,,,,,,,,,,,,,,,,,,,,,,,,,,,,,['return'],[0.18057669999689097],37.03050159999839,None,,,,,,,,,,,,,,,,,,,,,,,,,,,,,,,,,,,1,001,2021_Oct_15_1319,eeg_contingent_digits,2021.2.3,60.005280464722134,
5.0,4.0,1.0,0.0,0,0,0,0,0,5,5,5,,,,,,,,,,,,,,,,,,,,,,,,,,,,,,,,,,,,,,,,,,,,,,,,,,,,,,,,,,,,,,,,,,,,,,,,,,,,,1,001,2021_Oct_15_1319,eeg_contingent_digits,2021.2.3,60.005280464722134,
6.0,9.0,2.0,6.0,0,0,0,0,0,6,6,6,0,0,0,0,,,,,,,,,,,,,,,,,,,,,,,,,,,,,0.010505250000278465,None,0.47042455000337213,None,0.9539078500019968,None,None,,38.6633237500042,None,,,,,,,,,,,,,,,,,,,,,,,,,,,,,,,,,,,1,001,2021_Oct_15_1319,eeg_contingent_digits,2021.2.3,60.005280464722134,
6.0,9.0,2.0,6.0,0,0,0,0,0,6,6,6,1,0,1,0,,,,,,,,,,,,,,,,,,,,,,,,,,,,,,,,,,,['return'],[0.696213600000192],38.66397880000295,None,,,,,,,,,,,,,,,,,,,,,,,,,,,,,,,,,,,1,001,2021_Oct_15_1319,eeg_contingent_digits,2021.2.3,60.005280464722134,
6.0,9.0,2.0,6.0,0,0,0,0,0,6,6,6,2,0,2,0,,,,,,,,,,,,,,,,,,,,,,,,,,,,,,,,,,,['return'],[0.16589019999810262],39.380193700002565,None,,,,,,,,,,,,,,,,,,,,,,,,,,,,,,,,,,,1,001,2021_Oct_15_1319,eeg_contingent_digits,2021.2.3,60.005280464722134,
6.0,9.0,2.0,6.0,0,0,0,0,0,6,6,6,,,,,,,,,,,,,,,,,,,,,,,,,,,,,,,,,,,,,,,,,,,,,,,,,,,,,,,,,,,,,,,,,,,,,,,,,,,,,1,001,2021_Oct_15_1319,eeg_contingent_digits,2021.2.3,60.005280464722134,
7.0,2.0,3.0,0.0,0,0,0,0,0,7,7,7,0,0,0,0,,,,,,,,,,,,,,,,,,,,,,,,,,,,,0.010292950006260071,None,0.4870911500038346,None,0.9536253500045859,None,None,,41.01325630000356,None,,,,,,,,,,,,,,,,,,,,,,,,,,,,,,,,,,,1,001,2021_Oct_15_1319,eeg_contingent_digits,2021.2.3,60.005280464722134,
7.0,2.0,3.0,0.0,0,0,0,0,0,7,7,7,1,0,1,0,,,,,,,,,,,,,,,,,,,,,,,,,,,,,,,,,,,['return'],[0.6969372000021394],41.005938300004345,None,,,,,,,,,,,,,,,,,,,,,,,,,,,,,,,,,,,1,001,2021_Oct_15_1319,eeg_contingent_digits,2021.2.3,60.005280464722134,
7.0,2.0,3.0,0.0,0,0,0,0,0,7,7,7,2,0,2,0,,,,,,,,,,,,,,,,,,,,,,,,,,,,,,,,,,,['return'],[0.1709908000048017],41.73003840000456,None,,,,,,,,,,,,,,,,,,,,,,,,,,,,,,,,,,,1,001,2021_Oct_15_1319,eeg_contingent_digits,2021.2.3,60.005280464722134,
7.0,2.0,3.0,0.0,0,0,0,0,0,7,7,7,,,,,,,,,,,,,,,,,,,,,,,,,,,,,,,,,,,,,,,,,,,,,,,,,,,,,,,,,,,,,,,,,,,,,,,,,,,,,1,001,2021_Oct_15_1319,eeg_contingent_digits,2021.2.3,60.005280464722134,
8.0,1.0,9.0,2.0,0,0,0,0,0,8,8,8,0,0,0,0,,,,,,,,,,,,,,,,,,,,,,,,,,,,,0.011089850006101187,None,0.48844375000771834,None,0.9717982500078506,None,None,,43.36299885000117,None,,,,,,,,,,,,,,,,,,,,,,,,,,,,,,,,,,,1,001,2021_Oct_15_1319,eeg_contingent_digits,2021.2.3,60.005280464722134,
8.0,1.0,9.0,2.0,0,0,0,0,0,8,8,8,1,0,1,0,,,,,,,,,,,,,,,,,,,,,,,,,,,,,,,,,,,['return'],[0.5028964999946766],43.37093630000163,None,,,,,,,,,,,,,,,,,,,,,,,,,,,,,,,,,,,1,001,2021_Oct_15_1319,eeg_contingent_digits,2021.2.3,60.005280464722134,
8.0,1.0,9.0,2.0,0,0,0,0,0,8,8,8,2,0,2,0,,,,,,,,,,,,,,,,,,,,,,,,,,,,,,,,,,,['return'],[0.15841669999645092],43.89662970000063,None,,,,,,,,,,,,,,,,,,,,,,,,,,,,,,,,,,,1,001,2021_Oct_15_1319,eeg_contingent_digits,2021.2.3,60.005280464722134,
8.0,1.0,9.0,2.0,0,0,0,0,0,8,8,8,,,,,,,,,,,,,,,,,,,,,,,,,,,,,,,,,,,,,,,,,,,,,,,,,,,,,,,,,,,,,,,,,,,,,,,,,,,,,1,001,2021_Oct_15_1319,eeg_contingent_digits,2021.2.3,60.005280464722134,
9.0,8.0,1.0,0.0,0,0,0,0,0,9,9,9,0,0,0,0,,,,,,,,,,,,,,,,,,,,,,,,,,,,,0.011093350003648084,None,0.4885195500028203,None,0.9718551500045578,None,None,,45.512811849997526,None,,,,,,,,,,,,,,,,,,,,,,,,,,,,,,,,,,,1,001,2021_Oct_15_1319,eeg_contingent_digits,2021.2.3,60.005280464722134,
9.0,8.0,1.0,0.0,0,0,0,0,0,9,9,9,1,0,1,0,,,,,,,,,,,,,,,,,,,,,,,,,,,,,,,,,,,['return'],[0.4009230000010575],45.520848100000876,None,,,,,,,,,,,,,,,,,,,,,,,,,,,,,,,,,,,1,001,2021_Oct_15_1319,eeg_contingent_digits,2021.2.3,60.005280464722134,
9.0,8.0,1.0,0.0,0,0,0,0,0,9,9,9,2,0,2,0,,,,,,,,,,,,,,,,,,,,,,,,,,,,,,,,,,,['return'],[0.160640299996885],45.94648310000048,None,,,,,,,,,,,,,,,,,,,,,,,,,,,,,,,,,,,1,001,2021_Oct_15_1319,eeg_contingent_digits,2021.2.3,60.005280464722134,
9.0,8.0,1.0,0.0,0,0,0,0,0,9,9,9,,,,,,,,,,,,,,,,,,,,,,,,,,,,,,,,,,,,,,,,,,,,,,,,,,,,,,,,,,,,,,,,,,,,,,,,,,,,,1,001,2021_Oct_15_1319,eeg_contingent_digits,2021.2.3,60.005280464722134,
,,,,0,0,0,0,,,,,,,,,,,,,,,,,,,,,,,,,,,,,,,,,,,,,,,,,,,,,,,46.12993519999873,None,,,,,,,,,,,,,,,,,,,,,,,,,,,,,,,,,1,001,2021_Oct_15_1319,eeg_contingent_digits,2021.2.3,60.005280464722134,
,,,,,,,,,,,,,,,,0,0,0,0,,,,,,,,,,,,,,,,,,,,,,,,,,,,,,,,,,,,,61.140427199999976,None,,,,,,,,,,,,,,,,,,,,,,,,,,,,,,,1,001,2021_Oct_15_1319,eeg_contingent_digits,2021.2.3,60.005280464722134,
0.0,0.0,3.0,6.0,,,,,,,,,,,,,,,,,0,0,0,0,0,0,0,0,0,0,0,0,,,,,,,,,,,,,,,,,,,,,,,,,,,71.14468855000231,None,71.14870620000147,None,0.012618649998330511,None,0.4917837500033784,None,0.9751919499976793,None,None,74.59385645000074,None,,,,,,,,,,,,,,,,,,1,001,2021_Oct_15_1319,eeg_contingent_digits,2021.2.3,60.005280464722134,
0.0,0.0,3.0,6.0,,,,,,,,,,,,,,,,,0,0,0,0,0,0,0,0,1,0,1,0,,,,,,,,,,,,,,,,,,,,,,,,,,,,,,,,,,,,,['return'],74.59707329999947,None,[1.2810577999989619],,,,,,,,,,,,,,,,,1,001,2021_Oct_15_1319,eeg_contingent_digits,2021.2.3,60.005280464722134,
0.0,0.0,3.0,6.0,,,,,,,,,,,,,,,,,0,0,0,0,0,0,0,0,2,0,2,0,,,,,,,,,,,,,,,,,,,,,,,,,,,,,,,,,,,,,['return'],75.91086899999937,None,[0.13316479999775765],,,,,,,,,,,,,,,,,1,001,2021_Oct_15_1319,eeg_contingent_digits,2021.2.3,60.005280464722134,
0.0,0.0,3.0,6.0,,,,,,,,,,,,,,,,,0,0,0,0,0,0,0,0,,,,,,,,,,,,,,,,,,,,,,,,,,,,,,,,,,,,,,,,,,,,,None,None,,,,,,,,,,,,,,,1,001,2021_Oct_15_1319,eeg_contingent_digits,2021.2.3,60.005280464722134,
1.0,1.0,2.0,6.0,,,,,,,,,,,,,,,,,0,0,0,0,0,1,1,1,0,0,0,0,,,,,,,,,,,,,,,,,,,,,,,,,,,,,76.06151089999912,None,0.012926050003443379,None,0.4924259500039625,None,0.9800098500054446,None,None,79.49353694999954,None,,,,,,,,,,,,,,,,,,1,001,2021_Oct_15_1319,eeg_contingent_digits,2021.2.3,60.005280464722134,
1.0,1.0,2.0,6.0,,,,,,,,,,,,,,,,,0,0,0,0,0,1,1,1,1,0,1,0,,,,,,,,,,,,,,,,,,,,,,,,,,,,,,,,,,,,,['return'],79.50199350000184,None,[0.4768991999953869],,,,,,,,,,,,,,,,,1,001,2021_Oct_15_1319,eeg_contingent_digits,2021.2.3,60.005280464722134,
1.0,1.0,2.0,6.0,,,,,,,,,,,,,,,,,0,0,0,0,0,1,1,1,2,0,2,0,,,,,,,,,,,,,,,,,,,,,,,,,,,,,,,,,,,,,['return'],80.01047480000125,None,[0.1256314000056591],,,,,,,,,,,,,,,,,1,001,2021_Oct_15_1319,eeg_contingent_digits,2021.2.3,60.005280464722134,
1.0,1.0,2.0,6.0,,,,,,,,,,,,,,,,,0,0,0,0,0,1,1,1,,,,,,,,,,,,,,,,,,,,,,,,,,,,,,,,,,,,,,,,,,,,,None,None,,,,,,,,,,,,,,,1,001,2021_Oct_15_1319,eeg_contingent_digits,2021.2.3,60.005280464722134,
2.0,6.0,1.0,3.0,,,,,,,,,,,,,,,,,0,0,0,0,0,2,2,2,0,0,0,0,,,,,,,,,,,,,,,,,,,,,,,,,,,,,80.16709840000112,None,0.0029080500098643824,None,0.4724915500046336,None,0.9556633500033058,None,None,83.60998099999705,None,,,,,,,,,,,,,,,,,,1,001,2021_Oct_15_1319,eeg_contingent_digits,2021.2.3,60.005280464722134,
2.0,6.0,1.0,3.0,,,,,,,,,,,,,,,,,0,0,0,0,0,2,2,2,1,0,1,0,,,,,,,,,,,,,,,,,,,,,,,,,,,,,,,,,,,,,['return'],83.60224610000296,None,[37.71083500000532],,,,,,,,,,,,,,,,,1,001,2021_Oct_15_1319,eeg_contingent_digits,2021.2.3,60.005280464722134,
2.0,6.0,1.0,3.0,,,,,,,,,,,,,,,,,0,0,0,0,0,2,2,2,2,0,2,0,,,,,,,,,,,,,,,,,,,,,,,,,,,,,,,,,,,,,['return'],121.34043810000003,None,[0.13077440000051865],,,,,,,,,,,,,,,,,1,001,2021_Oct_15_1319,eeg_contingent_digits,2021.2.3,60.005280464722134,
2.0,6.0,1.0,3.0,,,,,,,,,,,,,,,,,0,0,0,0,0,2,2,2,,,,,,,,,,,,,,,,,,,,,,,,,,,,,,,,,,,,,,,,,,,,,None,None,,,,,,,,,,,,,,,1,001,2021_Oct_15_1319,eeg_contingent_digits,2021.2.3,60.005280464722134,
3.0,9.0,5.0,0.0,,,,,,,,,,,,,,,,,0,0,0,0,0,3,3,3,0,0,0,0,,,,,,,,,,,,,,,,,,,,,,,,,,,,,121.4997521999976,None,0.010482099998625927,None,0.48767529999895487,None,0.9540845999945304,None,None,124.94007115000349,None,,,,,,,,,,,,,,,,,,1,001,2021_Oct_15_1319,eeg_contingent_digits,2021.2.3,60.005280464722134,
3.0,9.0,5.0,0.0,,,,,,,,,,,,,,,,,0,0,0,0,0,3,3,3,1,0,1,0,,,,,,,,,,,,,,,,,,,,,,,,,,,,,,,,,,,,,['return'],124.94591780000337,None,[1.5168033000009018],,,,,,,,,,,,,,,,,1,001,2021_Oct_15_1319,eeg_contingent_digits,2021.2.3,60.005280464722134,
3.0,9.0,5.0,0.0,,,,,,,,,,,,,,,,,0,0,0,0,0,3,3,3,2,0,2,0,,,,,,,,,,,,,,,,,,,,,,,,,,,,,,,,,,,,,['return'],126.49013150000246,None,[0.11717299999872921],,,,,,,,,,,,,,,,,1,001,2021_Oct_15_1319,eeg_contingent_digits,2021.2.3,60.005280464722134,
3.0,9.0,5.0,0.0,,,,,,,,,,,,,,,,,0,0,0,0,0,3,3,3,,,,,,,,,,,,,,,,,,,,,,,,,,,,,,,,,,,,,,,,,,,,,None,None,,,,,,,,,,,,,,,1,001,2021_Oct_15_1319,eeg_contingent_digits,2021.2.3,60.005280464722134,
4.0,9.0,3.0,6.0,,,,,,,,,,,,,,,,,0,0,0,0,0,4,4,4,0,0,0,0,,,,,,,,,,,,,,,,,,,,,,,,,,,,,126.6233585000009,None,0.01316804999805754,None,0.4763253499986604,None,0.9762087499984773,None,None,130.07302259999705,None,,,,,,,,,,,,,,,,,,1,001,2021_Oct_15_1319,eeg_contingent_digits,2021.2.3,60.005280464722134,
4.0,9.0,3.0,6.0,,,,,,,,,,,,,,,,,0,0,0,0,0,4,4,4,1,0,1,0,,,,,,,,,,,,,,,,,,,,,,,,,,,,,,,,,,,,,['return'],130.0657676999981,None,[8.83601830000407],,,,,,,,,,,,,,,,,1,001,2021_Oct_15_1319,eeg_contingent_digits,2021.2.3,60.005280464722134,
4.0,9.0,3.0,6.0,,,,,,,,,,,,,,,,,0,0,0,0,0,4,4,4,2,0,2,0,,,,,,,,,,,,,,,,,,,,,,,,,,,,,,,,,,,,,['return'],138.92258690000017,None,[0.14432799999485724],,,,,,,,,,,,,,,,,1,001,2021_Oct_15_1319,eeg_contingent_digits,2021.2.3,60.005280464722134,
4.0,9.0,3.0,6.0,,,,,,,,,,,,,,,,,0,0,0,0,0,4,4,4,,,,,,,,,,,,,,,,,,,,,,,,,,,,,,,,,,,,,,,,,,,,,None,None,,,,,,,,,,,,,,,1,001,2021_Oct_15_1319,eeg_contingent_digits,2021.2.3,60.005280464722134,
5.0,1.0,6.0,4.0,,,,,,,,,,,,,,,,,0,0,0,0,0,5,5,5,0,0,0,0,,,,,,,,,,,,,,,,,,,,,,,,,,,,,139.08910900000046,None,0.012980250001419336,None,0.4758400500068092,None,0.9591564500005916,None,None,142.52209134999939,None,,,,,,,,,,,,,,,,,,1,001,2021_Oct_15_1319,eeg_contingent_digits,2021.2.3,60.005280464722134,
5.0,1.0,6.0,4.0,,,,,,,,,,,,,,,,,0,0,0,0,0,5,5,5,1,0,1,0,,,,,,,,,,,,,,,,,,,,,,,,,,,,,,,,,,,,,['return'],142.5221681999974,None,[0.45873060000303667],,,,,,,,,,,,,,,,,1,001,2021_Oct_15_1319,eeg_contingent_digits,2021.2.3,60.005280464722134,
5.0,1.0,6.0,4.0,,,,,,,,,,,,,,,,,0,0,0,0,0,5,5,5,2,0,2,0,,,,,,,,,,,,,,,,,,,,,,,,,,,,,,,,,,,,,['return'],143.00560530000075,None,[0.13263259999803267],,,,,,,,,,,,,,,,,1,001,2021_Oct_15_1319,eeg_contingent_digits,2021.2.3,60.005280464722134,
5.0,1.0,6.0,4.0,,,,,,,,,,,,,,,,,0,0,0,0,0,5,5,5,,,,,,,,,,,,,,,,,,,,,,,,,,,,,,,,,,,,,,,,,,,,,143.2018018000017,None,,,,,,,,,,,,,,,1,001,2021_Oct_15_1319,eeg_contingent_digits,2021.2.3,60.005280464722134,
6.0,8.0,2.0,5.0,,,,,,,,,,,,,,,,,0,0,0,0,0,6,6,6,0,0,0,0,,,,,,,,,,,,,,,,,,,,,,,,,,,,,143.31051860000298,None,0.013263349996122997,None,0.49306855000031646,None,0.9595737499985262,None,None,146.73838125000256,None,,,,,,,,,,,,,,,,,,1,001,2021_Oct_15_1319,eeg_contingent_digits,2021.2.3,60.005280464722134,
6.0,8.0,2.0,5.0,,,,,,,,,,,,,,,,,0,0,0,0,0,6,6,6,1,0,1,0,,,,,,,,,,,,,,,,,,,,,,,,,,,,,,,,,,,,,['return'],146.7385581999988,None,[0.32159450000472134],,,,,,,,,,,,,,,,,1,001,2021_Oct_15_1319,eeg_contingent_digits,2021.2.3,60.005280464722134,
6.0,8.0,2.0,5.0,,,,,,,,,,,,,,,,,0,0,0,0,0,6,6,6,2,0,2,0,,,,,,,,,,,,,,,,,,,,,,,,,,,,,,,,,,,,,['return'],147.08868800000346,None,[0.13723609999578912],,,,,,,,,,,,,,,,,1,001,2021_Oct_15_1319,eeg_contingent_digits,2021.2.3,60.005280464722134,
6.0,8.0,2.0,5.0,,,,,,,,,,,,,,,,,0,0,0,0,0,6,6,6,,,,,,,,,,,,,,,,,,,,,,,,,,,,,,,,,,,,,,,,,,,,,None,None,,,,,,,,,,,,,,,1,001,2021_Oct_15_1319,eeg_contingent_digits,2021.2.3,60.005280464722134,
7.0,2.0,8.0,1.0,,,,,,,,,,,,,,,,,0,0,0,0,0,7,7,7,0,0,0,0,,,,,,,,,,,,,,,,,,,,,,,,,,,,,147.26263050000125,None,0.012656099999730941,None,0.49187820000224747,None,0.9752004000038141,None,None,150.72129104999985,None,,,,,,,,,,,,,,,,,,1,001,2021_Oct_15_1319,eeg_contingent_digits,2021.2.3,60.005280464722134,
7.0,2.0,8.0,1.0,,,,,,,,,,,,,,,,,0,0,0,0,0,7,7,7,1,0,1,0,,,,,,,,,,,,,,,,,,,,,,,,,,,,,,,,,,,,,['return'],150.72165929999755,None,[1.028598900003999],,,,,,,,,,,,,,,,,1,001,2021_Oct_15_1319,eeg_contingent_digits,2021.2.3,60.005280464722134,
7.0,2.0,8.0,1.0,,,,,,,,,,,,,,,,,0,0,0,0,0,7,7,7,2,0,2,0,,,,,,,,,,,,,,,,,,,,,,,,,,,,,,,,,,,,,['return'],151.77164749999793,None,[0.14832230000320124],,,,,,,,,,,,,,,,,1,001,2021_Oct_15_1319,eeg_contingent_digits,2021.2.3,60.005280464722134,
7.0,2.0,8.0,1.0,,,,,,,,,,,,,,,,,0,0,0,0,0,7,7,7,,,,,,,,,,,,,,,,,,,,,,,,,,,,,,,,,,,,,,,,,,,,,None,None,,,,,,,,,,,,,,,1,001,2021_Oct_15_1319,eeg_contingent_digits,2021.2.3,60.005280464722134,
8.0,3.0,0.0,4.0,,,,,,,,,,,,,,,,,0,0,0,0,0,8,8,8,0,0,0,0,,,,,,,,,,,,,,,,,,,,,,,,,,,,,151.93811989999813,None,0.013315950003743637,None,0.49672915000701323,None,0.9764248500068788,None,None,155.38764305000004,None,,,,,,,,,,,,,,,,,,1,001,2021_Oct_15_1319,eeg_contingent_digits,2021.2.3,60.005280464722134,
8.0,3.0,0.0,4.0,,,,,,,,,,,,,,,,,0,0,0,0,0,8,8,8,1,0,1,0,,,,,,,,,,,,,,,,,,,,,,,,,,,,,,,,,,,,,['return'],155.3879042000044,None,[0.3140140000032261],,,,,,,,,,,,,,,,,1,001,2021_Oct_15_1319,eeg_contingent_digits,2021.2.3,60.005280464722134,
8.0,3.0,0.0,4.0,,,,,,,,,,,,,,,,,0,0,0,0,0,8,8,8,2,0,2,0,,,,,,,,,,,,,,,,,,,,,,,,,,,,,,,,,,,,,['return'],155.72126070000377,None,[0.1506426999985706],,,,,,,,,,,,,,,,,1,001,2021_Oct_15_1319,eeg_contingent_digits,2021.2.3,60.005280464722134,
8.0,3.0,0.0,4.0,,,,,,,,,,,,,,,,,0,0,0,0,0,8,8,8,,,,,,,,,,,,,,,,,,,,,,,,,,,,,,,,,,,,,,,,,,,,,None,None,,,,,,,,,,,,,,,1,001,2021_Oct_15_1319,eeg_contingent_digits,2021.2.3,60.005280464722134,
9.0,2.0,9.0,6.0,,,,,,,,,,,,,,,,,0,0,0,0,0,9,9,9,0,0,0,0,,,,,,,,,,,,,,,,,,,,,,,,,,,,,155.90517209999962,None,0.00036174999695504084,None,0.48372645000199554,None,0.9706784500012873,None,None,159.37070129999773,None,,,,,,,,,,,,,,,,,,1,001,2021_Oct_15_1319,eeg_contingent_digits,2021.2.3,60.005280464722134,
9.0,2.0,9.0,6.0,,,,,,,,,,,,,,,,,0,0,0,0,0,9,9,9,1,0,1,0,,,,,,,,,,,,,,,,,,,,,,,,,,,,,,,,,,,,,['return'],159.36902840000403,None,[0.3840663999944809],,,,,,,,,,,,,,,,,1,001,2021_Oct_15_1319,eeg_contingent_digits,2021.2.3,60.005280464722134,
9.0,2.0,9.0,6.0,,,,,,,,,,,,,,,,,0,0,0,0,0,9,9,9,2,0,2,0,,,,,,,,,,,,,,,,,,,,,,,,,,,,,,,,,,,,,['return'],159.7901458999986,None,[0.14480170000024373],,,,,,,,,,,,,,,,,1,001,2021_Oct_15_1319,eeg_contingent_digits,2021.2.3,60.005280464722134,
9.0,2.0,9.0,6.0,,,,,,,,,,,,,,,,,0,0,0,0,0,9,9,9,,,,,,,,,,,,,,,,,,,,,,,,,,,,,,,,,,,,,,,,,,,,,None,None,,,,,,,,,,,,,,,1,001,2021_Oct_15_1319,eeg_contingent_digits,2021.2.3,60.005280464722134,
10.0,6.0,1.0,5.0,,,,,,,,,,,,,,,,,0,0,0,0,0,10,10,10,0,0,0,0,,,,,,,,,,,,,,,,,,,,,,,,,,,,,159.95411109999986,None,0.015316099998017307,None,0.48037250000197673,None,0.9638365999999223,None,None,163.4036719499978,None,,,,,,,,,,,,,,,,,,1,001,2021_Oct_15_1319,eeg_contingent_digits,2021.2.3,60.005280464722134,
10.0,6.0,1.0,5.0,,,,,,,,,,,,,,,,,0,0,0,0,0,10,10,10,1,0,1,0,,,,,,,,,,,,,,,,,,,,,,,,,,,,,,,,,,,,,['return'],163.4038292999976,None,[2.927973900004872],,,,,,,,,,,,,,,,,1,001,2021_Oct_15_1319,eeg_contingent_digits,2021.2.3,60.005280464722134,
10.0,6.0,1.0,5.0,,,,,,,,,,,,,,,,,0,0,0,0,0,10,10,10,2,0,2,0,,,,,,,,,,,,,,,,,,,,,,,,,,,,,,,,,,,,,['return'],166.35368630000448,None,[0.1592458999948576],,,,,,,,,,,,,,,,,1,001,2021_Oct_15_1319,eeg_contingent_digits,2021.2.3,60.005280464722134,
10.0,6.0,1.0,5.0,,,,,,,,,,,,,,,,,0,0,0,0,0,10,10,10,,,,,,,,,,,,,,,,,,,,,,,,,,,,,,,,,,,,,,,,,,,,,None,None,,,,,,,,,,,,,,,1,001,2021_Oct_15_1319,eeg_contingent_digits,2021.2.3,60.005280464722134,
11.0,5.0,6.0,9.0,,,,,,,,,,,,,,,,,0,0,0,0,0,11,11,11,0,0,0,0,,,,,,,,,,,,,,,,,,,,,,,,,,,,,166.53675079999812,None,1.0449992259964347e-05,None,0.46669474999362137,None,0.9702075499953935,None,None,169.98660164999964,None,,,,,,,,,,,,,,,,,,1,001,2021_Oct_15_1319,eeg_contingent_digits,2021.2.3,60.005280464722134,
11.0,5.0,6.0,9.0,,,,,,,,,,,,,,,,,0,0,0,0,0,11,11,11,1,0,1,0,,,,,,,,,,,,,,,,,,,,,,,,,,,,,,,,,,,,,['return'],169.99339560000226,None,[0.3444127999973716],,,,,,,,,,,,,,,,,1,001,2021_Oct_15_1319,eeg_contingent_digits,2021.2.3,60.005280464722134,
11.0,5.0,6.0,9.0,,,,,,,,,,,,,,,,,0,0,0,0,0,11,11,11,2,0,2,0,,,,,,,,,,,,,,,,,,,,,,,,,,,,,,,,,,,,,['return'],170.37031130000105,None,[0.15268909999576863],,,,,,,,,,,,,,,,,1,001,2021_Oct_15_1319,eeg_contingent_digits,2021.2.3,60.005280464722134,
11.0,5.0,6.0,9.0,,,,,,,,,,,,,,,,,0,0,0,0,0,11,11,11,,,,,,,,,,,,,,,,,,,,,,,,,,,,,,,,,,,,,,,,,,,,,170.57615000000078,None,,,,,,,,,,,,,,,1,001,2021_Oct_15_1319,eeg_contingent_digits,2021.2.3,60.005280464722134,
,,,,,,,,,,,,,,,,,,,,0,0,0,0,,,,,,,,,,,,,,,,,,,,,,,,,,,,,,,,,,,,,,,,,,,,,,,,,,,,,,,,,,,,,,,,,1,001,2021_Oct_15_1319,eeg_contingent_digits,2021.2.3,60.005280464722134,
0.0,3.0,9.0,4.0,,,,,,,,,,,,,,,,,,,,,,,,,,,,,0,0,0,0,0,0,0,0,0,0,0,0,,,,,,,,,,,,,,,,,,,,,,,,,,,,,,,170.73190520000207,None,0.012618050001037773,None,0.4752025499983574,None,0.958282749998034,None,None,174.16960915000308,None,,,,1,001,2021_Oct_15_1319,eeg_contingent_digits,2021.2.3,60.005280464722134,
0.0,3.0,9.0,4.0,,,,,,,,,,,,,,,,,,,,,,,,,,,,,0,0,0,0,0,0,0,0,1,0,1,0,,,,,,,,,,,,,,,,,,,,,,,,,,,,,,,,,,,,,,,['return'],174.17682919999788,None,[0.32147840000106953],,,1,001,2021_Oct_15_1319,eeg_contingent_digits,2021.2.3,60.005280464722134,
0.0,3.0,9.0,4.0,,,,,,,,,,,,,,,,,,,,,,,,,,,,,0,0,0,0,0,0,0,0,2,0,2,0,,,,,,,,,,,,,,,,,,,,,,,,,,,,,,,,,,,,,,,['return'],174.51979220000067,None,[0.15229480000562035],,,1,001,2021_Oct_15_1319,eeg_contingent_digits,2021.2.3,60.005280464722134,
0.0,3.0,9.0,4.0,,,,,,,,,,,,,,,,,,,,,,,,,,,,,0,0,0,0,0,0,0,0,,,,,,,,,,,,,,,,,,,,,,,,,,,,,,,,,,,,,,,,,,,,,,,None,None,1,001,2021_Oct_15_1319,eeg_contingent_digits,2021.2.3,60.005280464722134,
1.0,5.0,3.0,0.0,,,,,,,,,,,,,,,,,,,,,,,,,,,,,0,0,0,0,0,1,1,1,0,0,0,0,,,,,,,,,,,,,,,,,,,,,,,,,,,,,,,174.70294170000125,None,0.013143950003723148,None,0.49570125000172993,None,0.9598812500044005,None,None,178.15259034999835,None,,,,1,001,2021_Oct_15_1319,eeg_contingent_digits,2021.2.3,60.005280464722134,
1.0,5.0,3.0,0.0,,,,,,,,,,,,,,,,,,,,,,,,,,,,,0,0,0,0,0,1,1,1,1,0,1,0,,,,,,,,,,,,,,,,,,,,,,,,,,,,,,,,,,,,,,,['return'],178.1534071999995,None,[0.1538795999949798],,,1,001,2021_Oct_15_1319,eeg_contingent_digits,2021.2.3,60.005280464722134,
1.0,5.0,3.0,0.0,,,,,,,,,,,,,,,,,,,,,,,,,,,,,0,0,0,0,0,1,1,1,2,0,2,0,,,,,,,,,,,,,,,,,,,,,,,,,,,,,,,,,,,,,,,['return'],178.33614430000307,None,[0.15774899999814807],,,1,001,2021_Oct_15_1319,eeg_contingent_digits,2021.2.3,60.005280464722134,
1.0,5.0,3.0,0.0,,,,,,,,,,,,,,,,,,,,,,,,,,,,,0,0,0,0,0,1,1,1,,,,,,,,,,,,,,,,,,,,,,,,,,,,,,,,,,,,,,,,,,,,,,,None,None,1,001,2021_Oct_15_1319,eeg_contingent_digits,2021.2.3,60.005280464722134,
2.0,1.0,5.0,8.0,,,,,,,,,,,,,,,,,,,,,,,,,,,,,0,0,0,0,0,2,2,2,0,0,0,0,,,,,,,,,,,,,,,,,,,,,,,,,,,,,,,178.52551780000067,None,0.012347999996563885,None,0.49127049999515293,None,0.974429499998223,None,None,181.98567635000435,None,,,,1,001,2021_Oct_15_1319,eeg_contingent_digits,2021.2.3,60.005280464722134,
2.0,1.0,5.0,8.0,,,,,,,,,,,,,,,,,,,,,,,,,,,,,0,0,0,0,0,2,2,2,1,0,1,0,,,,,,,,,,,,,,,,,,,,,,,,,,,,,,,,,,,,,,,['return'],181.9938775999981,None,[0.45867510000243783],,,1,001,2021_Oct_15_1319,eeg_contingent_digits,2021.2.3,60.005280464722134,
2.0,1.0,5.0,8.0,,,,,,,,,,,,,,,,,,,,,,,,,,,,,0,0,0,0,0,2,2,2,2,0,2,0,,,,,,,,,,,,,,,,,,,,,,,,,,,,,,,,,,,,,,,['return'],182.48574680000456,None,[0.1652950999996392],,,1,001,2021_Oct_15_1319,eeg_contingent_digits,2021.2.3,60.005280464722134,
2.0,1.0,5.0,8.0,,,,,,,,,,,,,,,,,,,,,,,,,,,,,0,0,0,0,0,2,2,2,,,,,,,,,,,,,,,,,,,,,,,,,,,,,,,,,,,,,,,,,,,,,,,None,None,1,001,2021_Oct_15_1319,eeg_contingent_digits,2021.2.3,60.005280464722134,
3.0,1.0,0.0,9.0,,,,,,,,,,,,,,,,,,,,,,,,,,,,,0,0,0,0,0,3,3,3,0,0,0,0,,,,,,,,,,,,,,,,,,,,,,,,,,,,,,,182.66890319999948,None,0.00327695000305539,None,0.476384550005605,None,0.9564216500002658,None,None,186.11861955000276,None,,,,1,001,2021_Oct_15_1319,eeg_contingent_digits,2021.2.3,60.005280464722134,
3.0,1.0,0.0,9.0,,,,,,,,,,,,,,,,,,,,,,,,,,,,,0,0,0,0,0,3,3,3,1,0,1,0,,,,,,,,,,,,,,,,,,,,,,,,,,,,,,,,,,,,,,,['return'],186.12329419999878,None,[0.4253575000038836],,,1,001,2021_Oct_15_1319,eeg_contingent_digits,2021.2.3,60.005280464722134,
3.0,1.0,0.0,9.0,,,,,,,,,,,,,,,,,,,,,,,,,,,,,0,0,0,0,0,3,3,3,2,0,2,0,,,,,,,,,,,,,,,,,,,,,,,,,,,,,,,,,,,,,,,['return'],186.56878750000033,None,[0.19017589999566553],,,1,001,2021_Oct_15_1319,eeg_contingent_digits,2021.2.3,60.005280464722134,
3.0,1.0,0.0,9.0,,,,,,,,,,,,,,,,,,,,,,,,,,,,,0,0,0,0,0,3,3,3,,,,,,,,,,,,,,,,,,,,,,,,,,,,,,,,,,,,,,,,,,,,,,,None,None,1,001,2021_Oct_15_1319,eeg_contingent_digits,2021.2.3,60.005280464722134,
4.0,4.0,8.0,6.0,,,,,,,,,,,,,,,,,,,,,,,,,,,,,0,0,0,0,0,4,4,4,0,0,0,0,,,,,,,,,,,,,,,,,,,,,,,,,,,,,,,186.78538390000176,None,0.01330775000678841,None,0.4763405500052613,None,0.9598652500062599,None,None,190.23488444999893,None,,,,1,001,2021_Oct_15_1319,eeg_contingent_digits,2021.2.3,60.005280464722134,
4.0,4.0,8.0,6.0,,,,,,,,,,,,,,,,,,,,,,,,,,,,,0,0,0,0,0,4,4,4,1,0,1,0,,,,,,,,,,,,,,,,,,,,,,,,,,,,,,,,,,,,,,,['return'],190.2351015000022,None,[0.5166606999991927],,,1,001,2021_Oct_15_1319,eeg_contingent_digits,2021.2.3,60.005280464722134,
4.0,4.0,8.0,6.0,,,,,,,,,,,,,,,,,,,,,,,,,,,,,0,0,0,0,0,4,4,4,2,0,2,0,,,,,,,,,,,,,,,,,,,,,,,,,,,,,,,,,,,,,,,['return'],190.78547570000228,None,[0.16361130000586854],,,1,001,2021_Oct_15_1319,eeg_contingent_digits,2021.2.3,60.005280464722134,
4.0,4.0,8.0,6.0,,,,,,,,,,,,,,,,,,,,,,,,,,,,,0,0,0,0,0,4,4,4,,,,,,,,,,,,,,,,,,,,,,,,,,,,,,,,,,,,,,,,,,,,,,,None,None,1,001,2021_Oct_15_1319,eeg_contingent_digits,2021.2.3,60.005280464722134,
5.0,5.0,0.0,1.0,,,,,,,,,,,,,,,,,,,,,,,,,,,,,0,0,0,0,0,5,5,5,0,0,0,0,,,,,,,,,,,,,,,,,,,,,,,,,,,,,,,190.96836410000105,None,0.012378250001347624,None,0.47451395000098273,None,0.9578564500043285,None,None,194.41794024999908,None,,,,1,001,2021_Oct_15_1319,eeg_contingent_digits,2021.2.3,60.005280464722134,
5.0,5.0,0.0,1.0,,,,,,,,,,,,,,,,,,,,,,,,,,,,,0,0,0,0,0,5,5,5,1,0,1,0,,,,,,,,,,,,,,,,,,,,,,,,,,,,,,,,,,,,,,,['return'],194.41823060000024,None,[0.21070719999988796],,,1,001,2021_Oct_15_1319,eeg_contingent_digits,2021.2.3,60.005280464722134,
5.0,5.0,0.0,1.0,,,,,,,,,,,,,,,,,,,,,,,,,,,,,0,0,0,0,0,5,5,5,2,0,2,0,,,,,,,,,,,,,,,,,,,,,,,,,,,,,,,,,,,,,,,['return'],194.65154360000452,None,[0.18036340000253404],,,1,001,2021_Oct_15_1319,eeg_contingent_digits,2021.2.3,60.005280464722134,
5.0,5.0,0.0,1.0,,,,,,,,,,,,,,,,,,,,,,,,,,,,,0,0,0,0,0,5,5,5,,,,,,,,,,,,,,,,,,,,,,,,,,,,,,,,,,,,,,,,,,,,,,,194.88216079999984,None,1,001,2021_Oct_15_1319,eeg_contingent_digits,2021.2.3,60.005280464722134,
6.0,5.0,3.0,4.0,,,,,,,,,,,,,,,,,,,,,,,,,,,,,0,0,0,0,0,6,6,6,0,0,0,0,,,,,,,,,,,,,,,,,,,,,,,,,,,,,,,196.06803680000303,None,0.013097549999656621,None,0.4926379500029725,None,0.9593709499968099,None,None,199.5341730000029,None,,,,1,001,2021_Oct_15_1319,eeg_contingent_digits,2021.2.3,60.005280464722134,
6.0,5.0,3.0,4.0,,,,,,,,,,,,,,,,,,,,,,,,,,,,,0,0,0,0,0,6,6,6,1,0,1,0,,,,,,,,,,,,,,,,,,,,,,,,,,,,,,,,,,,,,,,['return'],199.52673900000082,None,[0.14548259999719448],,,1,001,2021_Oct_15_1319,eeg_contingent_digits,2021.2.3,60.005280464722134,
6.0,5.0,3.0,4.0,,,,,,,,,,,,,,,,,,,,,,,,,,,,,0,0,0,0,0,6,6,6,2,0,2,0,,,,,,,,,,,,,,,,,,,,,,,,,,,,,,,,,,,,,,,['return'],199.7011136000001,None,[0.14482870000210823],,,1,001,2021_Oct_15_1319,eeg_contingent_digits,2021.2.3,60.005280464722134,
6.0,5.0,3.0,4.0,,,,,,,,,,,,,,,,,,,,,,,,,,,,,0,0,0,0,0,6,6,6,,,,,,,,,,,,,,,,,,,,,,,,,,,,,,,,,,,,,,,,,,,,,,,None,None,1,001,2021_Oct_15_1319,eeg_contingent_digits,2021.2.3,60.005280464722134,
7.0,1.0,2.0,5.0,,,,,,,,,,,,,,,,,,,,,,,,,,,,,0,0,0,0,0,7,7,7,0,0,0,0,,,,,,,,,,,,,,,,,,,,,,,,,,,,,,,199.87439900000027,None,0.01263689999905182,None,0.4750230999998166,None,0.9584080999993603,None,None,203.35069980000407,None,,,,1,001,2021_Oct_15_1319,eeg_contingent_digits,2021.2.3,60.005280464722134,
7.0,1.0,2.0,5.0,,,,,,,,,,,,,,,,,,,,,,,,,,,,,0,0,0,0,0,7,7,7,1,0,1,0,,,,,,,,,,,,,,,,,,,,,,,,,,,,,,,,,,,,,,,['return'],203.3425836000024,None,[0.31902809999883175],,,1,001,2021_Oct_15_1319,eeg_contingent_digits,2021.2.3,60.005280464722134,
7.0,1.0,2.0,5.0,,,,,,,,,,,,,,,,,,,,,,,,,,,,,0,0,0,0,0,7,7,7,2,0,2,0,,,,,,,,,,,,,,,,,,,,,,,,,,,,,,,,,,,,,,,['return'],203.68441449999955,None,[0.1584322999988217],,,1,001,2021_Oct_15_1319,eeg_contingent_digits,2021.2.3,60.005280464722134,
7.0,1.0,2.0,5.0,,,,,,,,,,,,,,,,,,,,,,,,,,,,,0,0,0,0,0,7,7,7,,,,,,,,,,,,,,,,,,,,,,,,,,,,,,,,,,,,,,,,,,,,,,,None,None,1,001,2021_Oct_15_1319,eeg_contingent_digits,2021.2.3,60.005280464722134,
8.0,2.0,0.0,9.0,,,,,,,,,,,,,,,,,,,,,,,,,,,,,0,0,0,0,0,8,8,8,0,0,0,0,,,,,,,,,,,,,,,,,,,,,,,,,,,,,,,203.86739910000324,None,0.013642049998452421,None,0.49396374999923864,None,0.9604811499957577,None,None,207.3170625500039,None,,,,1,001,2021_Oct_15_1319,eeg_contingent_digits,2021.2.3,60.005280464722134,
8.0,2.0,0.0,9.0,,,,,,,,,,,,,,,,,,,,,,,,,,,,,0,0,0,0,0,8,8,8,1,0,1,0,,,,,,,,,,,,,,,,,,,,,,,,,,,,,,,,,,,,,,,['return'],207.32456049999746,None,[0.42007529999682447],,,1,001,2021_Oct_15_1319,eeg_contingent_digits,2021.2.3,60.005280464722134,
8.0,2.0,0.0,9.0,,,,,,,,,,,,,,,,,,,,,,,,,,,,,0,0,0,0,0,8,8,8,2,0,2,0,,,,,,,,,,,,,,,,,,,,,,,,,,,,,,,,,,,,,,,['return'],207.76723240000138,None,[0.17571800000587245],,,1,001,2021_Oct_15_1319,eeg_contingent_digits,2021.2.3,60.005280464722134,
8.0,2.0,0.0,9.0,,,,,,,,,,,,,,,,,,,,,,,,,,,,,0,0,0,0,0,8,8,8,,,,,,,,,,,,,,,,,,,,,,,,,,,,,,,,,,,,,,,,,,,,,,,None,None,1,001,2021_Oct_15_1319,eeg_contingent_digits,2021.2.3,60.005280464722134,
9.0,0.0,3.0,4.0,,,,,,,,,,,,,,,,,,,,,,,,,,,,,0,0,0,0,0,9,9,9,0,0,0,0,,,,,,,,,,,,,,,,,,,,,,,,,,,,,,,207.9728826999999,None,0.012652400000661146,None,0.4751401000030455,None,0.958433600004355,None,None,211.43340150000148,None,,,,1,001,2021_Oct_15_1319,eeg_contingent_digits,2021.2.3,60.005280464722134,
9.0,0.0,3.0,4.0,,,,,,,,,,,,,,,,,,,,,,,,,,,,,0,0,0,0,0,9,9,9,1,0,1,0,,,,,,,,,,,,,,,,,,,,,,,,,,,,,,,,,,,,,,,['return'],211.42646080000122,None,[0.5451871000041137],,,1,001,2021_Oct_15_1319,eeg_contingent_digits,2021.2.3,60.005280464722134,
9.0,0.0,3.0,4.0,,,,,,,,,,,,,,,,,,,,,,,,,,,,,0,0,0,0,0,9,9,9,2,0,2,0,,,,,,,,,,,,,,,,,,,,,,,,,,,,,,,,,,,,,,,['return'],212.00026090000028,None,[0.30482739999570185],,,1,001,2021_Oct_15_1319,eeg_contingent_digits,2021.2.3,60.005280464722134,
9.0,0.0,3.0,4.0,,,,,,,,,,,,,,,,,,,,,,,,,,,,,0,0,0,0,0,9,9,9,,,,,,,,,,,,,,,,,,,,,,,,,,,,,,,,,,,,,,,,,,,,,,,None,None,1,001,2021_Oct_15_1319,eeg_contingent_digits,2021.2.3,60.005280464722134,
10.0,8.0,2.0,0.0,,,,,,,,,,,,,,,,,,,,,,,,,,,,,0,0,0,0,0,10,10,10,0,0,0,0,,,,,,,,,,,,,,,,,,,,,,,,,,,,,,,212.33902630000375,None,0.01376749999326421,None,0.4979472999984864,None,0.9609369999961928,None,None,215.7996970500004,None,,,,1,001,2021_Oct_15_1319,eeg_contingent_digits,2021.2.3,60.005280464722134,
10.0,8.0,2.0,0.0,,,,,,,,,,,,,,,,,,,,,,,,,,,,,0,0,0,0,0,10,10,10,1,0,1,0,,,,,,,,,,,,,,,,,,,,,,,,,,,,,,,,,,,,,,,['return'],215.80651139999827,None,[0.6344074000007822],,,1,001,2021_Oct_15_1319,eeg_contingent_digits,2021.2.3,60.005280464722134,
10.0,8.0,2.0,0.0,,,,,,,,,,,,,,,,,,,,,,,,,,,,,0,0,0,0,0,10,10,10,2,0,2,0,,,,,,,,,,,,,,,,,,,,,,,,,,,,,,,,,,,,,,,['return'],216.46650190000219,None,[0.34444259999872884],,,1,001,2021_Oct_15_1319,eeg_contingent_digits,2021.2.3,60.005280464722134,
10.0,8.0,2.0,0.0,,,,,,,,,,,,,,,,,,,,,,,,,,,,,0,0,0,0,0,10,10,10,,,,,,,,,,,,,,,,,,,,,,,,,,,,,,,,,,,,,,,,,,,,,,,None,None,1,001,2021_Oct_15_1319,eeg_contingent_digits,2021.2.3,60.005280464722134,
11.0,0.0,4.0,8.0,,,,,,,,,,,,,,,,,,,,,,,,,,,,,0,0,0,0,0,11,11,11,0,0,0,0,,,,,,,,,,,,,,,,,,,,,,,,,,,,,,,216.83908900000097,None,0.013574099997640587,None,0.49347389999456936,None,0.9769218999936129,None,None,220.31590685000046,None,,,,1,001,2021_Oct_15_1319,eeg_contingent_digits,2021.2.3,60.005280464722134,
11.0,0.0,4.0,8.0,,,,,,,,,,,,,,,,,,,,,,,,,,,,,0,0,0,0,0,11,11,11,1,0,1,0,,,,,,,,,,,,,,,,,,,,,,,,,,,,,,,,,,,,,,,['return'],220.31629539999994,None,[0.6700324999983422],,,1,001,2021_Oct_15_1319,eeg_contingent_digits,2021.2.3,60.005280464722134,
11.0,0.0,4.0,8.0,,,,,,,,,,,,,,,,,,,,,,,,,,,,,0,0,0,0,0,11,11,11,2,0,2,0,,,,,,,,,,,,,,,,,,,,,,,,,,,,,,,,,,,,,,,['return'],221.01623729999847,None,[0.4016745000044466],,,1,001,2021_Oct_15_1319,eeg_contingent_digits,2021.2.3,60.005280464722134,
11.0,0.0,4.0,8.0,,,,,,,,,,,,,,,,,,,,,,,,,,,,,0,0,0,0,0,11,11,11,,,,,,,,,,,,,,,,,,,,,,,,,,,,,,,,,,,,,,,,,,,,,,,221.46226420000312,None,1,001,2021_Oct_15_1319,eeg_contingent_digits,2021.2.3,60.005280464722134,
,,,,,,,,,,,,,,,,,,,,,,,,,,,,,,,,0,0,0,0,,,,,,,,,,,,,,,,,,,,,,,,,,,,,,,,,,,,,,,,,,,,,,,,,,,,,1,001,2021_Oct_15_1319,eeg_contingent_digits,2021.2.3,60.005280464722134,
