TrialID,NFB_digit1,NFB_digit2,NFB_digit3,practice_block.thisRepN,practice_block.thisTrialN,practice_block.thisN,practice_block.thisIndex,practice_trials.thisRepN,practice_trials.thisTrialN,practice_trials.thisN,practice_trials.thisIndex,response_practice.thisRepN,response_practice.thisTrialN,response_practice.thisN,response_practice.thisIndex,calibration_block.thisRepN,calibration_block.thisTrialN,calibration_block.thisN,calibration_block.thisIndex,experimental_block.thisRepN,experimental_block.thisTrialN,experimental_block.thisN,experimental_block.thisIndex,exp_trials.thisRepN,exp_trials.thisTrialN,exp_trials.thisN,exp_trials.thisIndex,Digit1_clear.started,Digit1_clear.stopped,Digit2_clear.started,Digit2_clear.stopped,Digit3_clear.started,Digit3_clear.stopped,key_resp_3.keys,key_resp_3.rt,key_resp_3.started,key_resp_3.stopped,text_4.started,text_4.stopped,text_5.started,text_5.stopped,Begin.started,Begin.stopped,participant,session,date,expName,psychopyVersion,frameRate,
0.0,6.0,2.0,4.0,0,0,0,0,0,0,0,0,0,0,0,0,,,,,,,,,,,,,0.00447362000704743,None,0.47471581998979673,None,0.9580155200092122,None,['return'],[0.5252095999894664],28.329308999993373,None,,,,,,,1,001,2021_Oct_20_0937,eeg_contingent_digits,2021.2.3,60.045057815454136,
0.0,6.0,2.0,4.0,0,0,0,0,0,0,0,0,1,0,1,0,,,,,,,,,,,,,,,,,,,['return'],[0.32046009998884983],28.87473250000039,None,,,,,,,1,001,2021_Oct_20_0937,eeg_contingent_digits,2021.2.3,60.045057815454136,
0.0,6.0,2.0,4.0,0,0,0,0,0,0,0,0,2,0,2,0,,,,,,,,,,,,,,,,,,,['return'],[0.3602815000049304],29.224565599986818,None,,,,,,,1,001,2021_Oct_20_0937,eeg_contingent_digits,2021.2.3,60.045057815454136,
0.0,6.0,2.0,4.0,0,0,0,0,0,0,0,0,,,,,,,,,,,,,,,,,,,,,,,,,,,,,,,,,1,001,2021_Oct_20_0937,eeg_contingent_digits,2021.2.3,60.045057815454136,
1.0,1.0,9.0,3.0,0,0,0,0,0,1,1,1,0,0,0,0,,,,,,,,,,,,,0.01568931998917833,None,0.48101682000560686,None,0.9643924199917819,None,['return'],[0.5606245999806561],31.05782660000841,None,,,,,,,1,001,2021_Oct_20_0937,eeg_contingent_digits,2021.2.3,60.045057815454136,
1.0,1.0,9.0,3.0,0,0,0,0,0,1,1,1,1,0,1,0,,,,,,,,,,,,,,,,,,,['return'],[0.31152629997814074],31.641110700002173,None,,,,,,,1,001,2021_Oct_20_0937,eeg_contingent_digits,2021.2.3,60.045057815454136,
1.0,1.0,9.0,3.0,0,0,0,0,0,1,1,1,2,0,2,0,,,,,,,,,,,,,,,,,,,['return'],[0.2887486999970861],31.974326399998972,None,,,,,,,1,001,2021_Oct_20_0937,eeg_contingent_digits,2021.2.3,60.045057815454136,
1.0,1.0,9.0,3.0,0,0,0,0,0,1,1,1,,,,,,,,,,,,,,,,,,,,,,,,,,,,,,,,,1,001,2021_Oct_20_0937,eeg_contingent_digits,2021.2.3,60.045057815454136,
2.0,8.0,0.0,1.0,0,0,0,0,0,2,2,2,0,0,0,0,,,,,,,,,,,,,0.016217719996348023,None,0.4820513199956622,None,0.9680812199949287,None,['return'],[0.14825840000412427],33.728555200010305,None,,,,,,,1,001,2021_Oct_20_0937,eeg_contingent_digits,2021.2.3,60.045057815454136,
2.0,8.0,0.0,1.0,0,0,0,0,0,2,2,2,1,0,1,0,,,,,,,,,,,,,,,,,,,['return'],[0.27478240002528764],33.9076095999917,None,,,,,,,1,001,2021_Oct_20_0937,eeg_contingent_digits,2021.2.3,60.045057815454136,
2.0,8.0,0.0,1.0,0,0,0,0,0,2,2,2,2,0,2,0,,,,,,,,,,,,,,,,,,,['return'],[0.30755719999433495],34.207656499987934,None,,,,,,,1,001,2021_Oct_20_0937,eeg_contingent_digits,2021.2.3,60.045057815454136,
2.0,8.0,0.0,1.0,0,0,0,0,0,2,2,2,,,,,,,,,,,,,,,,,,,,,,,,,,,,,,,,,1,001,2021_Oct_20_0937,eeg_contingent_digits,2021.2.3,60.045057815454136,
3.0,9.0,6.0,1.0,0,0,0,0,0,3,3,3,0,0,0,0,,,,,,,,,,,,,0.004229059995850548,None,0.47520796000026166,None,0.9584837599832099,None,['return'],[0.03796560000046156],35.99082420000923,None,,,,,,,1,001,2021_Oct_20_0937,eeg_contingent_digits,2021.2.3,60.045057815454136,
3.0,9.0,6.0,1.0,0,0,0,0,0,3,3,3,1,0,1,0,,,,,,,,,,,,,,,,,,,['return'],[0.28928220001398586],36.0574374999851,None,,,,,,,1,001,2021_Oct_20_0937,eeg_contingent_digits,2021.2.3,60.045057815454136,
3.0,9.0,6.0,1.0,0,0,0,0,0,3,3,3,2,0,2,0,,,,,,,,,,,,,,,,,,,['return'],[0.27129440000862814],36.37392449998879,None,,,,,,,1,001,2021_Oct_20_0937,eeg_contingent_digits,2021.2.3,60.045057815454136,
3.0,9.0,6.0,1.0,0,0,0,0,0,3,3,3,,,,,,,,,,,,,,,,,,,,,,,,,,,,,,,,,1,001,2021_Oct_20_0937,eeg_contingent_digits,2021.2.3,60.045057815454136,
4.0,8.0,1.0,5.0,0,0,0,0,0,4,4,4,0,0,0,0,,,,,,,,,,,,,8.659990271553397e-06,None,0.46659485998679884,None,0.949951759976102,None,['return'],[0.5631418999982998],38.127072100003716,None,,,,,,,1,001,2021_Oct_20_0937,eeg_contingent_digits,2021.2.3,60.045057815454136,
4.0,8.0,1.0,5.0,0,0,0,0,0,4,4,4,1,0,1,0,,,,,,,,,,,,,,,,,,,['return'],[0.27809579999302514],38.70705120000639,None,,,,,,,1,001,2021_Oct_20_0937,eeg_contingent_digits,2021.2.3,60.045057815454136,
4.0,8.0,1.0,5.0,0,0,0,0,0,4,4,4,2,0,2,0,,,,,,,,,,,,,,,,,,,['return'],[0.7159868000017013],39.00703020000947,None,,,,,,,1,001,2021_Oct_20_0937,eeg_contingent_digits,2021.2.3,60.045057815454136,
4.0,8.0,1.0,5.0,0,0,0,0,0,4,4,4,,,,,,,,,,,,,,,,,,,,,,,,,,,,,,,,,1,001,2021_Oct_20_0937,eeg_contingent_digits,2021.2.3,60.045057815454136,
5.0,4.0,1.0,0.0,0,0,0,0,0,5,5,5,0,0,0,0,,,,,,,,,,,,,0.01450862005003728,None,0.49841712004854344,None,0.9621293200470973,None,['return'],[0.1961748999892734],41.1904355000006,None,,,,,,,1,001,2021_Oct_20_0937,eeg_contingent_digits,2021.2.3,60.045057815454136,
5.0,4.0,1.0,0.0,0,0,0,0,0,5,5,5,1,0,1,0,,,,,,,,,,,,,,,,,,,['return'],[0.23929500000667758],41.406955999991624,None,,,,,,,1,001,2021_Oct_20_0937,eeg_contingent_digits,2021.2.3,60.045057815454136,
5.0,4.0,1.0,0.0,0,0,0,0,0,5,5,5,2,0,2,0,,,,,,,,,,,,,,,,,,,['return'],[0.27402470001834445],41.67364930000622,None,,,,,,,1,001,2021_Oct_20_0937,eeg_contingent_digits,2021.2.3,60.045057815454136,
5.0,4.0,1.0,0.0,0,0,0,0,0,5,5,5,,,,,,,,,,,,,,,,,,,,,,,,,,,,,,,,,1,001,2021_Oct_20_0937,eeg_contingent_digits,2021.2.3,60.045057815454136,
6.0,9.0,2.0,6.0,0,0,0,0,0,6,6,6,0,0,0,0,,,,,,,,,,,,,0.015792219986906275,None,0.4816580199985765,None,0.9650061199790798,None,['return'],[0.16289969999343157],43.42359230000875,None,,,,,,,1,001,2021_Oct_20_0937,eeg_contingent_digits,2021.2.3,60.045057815454136,
6.0,9.0,2.0,6.0,0,0,0,0,0,6,6,6,1,0,1,0,,,,,,,,,,,,,,,,,,,['return'],[0.2294778000214137],43.60683499998413,None,,,,,,,1,001,2021_Oct_20_0937,eeg_contingent_digits,2021.2.3,60.045057815454136,
6.0,9.0,2.0,6.0,0,0,0,0,0,6,6,6,2,0,2,0,,,,,,,,,,,,,,,,,,,['return'],[0.2911601999949198],43.85654149999027,None,,,,,,,1,001,2021_Oct_20_0937,eeg_contingent_digits,2021.2.3,60.045057815454136,
6.0,9.0,2.0,6.0,0,0,0,0,0,6,6,6,,,,,,,,,,,,,,,,,,,,,,,,,,,,,,,,,1,001,2021_Oct_20_0937,eeg_contingent_digits,2021.2.3,60.045057815454136,
7.0,2.0,3.0,0.0,0,0,0,0,0,7,7,7,0,0,0,0,,,,,,,,,,,,,0.016376320010749623,None,0.5010694199881982,None,0.9658314200059976,None,['return'],[0.37200709999888204],45.62634660000913,None,,,,,,,1,001,2021_Oct_20_0937,eeg_contingent_digits,2021.2.3,60.045057815454136,
7.0,2.0,3.0,0.0,0,0,0,0,0,7,7,7,1,0,1,0,,,,,,,,,,,,,,,,,,,['return'],[0.23089310000068508],46.02339829999255,None,,,,,,,1,001,2021_Oct_20_0937,eeg_contingent_digits,2021.2.3,60.045057815454136,
7.0,2.0,3.0,0.0,0,0,0,0,0,7,7,7,2,0,2,0,,,,,,,,,,,,,,,,,,,['return'],[0.24467970000114292],46.27315739999176,None,,,,,,,1,001,2021_Oct_20_0937,eeg_contingent_digits,2021.2.3,60.045057815454136,
7.0,2.0,3.0,0.0,0,0,0,0,0,7,7,7,,,,,,,,,,,,,,,,,,,,,,,,,,,,,,,,,1,001,2021_Oct_20_0937,eeg_contingent_digits,2021.2.3,60.045057815454136,
8.0,1.0,9.0,2.0,0,0,0,0,0,8,8,8,0,0,0,0,,,,,,,,,,,,,0.01581982002244331,None,0.48140722000971437,None,0.9646773200074676,None,['return'],[0.3575816999946255],47.998146600002656,None,,,,,,,1,001,2021_Oct_20_0937,eeg_contingent_digits,2021.2.3,60.045057815454136,
8.0,1.0,9.0,2.0,0,0,0,0,0,8,8,8,1,0,1,0,,,,,,,,,,,,,,,,,,,['return'],[0.23668250002083369],48.37305120000383,None,,,,,,,1,001,2021_Oct_20_0937,eeg_contingent_digits,2021.2.3,60.045057815454136,
8.0,1.0,9.0,2.0,0,0,0,0,0,8,8,8,2,0,2,0,,,,,,,,,,,,,,,,,,,['return'],[0.24616340000648052],48.6398676999961,None,,,,,,,1,001,2021_Oct_20_0937,eeg_contingent_digits,2021.2.3,60.045057815454136,
8.0,1.0,9.0,2.0,0,0,0,0,0,8,8,8,,,,,,,,,,,,,,,,,,,,,,,,,,,,,,,,,1,001,2021_Oct_20_0937,eeg_contingent_digits,2021.2.3,60.045057815454136,
9.0,8.0,1.0,0.0,0,0,0,0,0,9,9,9,0,0,0,0,,,,,,,,,,,,,0.016562820004764944,None,0.48307362000923604,None,0.9852010200265795,None,['return'],[0.3352530999982264],50.35979009998846,None,,,,,,,1,001,2021_Oct_20_0937,eeg_contingent_digits,2021.2.3,60.045057815454136,
9.0,8.0,1.0,0.0,0,0,0,0,0,9,9,9,1,0,1,0,,,,,,,,,,,,,,,,,,,['return'],[0.23123429997940548],50.72292359999847,None,,,,,,,1,001,2021_Oct_20_0937,eeg_contingent_digits,2021.2.3,60.045057815454136,
9.0,8.0,1.0,0.0,0,0,0,0,0,9,9,9,2,0,2,0,,,,,,,,,,,,,,,,,,,['return'],[0.22826789997634478],50.972796799993375,None,,,,,,,1,001,2021_Oct_20_0937,eeg_contingent_digits,2021.2.3,60.045057815454136,
9.0,8.0,1.0,0.0,0,0,0,0,0,9,9,9,,,,,,,,,,,,,,,,,,,,,,,,,,,,,,,,,1,001,2021_Oct_20_0937,eeg_contingent_digits,2021.2.3,60.045057815454136,
,,,,0,0,0,0,,,,,,,,,,,,,,,,,,,,,,,,,,,,,,,51.22311739998986,None,,,,,1,001,2021_Oct_20_0937,eeg_contingent_digits,2021.2.3,60.045057815454136,
,,,,,,,,,,,,,,,,0,0,0,0,,,,,,,,,,,,,,,,,,,,,66.22515769998427,None,,,1,001,2021_Oct_20_0937,eeg_contingent_digits,2021.2.3,60.045057815454136,
,,,,,,,,,,,,,,,,,,,,,,,,,,,,,,,,,,,,,,,,,,76.23907680000411,None,,,,,,,
