TrialID,NFB_digit1,NFB_digit2,NFB_digit3,Speaker_trial,NV_trial,Triggered_trial,Jitter_trial,practice_block.thisRepN,practice_block.thisTrialN,practice_block.thisN,practice_block.thisIndex,practice_trials.thisRepN,practice_trials.thisTrialN,practice_trials.thisN,practice_trials.thisIndex,response_practice.thisRepN,response_practice.thisTrialN,response_practice.thisN,response_practice.thisIndex,calibration_block.thisRepN,calibration_block.thisTrialN,calibration_block.thisN,calibration_block.thisIndex,exp_trials.thisRepN,exp_trials.thisTrialN,exp_trials.thisN,exp_trials.thisIndex,response_exp.thisRepN,response_exp.thisTrialN,response_exp.thisN,response_exp.thisIndex,Digit1_clear.started,Digit1_clear.stopped,Digit2_clear.started,Digit2_clear.stopped,Digit3_clear.started,Digit3_clear.stopped,response_practice_resp.keys,response_practice_resp.rt,response_practice_resp.started,response_practice_resp.stopped,text_practice_repeat.started,text_practice_repeat.stopped,text.started,text.stopped,text_calibration_repeat.started,text_calibration_repeat.stopped,text_break.started,text_break.stopped,Fixation.started,Fixation.stopped,text_6.started,text_6.stopped,Fixation_Play.started,Fixation_Play.stopped,sound_digit1.started,sound_digit1.stopped,sound_digit2.started,sound_digit2.stopped,sound_digit3.started,sound_digit3.stopped,key_resp.keys,key_resp.rt,key_resp.started,key_resp.stopped,text_nextblock.started,text_nextblock.stopped,response_nextblock.keys,response_nextblock.started,response_nextblock.stopped,response_nextblock.rt,participant,session,date,expName,psychopyVersion,frameRate,
0.0,6.0,2.0,4.0,33.0,,,,0,0,0,0,0,0,0,0,0,0,0,0,,,,,,,,,,,,,0.014129940000202623,None,0.49474134000047343,None,0.9612108399996941,None,['return'],[0.1508254999989731],23.854659699998592,None,,,,,,,,,,,,,,,,,,,,,,,,,,,,,,,1,001,2021_Nov_09_1132,eeg_contingent_digits,2021.2.3,60.02671188687918,
0.0,6.0,2.0,4.0,33.0,,,,0,0,0,0,0,0,0,0,1,0,1,0,,,,,,,,,,,,,,,,,,,['return'],[0.1669642999986536],24.054608099999314,None,,,,,,,,,,,,,,,,,,,,,,,,,,,,,,,1,001,2021_Nov_09_1132,eeg_contingent_digits,2021.2.3,60.02671188687918,
0.0,6.0,2.0,4.0,33.0,,,,0,0,0,0,0,0,0,0,2,0,2,0,,,,,,,,,,,,,,,,,,,['return'],[0.19901049999862153],24.25449849999859,None,,,,,,,,,,,,,,,,,,,,,,,,,,,,,,,1,001,2021_Nov_09_1132,eeg_contingent_digits,2021.2.3,60.02671188687918,
0.0,6.0,2.0,4.0,33.0,,,,0,0,0,0,0,0,0,0,,,,,,,,,,,,,,,,,,,,,,,,,,,,,,,,,,,,,,,,,,,,,,,,,,,,,,,,,1,001,2021_Nov_09_1132,eeg_contingent_digits,2021.2.3,60.02671188687918,
,,,,,,,,0,0,0,0,,,,,,,,,,,,,,,,,,,,,,,,,,,,,,,24.487745200000063,None,,,,,,,,,,,,,,,,,,,,,,,,,,,,,1,001,2021_Nov_09_1132,eeg_contingent_digits,2021.2.3,60.02671188687918,
,,,,,,,,,,,,,,,,,,,,0,0,0,0,,,,,,,,,,,,,,,,,,,,,26.920179499998994,None,47.329097799998635,None,,,,,,,,,,,,,,,,,,,,,,,,,1,001,2021_Nov_09_1132,eeg_contingent_digits,2021.2.3,60.02671188687918,
0.0,9.0,8.0,6.0,21.0,1.0,1.0,0.0,,,,,,,,,,,,,,,,,0,0,0,0,0,0,0,0,,,,,,,,,,,,,,,,,48.79520769999908,None,49.611576799999966,None,49.611576799999966,None,77.73425979999956,79.13372449999952,0.007137749998946674,None,0.4808470499992836,None,0.9638880499987863,None,['return'],[1.237396999998964],79.1836878999984,None,,,,,,,1,001,2021_Nov_09_1132,eeg_contingent_digits,2021.2.3,60.02671188687918,
0.0,9.0,8.0,6.0,21.0,1.0,1.0,0.0,,,,,,,,,,,,,,,,,0,0,0,0,1,0,1,0,,,,,,,,,,,,,,,,,,,,,,,,,,,,,,,['return'],[0.22664760000043316],80.46645549999994,None,,,,,,,1,001,2021_Nov_09_1132,eeg_contingent_digits,2021.2.3,60.02671188687918,
0.0,9.0,8.0,6.0,21.0,1.0,1.0,0.0,,,,,,,,,,,,,,,,,0,0,0,0,2,0,2,0,,,,,,,,,,,,,,,,,,,,,,,,,,,,,,,['return'],[0.20000179999988177],80.73310919999858,None,,,,,,,1,001,2021_Nov_09_1132,eeg_contingent_digits,2021.2.3,60.02671188687918,
0.0,9.0,8.0,6.0,21.0,1.0,1.0,0.0,,,,,,,,,,,,,,,,,0,0,0,0,,,,,,,,,,,,,,,,,,,,,,,,,,,,,,,,,,,,,,,None,None,None,None,None,,1,001,2021_Nov_09_1132,eeg_contingent_digits,2021.2.3,60.02671188687918,
1.0,2.0,4.0,8.0,33.0,1.0,0.0,-2.0,,,,,,,,,,,,,,,,,0,1,1,1,0,0,0,0,,,,,,,,,,,,,,,,,,,80.98308759999964,None,80.98308759999964,None,84.0819150999996,85.48131139999896,0.014463450001130695,None,0.4954356500002177,None,0.9619327500004147,None,['return'],[0.70569389999946],85.53135189999921,None,,,,,,,1,001,2021_Nov_09_1132,eeg_contingent_digits,2021.2.3,60.02671188687918,
1.0,2.0,4.0,8.0,33.0,1.0,0.0,-2.0,,,,,,,,,,,,,,,,,0,1,1,1,1,0,1,0,,,,,,,,,,,,,,,,,,,,,,,,,,,,,,,['return'],[0.1961393000001408],86.28089009999894,None,,,,,,,1,001,2021_Nov_09_1132,eeg_contingent_digits,2021.2.3,60.02671188687918,
1.0,2.0,4.0,8.0,33.0,1.0,0.0,-2.0,,,,,,,,,,,,,,,,,0,1,1,1,2,0,2,0,,,,,,,,,,,,,,,,,,,,,,,,,,,,,,,['return'],[0.17878060000111873],86.51426509999874,None,,,,,,,1,001,2021_Nov_09_1132,eeg_contingent_digits,2021.2.3,60.02671188687918,
1.0,2.0,4.0,8.0,33.0,1.0,0.0,-2.0,,,,,,,,,,,,,,,,,0,1,1,1,,,,,,,,,,,,,,,,,,,,,,,,,,,,,,,,,,,,,,,None,None,None,None,None,,1,001,2021_Nov_09_1132,eeg_contingent_digits,2021.2.3,60.02671188687918,
2.0,2.0,8.0,4.0,49.0,1.0,1.0,0.0,,,,,,,,,,,,,,,,,0,2,2,2,0,0,0,0,,,,,,,,,,,,,,,,,,,86.74750379999932,None,86.74750379999932,None,100.52564579999853,101.92507859999932,0.0040108800003508804,None,0.49112377999881573,None,0.9743006799999421,None,['return'],[0.5178041999988636],101.9751182,None,,,,,,,1,001,2021_Nov_09_1132,eeg_contingent_digits,2021.2.3,60.02671188687918,
2.0,2.0,8.0,4.0,49.0,1.0,1.0,0.0,,,,,,,,,,,,,,,,,0,2,2,2,1,0,1,0,,,,,,,,,,,,,,,,,,,,,,,,,,,,,,,['return'],[0.18410279999989143],102.52477589999944,None,,,,,,,1,001,2021_Nov_09_1132,eeg_contingent_digits,2021.2.3,60.02671188687918,
2.0,2.0,8.0,4.0,49.0,1.0,1.0,0.0,,,,,,,,,,,,,,,,,0,2,2,2,2,0,2,0,,,,,,,,,,,,,,,,,,,,,,,,,,,,,,,['return'],[0.18353550000028918],102.74143019999974,None,,,,,,,1,001,2021_Nov_09_1132,eeg_contingent_digits,2021.2.3,60.02671188687918,
2.0,2.0,8.0,4.0,49.0,1.0,1.0,0.0,,,,,,,,,,,,,,,,,0,2,2,2,,,,,,,,,,,,,,,,,,,,,,,,,,,,,,,,,,,,,,,None,None,None,None,None,,1,001,2021_Nov_09_1132,eeg_contingent_digits,2021.2.3,60.02671188687918,
3.0,9.0,8.0,8.0,14.0,1.0,0.0,-1.0,,,,,,,,,,,,,,,,,0,3,3,3,0,0,0,0,,,,,,,,,,,,,,,,,,,102.97473009999885,None,102.97473009999885,None,107.05646989999877,108.4559362,0.014086150000366615,None,0.49470875000042724,None,0.9778380499992636,None,['return'],[0.3949090000005526],108.50591839999834,None,,,,,,,1,001,2021_Nov_09_1132,eeg_contingent_digits,2021.2.3,60.02671188687918,
3.0,9.0,8.0,8.0,14.0,1.0,0.0,-1.0,,,,,,,,,,,,,,,,,0,3,3,3,1,0,1,0,,,,,,,,,,,,,,,,,,,,,,,,,,,,,,,['return'],[0.15368190000117465],108.93918129999838,None,,,,,,,1,001,2021_Nov_09_1132,eeg_contingent_digits,2021.2.3,60.02671188687918,
3.0,9.0,8.0,8.0,14.0,1.0,0.0,-1.0,,,,,,,,,,,,,,,,,0,3,3,3,2,0,2,0,,,,,,,,,,,,,,,,,,,,,,,,,,,,,,,['return'],[0.13790049999988696],109.13900819999981,None,,,,,,,1,001,2021_Nov_09_1132,eeg_contingent_digits,2021.2.3,60.02671188687918,
3.0,9.0,8.0,8.0,14.0,1.0,0.0,-1.0,,,,,,,,,,,,,,,,,0,3,3,3,,,,,,,,,,,,,,,,,,,,,,,,,,,,,,,,,,,,,,,None,None,None,None,None,,1,001,2021_Nov_09_1132,eeg_contingent_digits,2021.2.3,60.02671188687918,
4.0,5.0,1.0,9.0,48.0,1.0,1.0,0.0,,,,,,,,,,,,,,,,,0,4,4,4,0,0,0,0,,,,,,,,,,,,,,,,,,,109.33898489999956,None,109.33898489999956,None,111.40488469999946,112.80428969999957,0.011401050000131363,None,0.4893851500000892,None,0.9724768500000209,None,['return'],[0.4545061999997415],112.85429459999978,None,,,,,,,1,001,2021_Nov_09_1132,eeg_contingent_digits,2021.2.3,60.02671188687918,
4.0,5.0,1.0,9.0,48.0,1.0,1.0,0.0,,,,,,,,,,,,,,,,,0,4,4,4,1,0,1,0,,,,,,,,,,,,,,,,,,,,,,,,,,,,,,,['return'],[0.1547339999997348],113.3540598999989,None,,,,,,,1,001,2021_Nov_09_1132,eeg_contingent_digits,2021.2.3,60.02671188687918,
4.0,5.0,1.0,9.0,48.0,1.0,1.0,0.0,,,,,,,,,,,,,,,,,0,4,4,4,2,0,2,0,,,,,,,,,,,,,,,,,,,,,,,,,,,,,,,['return'],[0.1388583000007202],113.55401689999962,None,,,,,,,1,001,2021_Nov_09_1132,eeg_contingent_digits,2021.2.3,60.02671188687918,
4.0,5.0,1.0,9.0,48.0,1.0,1.0,0.0,,,,,,,,,,,,,,,,,0,4,4,4,,,,,,,,,,,,,,,,,,,,,,,,,,,,,,,,,,,,,,,None,None,None,None,None,,1,001,2021_Nov_09_1132,eeg_contingent_digits,2021.2.3,60.02671188687918,
5.0,5.0,6.0,6.0,49.0,1.0,0.0,-1.0,,,,,,,,,,,,,,,,,0,5,5,5,0,0,0,0,,,,,,,,,,,,,,,,,,,113.75393899999835,None,113.75393899999835,None,115.81982049999897,117.2193505999985,0.014052250000531785,None,0.4945669500011718,None,0.9778075499998522,None,['return'],[0.37549070000022766],117.26932619999934,None,,,,,,,1,001,2021_Nov_09_1132,eeg_contingent_digits,2021.2.3,60.02671188687918,
5.0,5.0,6.0,6.0,49.0,1.0,0.0,-1.0,,,,,,,,,,,,,,,,,0,5,5,5,1,0,1,0,,,,,,,,,,,,,,,,,,,,,,,,,,,,,,,['return'],[0.16706650000014633],117.68572729999869,None,,,,,,,1,001,2021_Nov_09_1132,eeg_contingent_digits,2021.2.3,60.02671188687918,
5.0,5.0,6.0,6.0,49.0,1.0,0.0,-1.0,,,,,,,,,,,,,,,,,0,5,5,5,2,0,2,0,,,,,,,,,,,,,,,,,,,,,,,,,,,,,,,['return'],[0.1424182999999175],117.9023701999995,None,,,,,,,1,001,2021_Nov_09_1132,eeg_contingent_digits,2021.2.3,60.02671188687918,
5.0,5.0,6.0,6.0,49.0,1.0,0.0,-1.0,,,,,,,,,,,,,,,,,0,5,5,5,,,,,,,,,,,,,,,,,,,,,,,,,,,,,,,,,,,,,,,None,None,None,None,None,,1,001,2021_Nov_09_1132,eeg_contingent_digits,2021.2.3,60.02671188687918,
6.0,2.0,1.0,8.0,1.0,1.0,1.0,0.0,,,,,,,,,,,,,,,,,0,6,6,6,0,0,0,0,,,,,,,,,,,,,,,,,,,118.10234049999963,None,118.10234049999963,None,126.18255719999979,127.58209039999929,0.012952209999639308,None,0.47584671000004164,None,0.9589520099998481,None,['return'],[0.5006770999989385],127.63201209999897,None,,,,,,,1,001,2021_Nov_09_1132,eeg_contingent_digits,2021.2.3,60.02671188687918,
6.0,2.0,1.0,8.0,1.0,1.0,1.0,0.0,,,,,,,,,,,,,,,,,0,6,6,6,1,0,1,0,,,,,,,,,,,,,,,,,,,,,,,,,,,,,,,['return'],[0.16753310000058264],128.16513979999945,None,,,,,,,1,001,2021_Nov_09_1132,eeg_contingent_digits,2021.2.3,60.02671188687918,
6.0,2.0,1.0,8.0,1.0,1.0,1.0,0.0,,,,,,,,,,,,,,,,,0,6,6,6,2,0,2,0,,,,,,,,,,,,,,,,,,,,,,,,,,,,,,,['return'],[0.15964789999998175],128.36505459999898,None,,,,,,,1,001,2021_Nov_09_1132,eeg_contingent_digits,2021.2.3,60.02671188687918,
6.0,2.0,1.0,8.0,1.0,1.0,1.0,0.0,,,,,,,,,,,,,,,,,0,6,6,6,,,,,,,,,,,,,,,,,,,,,,,,,,,,,,,,,,,,,,,None,None,None,None,None,,1,001,2021_Nov_09_1132,eeg_contingent_digits,2021.2.3,60.02671188687918,
7.0,2.0,1.0,4.0,61.0,1.0,0.0,-0.0,,,,,,,,,,,,,,,,,0,7,7,7,0,0,0,0,,,,,,,,,,,,,,,,,,,128.5816481999991,None,128.5816481999991,None,136.69531729999835,138.09474640000008,0.010050839999166783,None,0.4866619399999763,None,0.9697955399988132,None,['return'],[0.41993989999900805],138.14468879999913,None,,,,,,,1,001,2021_Nov_09_1132,eeg_contingent_digits,2021.2.3,60.02671188687918,
7.0,2.0,1.0,4.0,61.0,1.0,0.0,-0.0,,,,,,,,,,,,,,,,,0,7,7,7,1,0,1,0,,,,,,,,,,,,,,,,,,,,,,,,,,,,,,,['return'],[0.16153060000033292],138.6111089999995,None,,,,,,,1,001,2021_Nov_09_1132,eeg_contingent_digits,2021.2.3,60.02671188687918,
7.0,2.0,1.0,4.0,61.0,1.0,0.0,-0.0,,,,,,,,,,,,,,,,,0,7,7,7,2,0,2,0,,,,,,,,,,,,,,,,,,,,,,,,,,,,,,,['return'],[0.14542119999896386],138.81117169999925,None,,,,,,,1,001,2021_Nov_09_1132,eeg_contingent_digits,2021.2.3,60.02671188687918,
7.0,2.0,1.0,4.0,61.0,1.0,0.0,-0.0,,,,,,,,,,,,,,,,,0,7,7,7,,,,,,,,,,,,,,,,,,,,,,,,,,,,,,,,,,,,,,,139.06106240000008,None,return,139.06106240000008,None,1.1835489999994024,1,001,2021_Nov_09_1132,eeg_contingent_digits,2021.2.3,60.02671188687918,
8.0,8.0,0.0,4.0,33.0,1.0,1.0,0.0,,,,,,,,,,,,,,,,,0,8,8,8,0,0,0,0,,,,,,,,,,,,,,,,,,,140.27723089999927,None,140.27723089999927,None,143.59264829999847,144.9920979999988,0.006305550001343363,None,0.47912875000110944,None,0.9623270500014769,None,['return'],[0.5225016999993386],145.04208349999863,None,,,,,,,1,001,2021_Nov_09_1132,eeg_contingent_digits,2021.2.3,60.02671188687918,
8.0,8.0,0.0,4.0,33.0,1.0,1.0,0.0,,,,,,,,,,,,,,,,,0,8,8,8,1,0,1,0,,,,,,,,,,,,,,,,,,,,,,,,,,,,,,,['return'],[0.1641178999998374],145.6084226999992,None,,,,,,,1,001,2021_Nov_09_1132,eeg_contingent_digits,2021.2.3,60.02671188687918,
8.0,8.0,0.0,4.0,33.0,1.0,1.0,0.0,,,,,,,,,,,,,,,,,0,8,8,8,2,0,2,0,,,,,,,,,,,,,,,,,,,,,,,,,,,,,,,['return'],[0.15608939999947324],145.80845299999964,None,,,,,,,1,001,2021_Nov_09_1132,eeg_contingent_digits,2021.2.3,60.02671188687918,
8.0,8.0,0.0,4.0,33.0,1.0,1.0,0.0,,,,,,,,,,,,,,,,,0,8,8,8,,,,,,,,,,,,,,,,,,,,,,,,,,,,,,,,,,,,,,,None,None,None,None,None,,1,001,2021_Nov_09_1132,eeg_contingent_digits,2021.2.3,60.02671188687918,
9.0,9.0,0.0,4.0,13.0,1.0,0.0,2.0,,,,,,,,,,,,,,,,,0,9,9,9,0,0,0,0,,,,,,,,,,,,,,,,,,,146.02518129999953,None,146.02518129999953,None,151.40634019999925,152.8058175999995,0.0016340800011676038,None,0.48646178000126383,None,0.9695858800005226,None,['return'],[1.5406216999999742],152.85580200000004,None,,,,,,,1,001,2021_Nov_09_1132,eeg_contingent_digits,2021.2.3,60.02671188687918,
9.0,9.0,0.0,4.0,13.0,1.0,0.0,2.0,,,,,,,,,,,,,,,,,0,9,9,9,1,0,1,0,,,,,,,,,,,,,,,,,,,,,,,,,,,,,,,['return'],[0.1659192000006442],154.43851209999957,None,,,,,,,1,001,2021_Nov_09_1132,eeg_contingent_digits,2021.2.3,60.02671188687918,
9.0,9.0,0.0,4.0,13.0,1.0,0.0,2.0,,,,,,,,,,,,,,,,,0,9,9,9,2,0,2,0,,,,,,,,,,,,,,,,,,,,,,,,,,,,,,,['return'],[0.1500317999998515],154.63844040000004,None,,,,,,,1,001,2021_Nov_09_1132,eeg_contingent_digits,2021.2.3,60.02671188687918,
9.0,9.0,0.0,4.0,13.0,1.0,0.0,2.0,,,,,,,,,,,,,,,,,0,9,9,9,,,,,,,,,,,,,,,,,,,,,,,,,,,,,,,,,,,,,,,None,None,None,None,None,,1,001,2021_Nov_09_1132,eeg_contingent_digits,2021.2.3,60.02671188687918,
10.0,2.0,0.0,8.0,1.0,1.0,1.0,0.0,,,,,,,,,,,,,,,,,0,10,10,10,0,0,0,0,,,,,,,,,,,,,,,,,,,154.8383733999999,None,154.8383733999999,None,162.35222809999868,163.75168249999842,0.0032047799995780224,None,0.4895379800000228,None,0.9727395800000522,None,['return'],[0.8586673000008886],163.8016553999987,None,,,,,,,1,001,2021_Nov_09_1132,eeg_contingent_digits,2021.2.3,60.02671188687918,
10.0,2.0,0.0,8.0,1.0,1.0,1.0,0.0,,,,,,,,,,,,,,,,,0,10,10,10,1,0,1,0,,,,,,,,,,,,,,,,,,,,,,,,,,,,,,,['return'],[0.17502179999974032],164.70134289999987,None,,,,,,,1,001,2021_Nov_09_1132,eeg_contingent_digits,2021.2.3,60.02671188687918,
10.0,2.0,0.0,8.0,1.0,1.0,1.0,0.0,,,,,,,,,,,,,,,,,0,10,10,10,2,0,2,0,,,,,,,,,,,,,,,,,,,,,,,,,,,,,,,['return'],[0.1504743999994389],164.91787399999885,None,,,,,,,1,001,2021_Nov_09_1132,eeg_contingent_digits,2021.2.3,60.02671188687918,
10.0,2.0,0.0,8.0,1.0,1.0,1.0,0.0,,,,,,,,,,,,,,,,,0,10,10,10,,,,,,,,,,,,,,,,,,,,,,,,,,,,,,,,,,,,,,,None,None,None,None,None,,1,001,2021_Nov_09_1132,eeg_contingent_digits,2021.2.3,60.02671188687918,
11.0,2.0,0.0,3.0,21.0,1.0,0.0,-1.0,,,,,,,,,,,,,,,,,0,11,11,11,0,0,0,0,,,,,,,,,,,,,,,,,,,165.11783279999872,None,165.11783279999872,None,171.69865539999955,173.09815759999947,0.01610804999836546,None,0.4987355499979458,None,0.9820181499981118,None,['return'],[0.5761232000004384],173.1481292999997,None,,,,,,,1,001,2021_Nov_09_1132,eeg_contingent_digits,2021.2.3,60.02671188687918,
11.0,2.0,0.0,3.0,21.0,1.0,0.0,-1.0,,,,,,,,,,,,,,,,,0,11,11,11,1,0,1,0,,,,,,,,,,,,,,,,,,,,,,,,,,,,,,,['return'],[0.15974370000003546],173.76453589999983,None,,,,,,,1,001,2021_Nov_09_1132,eeg_contingent_digits,2021.2.3,60.02671188687918,
11.0,2.0,0.0,3.0,21.0,1.0,0.0,-1.0,,,,,,,,,,,,,,,,,0,11,11,11,2,0,2,0,,,,,,,,,,,,,,,,,,,,,,,,,,,,,,,['return'],[0.15181850000044506],173.96444669999983,None,,,,,,,1,001,2021_Nov_09_1132,eeg_contingent_digits,2021.2.3,60.02671188687918,
11.0,2.0,0.0,3.0,21.0,1.0,0.0,-1.0,,,,,,,,,,,,,,,,,0,11,11,11,,,,,,,,,,,,,,,,,,,,,,,,,,,,,,,,,,,,,,,None,None,None,None,None,,1,001,2021_Nov_09_1132,eeg_contingent_digits,2021.2.3,60.02671188687918,
12.0,3.0,4.0,8.0,14.0,1.0,1.0,0.0,,,,,,,,,,,,,,,,,0,12,12,12,0,0,0,0,,,,,,,,,,,,,,,,,,,174.18109969999932,None,174.18109969999932,None,178.16289150000011,179.56234999999833,0.00410777999968559,None,0.4914549799996166,None,0.9745445799999288,None,['return'],[0.5365154999999504],179.59568109999964,None,,,,,,,1,001,2021_Nov_09_1132,eeg_contingent_digits,2021.2.3,60.02671188687918,
12.0,3.0,4.0,8.0,14.0,1.0,1.0,0.0,,,,,,,,,,,,,,,,,0,12,12,12,1,0,1,0,,,,,,,,,,,,,,,,,,,,,,,,,,,,,,,['return'],[0.16937440000037896],180.17882909999935,None,,,,,,,1,001,2021_Nov_09_1132,eeg_contingent_digits,2021.2.3,60.02671188687918,
12.0,3.0,4.0,8.0,14.0,1.0,1.0,0.0,,,,,,,,,,,,,,,,,0,12,12,12,2,0,2,0,,,,,,,,,,,,,,,,,,,,,,,,,,,,,,,['return'],[0.15279000000009546],180.39539629999854,None,,,,,,,1,001,2021_Nov_09_1132,eeg_contingent_digits,2021.2.3,60.02671188687918,
12.0,3.0,4.0,8.0,14.0,1.0,1.0,0.0,,,,,,,,,,,,,,,,,0,12,12,12,,,,,,,,,,,,,,,,,,,,,,,,,,,,,,,,,,,,,,,None,None,None,None,None,,1,001,2021_Nov_09_1132,eeg_contingent_digits,2021.2.3,60.02671188687918,
13.0,3.0,1.0,9.0,7.0,1.0,0.0,-1.0,,,,,,,,,,,,,,,,,0,13,13,13,0,0,0,0,,,,,,,,,,,,,,,,,,,180.61196070000005,None,180.61196070000005,None,183.66086529999848,185.06028199999855,0.0021482799984369194,None,0.4875464799988549,None,0.9706486799987033,None,['return'],[0.7659430999992765],185.11025979999977,None,,,,,,,1,001,2021_Nov_09_1132,eeg_contingent_digits,2021.2.3,60.02671188687918,
13.0,3.0,1.0,9.0,7.0,1.0,0.0,-1.0,,,,,,,,,,,,,,,,,0,13,13,13,1,0,1,0,,,,,,,,,,,,,,,,,,,,,,,,,,,,,,,['return'],[0.17424500000015541],185.9099460999987,None,,,,,,,1,001,2021_Nov_09_1132,eeg_contingent_digits,2021.2.3,60.02671188687918,
13.0,3.0,1.0,9.0,7.0,1.0,0.0,-1.0,,,,,,,,,,,,,,,,,0,13,13,13,2,0,2,0,,,,,,,,,,,,,,,,,,,,,,,,,,,,,,,['return'],[0.15767460000097344],186.1265088,None,,,,,,,1,001,2021_Nov_09_1132,eeg_contingent_digits,2021.2.3,60.02671188687918,
13.0,3.0,1.0,9.0,7.0,1.0,0.0,-1.0,,,,,,,,,,,,,,,,,0,13,13,13,,,,,,,,,,,,,,,,,,,,,,,,,,,,,,,,,,,,,,,None,None,None,None,None,,1,001,2021_Nov_09_1132,eeg_contingent_digits,2021.2.3,60.02671188687918,
14.0,9.0,6.0,3.0,49.0,1.0,1.0,0.0,,,,,,,,,,,,,,,,,0,14,14,14,0,0,0,0,,,,,,,,,,,,,,,,,,,186.3431275999992,None,186.3431275999992,None,190.75812619999851,192.1576090999988,0.0070728799983044155,None,0.480579579998448,None,0.9637581799997861,None,['return'],[0.611880000000383],192.22423039999921,None,,,,,,,1,001,2021_Nov_09_1132,eeg_contingent_digits,2021.2.3,60.02671188687918,
14.0,9.0,6.0,3.0,49.0,1.0,1.0,0.0,,,,,,,,,,,,,,,,,0,14,14,14,1,0,1,0,,,,,,,,,,,,,,,,,,,,,,,,,,,,,,,['return'],[0.17015730000093754],192.87396809999882,None,,,,,,,1,001,2021_Nov_09_1132,eeg_contingent_digits,2021.2.3,60.02671188687918,
14.0,9.0,6.0,3.0,49.0,1.0,1.0,0.0,,,,,,,,,,,,,,,,,0,14,14,14,2,0,2,0,,,,,,,,,,,,,,,,,,,,,,,,,,,,,,,['return'],[0.1534685000005993],193.0906570999996,None,,,,,,,1,001,2021_Nov_09_1132,eeg_contingent_digits,2021.2.3,60.02671188687918,
14.0,9.0,6.0,3.0,49.0,1.0,1.0,0.0,,,,,,,,,,,,,,,,,0,14,14,14,,,,,,,,,,,,,,,,,,,,,,,,,,,,,,,,,,,,,,,None,None,None,None,None,,1,001,2021_Nov_09_1132,eeg_contingent_digits,2021.2.3,60.02671188687918,
15.0,8.0,8.0,8.0,61.0,1.0,0.0,2.0,,,,,,,,,,,,,,,,,0,15,15,15,0,0,0,0,,,,,,,,,,,,,,,,,,,193.30714259999877,None,193.30714259999877,None,199.78808409999874,201.18752119999954,0.0012274800010345643,None,0.46894238000095356,None,0.952210980000018,None,['return'],[0.4225733000002947],201.23748019999948,None,,,,,,,1,001,2021_Nov_09_1132,eeg_contingent_digits,2021.2.3,60.02671188687918,
15.0,8.0,8.0,8.0,61.0,1.0,0.0,2.0,,,,,,,,,,,,,,,,,0,15,15,15,1,0,1,0,,,,,,,,,,,,,,,,,,,,,,,,,,,,,,,['return'],[0.16408450000017183],201.70395389999976,None,,,,,,,1,001,2021_Nov_09_1132,eeg_contingent_digits,2021.2.3,60.02671188687918,
15.0,8.0,8.0,8.0,61.0,1.0,0.0,2.0,,,,,,,,,,,,,,,,,0,15,15,15,2,0,2,0,,,,,,,,,,,,,,,,,,,,,,,,,,,,,,,['return'],[0.17213339999943855],201.90389909999976,None,,,,,,,1,001,2021_Nov_09_1132,eeg_contingent_digits,2021.2.3,60.02671188687918,
15.0,8.0,8.0,8.0,61.0,1.0,0.0,2.0,,,,,,,,,,,,,,,,,0,15,15,15,,,,,,,,,,,,,,,,,,,,,,,,,,,,,,,,,,,,,,,202.17045859999962,None,return,202.17045859999962,None,1.2015845000005356,1,001,2021_Nov_09_1132,eeg_contingent_digits,2021.2.3,60.02671188687918,
16.0,2.0,0.0,6.0,14.0,0.0,1.0,0.0,,,,,,,,,,,,,,,,,0,16,16,16,0,0,0,0,,,,,,,,,,,,,,,,,,,203.41999179999948,None,203.41999179999948,None,206.76877179999974,208.1682198999988,0.007970769998792093,None,0.482521669997368,None,0.9489457699983177,None,['return'],[0.6498802000005526],208.2181596999999,None,,,,,,,1,001,2021_Nov_09_1132,eeg_contingent_digits,2021.2.3,60.02671188687918,
16.0,2.0,0.0,6.0,14.0,0.0,1.0,0.0,,,,,,,,,,,,,,,,,0,16,16,16,1,0,1,0,,,,,,,,,,,,,,,,,,,,,,,,,,,,,,,['return'],[0.16687629999978526],208.90122079999855,None,,,,,,,1,001,2021_Nov_09_1132,eeg_contingent_digits,2021.2.3,60.02671188687918,
16.0,2.0,0.0,6.0,14.0,0.0,1.0,0.0,,,,,,,,,,,,,,,,,0,16,16,16,2,0,2,0,,,,,,,,,,,,,,,,,,,,,,,,,,,,,,,['return'],[0.16687629999978526],209.10114949999843,None,,,,,,,1,001,2021_Nov_09_1132,eeg_contingent_digits,2021.2.3,60.02671188687918,
16.0,2.0,0.0,6.0,14.0,0.0,1.0,0.0,,,,,,,,,,,,,,,,,0,16,16,16,,,,,,,,,,,,,,,,,,,,,,,,,,,,,,,,,,,,,,,None,None,None,None,None,,1,001,2021_Nov_09_1132,eeg_contingent_digits,2021.2.3,60.02671188687918,
17.0,8.0,4.0,4.0,1.0,0.0,0.0,-1.0,,,,,,,,,,,,,,,,,0,17,17,17,0,0,0,0,,,,,,,,,,,,,,,,,,,209.31781509999928,None,209.31781509999928,None,211.73353959999986,213.1330530999985,0.007980980000866111,None,0.4825412800000777,None,0.965647880000688,None,['return'],[0.9810072000000218],213.18294699999933,None,,,,,,,1,001,2021_Nov_09_1132,eeg_contingent_digits,2021.2.3,60.02671188687918,
17.0,8.0,4.0,4.0,1.0,0.0,0.0,-1.0,,,,,,,,,,,,,,,,,0,17,17,17,1,0,1,0,,,,,,,,,,,,,,,,,,,,,,,,,,,,,,,['return'],[0.1646932999992714],214.19923789999848,None,,,,,,,1,001,2021_Nov_09_1132,eeg_contingent_digits,2021.2.3,60.02671188687918,
17.0,8.0,4.0,4.0,1.0,0.0,0.0,-1.0,,,,,,,,,,,,,,,,,0,17,17,17,2,0,2,0,,,,,,,,,,,,,,,,,,,,,,,,,,,,,,,['return'],[0.16488370000115538],214.3990776999999,None,,,,,,,1,001,2021_Nov_09_1132,eeg_contingent_digits,2021.2.3,60.02671188687918,
17.0,8.0,4.0,4.0,1.0,0.0,0.0,-1.0,,,,,,,,,,,,,,,,,0,17,17,17,,,,,,,,,,,,,,,,,,,,,,,,,,,,,,,,,,,,,,,None,None,None,None,None,,1,001,2021_Nov_09_1132,eeg_contingent_digits,2021.2.3,60.02671188687918,
18.0,2.0,1.0,4.0,21.0,0.0,1.0,0.0,,,,,,,,,,,,,,,,,0,18,18,18,0,0,0,0,,,,,,,,,,,,,,,,,,,214.61579879999954,None,214.61579879999954,None,218.39764079999986,219.79716169999847,0.01427667999996629,None,0.47839487999954144,None,0.9615529799993965,None,['return'],[0.8287799000008818],219.84709769999972,None,,,,,,,1,001,2021_Nov_09_1132,eeg_contingent_digits,2021.2.3,60.02671188687918,
18.0,2.0,1.0,4.0,21.0,0.0,1.0,0.0,,,,,,,,,,,,,,,,,0,18,18,18,1,0,1,0,,,,,,,,,,,,,,,,,,,,,,,,,,,,,,,['return'],[0.1784488000012061],220.71344529999988,None,,,,,,,1,001,2021_Nov_09_1132,eeg_contingent_digits,2021.2.3,60.02671188687918,
18.0,2.0,1.0,4.0,21.0,0.0,1.0,0.0,,,,,,,,,,,,,,,,,0,18,18,18,2,0,2,0,,,,,,,,,,,,,,,,,,,,,,,,,,,,,,,['return'],[0.1699743999997736],220.92990269999973,None,,,,,,,1,001,2021_Nov_09_1132,eeg_contingent_digits,2021.2.3,60.02671188687918,
18.0,2.0,1.0,4.0,21.0,0.0,1.0,0.0,,,,,,,,,,,,,,,,,0,18,18,18,,,,,,,,,,,,,,,,,,,,,,,,,,,,,,,,,,,,,,,None,None,None,None,None,,1,001,2021_Nov_09_1132,eeg_contingent_digits,2021.2.3,60.02671188687918,
19.0,9.0,6.0,8.0,49.0,0.0,0.0,-2.0,,,,,,,,,,,,,,,,,0,19,19,19,0,0,0,0,,,,,,,,,,,,,,,,,,,221.1632740999994,None,221.1632740999994,None,223.2625207000001,224.66194929999983,0.011312079999697744,None,0.48907107999912114,None,0.9722290800000337,None,['return'],[0.755945700000666],224.71191439999893,None,,,,,,,1,001,2021_Nov_09_1132,eeg_contingent_digits,2021.2.3,60.02671188687918,
19.0,9.0,6.0,8.0,49.0,0.0,0.0,-2.0,,,,,,,,,,,,,,,,,0,19,19,19,1,0,1,0,,,,,,,,,,,,,,,,,,,,,,,,,,,,,,,['return'],[0.17222530000071856],225.51163129999986,None,,,,,,,1,001,2021_Nov_09_1132,eeg_contingent_digits,2021.2.3,60.02671188687918,
19.0,9.0,6.0,8.0,49.0,0.0,0.0,-2.0,,,,,,,,,,,,,,,,,0,19,19,19,2,0,2,0,,,,,,,,,,,,,,,,,,,,,,,,,,,,,,,['return'],[0.16375539999899047],225.72813159999896,None,,,,,,,1,001,2021_Nov_09_1132,eeg_contingent_digits,2021.2.3,60.02671188687918,
19.0,9.0,6.0,8.0,49.0,0.0,0.0,-2.0,,,,,,,,,,,,,,,,,0,19,19,19,,,,,,,,,,,,,,,,,,,,,,,,,,,,,,,,,,,,,,,None,None,None,None,None,,1,001,2021_Nov_09_1132,eeg_contingent_digits,2021.2.3,60.02671188687918,
20.0,5.0,6.0,9.0,10.0,0.0,1.0,0.0,,,,,,,,,,,,,,,,,0,20,20,20,0,0,0,0,,,,,,,,,,,,,,,,,,,225.94479019999926,None,225.94479019999926,None,242.1387139999988,243.53813179999997,0.01371298000049137,None,0.47732898000140267,None,0.9603822799999762,None,['return'],[1.823621000001367],243.58811069999865,None,,,,,,,1,001,2021_Nov_09_1132,eeg_contingent_digits,2021.2.3,60.02671188687918,
20.0,5.0,6.0,9.0,10.0,0.0,1.0,0.0,,,,,,,,,,,,,,,,,0,20,20,20,1,0,1,0,,,,,,,,,,,,,,,,,,,,,,,,,,,,,,,['return'],[0.18163739999909012],245.45406469999944,None,,,,,,,1,001,2021_Nov_09_1132,eeg_contingent_digits,2021.2.3,60.02671188687918,
20.0,5.0,6.0,9.0,10.0,0.0,1.0,0.0,,,,,,,,,,,,,,,,,0,20,20,20,2,0,2,0,,,,,,,,,,,,,,,,,,,,,,,,,,,,,,,['return'],[0.1651387000001705],245.670552399999,None,,,,,,,1,001,2021_Nov_09_1132,eeg_contingent_digits,2021.2.3,60.02671188687918,
20.0,5.0,6.0,9.0,10.0,0.0,1.0,0.0,,,,,,,,,,,,,,,,,0,20,20,20,,,,,,,,,,,,,,,,,,,,,,,,,,,,,,,,,,,,,,,None,None,None,None,None,,1,001,2021_Nov_09_1132,eeg_contingent_digits,2021.2.3,60.02671188687918,
21.0,2.0,8.0,4.0,48.0,0.0,0.0,-2.0,,,,,,,,,,,,,,,,,0,21,21,21,0,0,0,0,,,,,,,,,,,,,,,,,,,245.88724739999998,None,245.88724739999998,None,248.9860652999996,250.38556439999957,0.010223879999102792,None,0.4869574799995462,None,0.9701195799989364,None,['return'],[6.432175599999027],250.43555469999956,None,,,,,,,1,001,2021_Nov_09_1132,eeg_contingent_digits,2021.2.3,60.02671188687918,
21.0,2.0,8.0,4.0,48.0,0.0,0.0,-2.0,,,,,,,,,,,,,,,,,0,21,21,21,1,0,1,0,,,,,,,,,,,,,,,,,,,,,,,,,,,,,,,['return'],[0.15188000000125612],256.8997225999992,None,,,,,,,1,001,2021_Nov_09_1132,eeg_contingent_digits,2021.2.3,60.02671188687918,
21.0,2.0,8.0,4.0,48.0,0.0,0.0,-2.0,,,,,,,,,,,,,,,,,0,21,21,21,2,0,2,0,,,,,,,,,,,,,,,,,,,,,,,,,,,,,,,['return'],[0.13659889999871666],257.08299519999855,None,,,,,,,1,001,2021_Nov_09_1132,eeg_contingent_digits,2021.2.3,60.02671188687918,
21.0,2.0,8.0,4.0,48.0,0.0,0.0,-2.0,,,,,,,,,,,,,,,,,0,21,21,21,,,,,,,,,,,,,,,,,,,,,,,,,,,,,,,,,,,,,,,None,None,None,None,None,,1,001,2021_Nov_09_1132,eeg_contingent_digits,2021.2.3,60.02671188687918,
22.0,9.0,8.0,3.0,33.0,0.0,1.0,0.0,,,,,,,,,,,,,,,,,0,22,22,22,0,0,0,0,,,,,,,,,,,,,,,,,,,257.28292599999986,None,257.28292599999986,None,263.5139331999999,264.9133731999991,0.013819280000461731,None,0.4775266800006648,None,0.9606364800001757,None,['return'],[1.7361651999999594],264.96335519999957,None,,,,,,,1,001,2021_Nov_09_1132,eeg_contingent_digits,2021.2.3,60.02671188687918,
22.0,9.0,8.0,3.0,33.0,0.0,1.0,0.0,,,,,,,,,,,,,,,,,0,22,22,22,1,0,1,0,,,,,,,,,,,,,,,,,,,,,,,,,,,,,,,['return'],[0.16150940000079572],266.74603989999923,None,,,,,,,1,001,2021_Nov_09_1132,eeg_contingent_digits,2021.2.3,60.02671188687918,
22.0,9.0,8.0,3.0,33.0,0.0,1.0,0.0,,,,,,,,,,,,,,,,,0,22,22,22,2,0,2,0,,,,,,,,,,,,,,,,,,,,,,,,,,,,,,,['return'],[0.16962109999985842],266.9459674999998,None,,,,,,,1,001,2021_Nov_09_1132,eeg_contingent_digits,2021.2.3,60.02671188687918,
22.0,9.0,8.0,3.0,33.0,0.0,1.0,0.0,,,,,,,,,,,,,,,,,0,22,22,22,,,,,,,,,,,,,,,,,,,,,,,,,,,,,,,,,,,,,,,None,None,None,None,None,,1,001,2021_Nov_09_1132,eeg_contingent_digits,2021.2.3,60.02671188687918,
23.0,2.0,1.0,8.0,48.0,0.0,0.0,-2.0,,,,,,,,,,,,,,,,,0,23,23,23,0,0,0,0,,,,,,,,,,,,,,,,,,,267.1792319999986,None,267.1792319999986,None,271.4442240999997,272.84376969999903,0.007469509999282309,None,0.4814218100000289,None,0.9645588099992892,None,['return'],[0.42179639999994833],272.893721299999,None,,,,,,,1,001,2021_Nov_09_1132,eeg_contingent_digits,2021.2.3,60.02671188687918,
23.0,2.0,1.0,8.0,48.0,0.0,0.0,-2.0,,,,,,,,,,,,,,,,,0,23,23,23,1,0,1,0,,,,,,,,,,,,,,,,,,,,,,,,,,,,,,,['return'],[0.16331340000033379],273.36017269999866,None,,,,,,,1,001,2021_Nov_09_1132,eeg_contingent_digits,2021.2.3,60.02671188687918,
23.0,2.0,1.0,8.0,48.0,0.0,0.0,-2.0,,,,,,,,,,,,,,,,,0,23,23,23,2,0,2,0,,,,,,,,,,,,,,,,,,,,,,,,,,,,,,,['return'],[0.13935849999870698],273.56011619999845,None,,,,,,,1,001,2021_Nov_09_1132,eeg_contingent_digits,2021.2.3,60.02671188687918,
23.0,2.0,1.0,8.0,48.0,0.0,0.0,-2.0,,,,,,,,,,,,,,,,,0,23,23,23,,,,,,,,,,,,,,,,,,,,,,,,,,,,,,,,,,,,,,,273.77671499999997,None,return,273.77671499999997,None,1.098780499998611,1,001,2021_Nov_09_1132,eeg_contingent_digits,2021.2.3,60.02671188687918,
24.0,2.0,4.0,8.0,48.0,0.0,1.0,0.0,,,,,,,,,,,,,,,,,0,24,24,24,0,0,0,0,,,,,,,,,,,,,,,,,,,274.90959979999934,None,274.90959979999934,None,277.85848649999934,279.25801839999986,0.015282280000974424,None,0.49703018000036536,None,0.9802674799993838,None,['return'],[1.2795405999986542],279.3079192999994,None,,,,,,,1,001,2021_Nov_09_1132,eeg_contingent_digits,2021.2.3,60.02671188687918,
24.0,2.0,4.0,8.0,48.0,0.0,1.0,0.0,,,,,,,,,,,,,,,,,0,24,24,24,1,0,1,0,,,,,,,,,,,,,,,,,,,,,,,,,,,,,,,['return'],[0.1472433999988425],280.6241709999995,None,,,,,,,1,001,2021_Nov_09_1132,eeg_contingent_digits,2021.2.3,60.02671188687918,
24.0,2.0,4.0,8.0,48.0,0.0,1.0,0.0,,,,,,,,,,,,,,,,,0,24,24,24,2,0,2,0,,,,,,,,,,,,,,,,,,,,,,,,,,,,,,,['return'],[0.13210280000021157],280.80734049999955,None,,,,,,,1,001,2021_Nov_09_1132,eeg_contingent_digits,2021.2.3,60.02671188687918,
24.0,2.0,4.0,8.0,48.0,0.0,1.0,0.0,,,,,,,,,,,,,,,,,0,24,24,24,,,,,,,,,,,,,,,,,,,,,,,,,,,,,,,,,,,,,,,None,None,None,None,None,,1,001,2021_Nov_09_1132,eeg_contingent_digits,2021.2.3,60.02671188687918,
25.0,3.0,0.0,6.0,13.0,0.0,0.0,-2.0,,,,,,,,,,,,,,,,,0,25,25,25,0,0,0,0,,,,,,,,,,,,,,,,,,,280.9906233999991,None,280.9906233999991,None,283.0398932999997,284.43934099999933,0.015869380000367528,None,0.49822148000203015,None,0.9813602800004446,None,['return'],[0.7220723999998881],284.48932349999995,None,,,,,,,1,001,2021_Nov_09_1132,eeg_contingent_digits,2021.2.3,60.02671188687918,
25.0,3.0,0.0,6.0,13.0,0.0,0.0,-2.0,,,,,,,,,,,,,,,,,0,25,25,25,1,0,1,0,,,,,,,,,,,,,,,,,,,,,,,,,,,,,,,['return'],[0.15571519999866723],285.25568119999843,None,,,,,,,1,001,2021_Nov_09_1132,eeg_contingent_digits,2021.2.3,60.02671188687918,
25.0,3.0,0.0,6.0,13.0,0.0,0.0,-2.0,,,,,,,,,,,,,,,,,0,25,25,25,2,0,2,0,,,,,,,,,,,,,,,,,,,,,,,,,,,,,,,['return'],[0.131896400000187],285.4555825999996,None,,,,,,,1,001,2021_Nov_09_1132,eeg_contingent_digits,2021.2.3,60.02671188687918,
25.0,3.0,0.0,6.0,13.0,0.0,0.0,-2.0,,,,,,,,,,,,,,,,,0,25,25,25,,,,,,,,,,,,,,,,,,,,,,,,,,,,,,,,,,,,,,,None,None,None,None,None,,1,001,2021_Nov_09_1132,eeg_contingent_digits,2021.2.3,60.02671188687918,
26.0,9.0,8.0,8.0,1.0,0.0,1.0,0.0,,,,,,,,,,,,,,,,,0,26,26,26,0,0,0,0,,,,,,,,,,,,,,,,,,,285.6390242999987,None,285.6390242999987,None,295.90166299999873,297.3011400999985,0.010883379998631426,None,0.4882114799984265,None,0.9713797799995518,None,['return'],[1.0439475000002858],297.3513402999997,None,,,,,,,1,001,2021_Nov_09_1132,eeg_contingent_digits,2021.2.3,60.02671188687918,
26.0,9.0,8.0,8.0,1.0,0.0,1.0,0.0,,,,,,,,,,,,,,,,,0,26,26,26,1,0,1,0,,,,,,,,,,,,,,,,,,,,,,,,,,,,,,,['return'],[0.1613006999996287],298.4340024999983,None,,,,,,,1,001,2021_Nov_09_1132,eeg_contingent_digits,2021.2.3,60.02671188687918,
26.0,9.0,8.0,8.0,1.0,0.0,1.0,0.0,,,,,,,,,,,,,,,,,0,26,26,26,2,0,2,0,,,,,,,,,,,,,,,,,,,,,,,,,,,,,,,['return'],[0.15336309999838704],298.6339369999987,None,,,,,,,1,001,2021_Nov_09_1132,eeg_contingent_digits,2021.2.3,60.02671188687918,
26.0,9.0,8.0,8.0,1.0,0.0,1.0,0.0,,,,,,,,,,,,,,,,,0,26,26,26,,,,,,,,,,,,,,,,,,,,,,,,,,,,,,,,,,,,,,,None,None,None,None,None,,1,001,2021_Nov_09_1132,eeg_contingent_digits,2021.2.3,60.02671188687918,
27.0,2.0,1.0,3.0,49.0,0.0,0.0,0.0,,,,,,,,,,,,,,,,,0,27,27,27,0,0,0,0,,,,,,,,,,,,,,,,,,,298.8505804999986,None,298.8505804999986,None,303.8986154999984,305.2981639999998,0.006024579999575508,None,0.47849828000107664,None,0.9451344799999788,None,['return'],[0.39912290000029316],305.3481222999999,None,,,,,,,1,001,2021_Nov_09_1132,eeg_contingent_digits,2021.2.3,60.02671188687918,
27.0,2.0,1.0,3.0,49.0,0.0,0.0,0.0,,,,,,,,,,,,,,,,,0,27,27,27,1,0,1,0,,,,,,,,,,,,,,,,,,,,,,,,,,,,,,,['return'],[0.17406490000030317],305.7812262999996,None,,,,,,,1,001,2021_Nov_09_1132,eeg_contingent_digits,2021.2.3,60.02671188687918,
27.0,2.0,1.0,3.0,49.0,0.0,0.0,0.0,,,,,,,,,,,,,,,,,0,27,27,27,2,0,2,0,,,,,,,,,,,,,,,,,,,,,,,,,,,,,,,['return'],[0.1414509000005637],305.99783579999894,None,,,,,,,1,001,2021_Nov_09_1132,eeg_contingent_digits,2021.2.3,60.02671188687918,
27.0,2.0,1.0,3.0,49.0,0.0,0.0,0.0,,,,,,,,,,,,,,,,,0,27,27,27,,,,,,,,,,,,,,,,,,,,,,,,,,,,,,,,,,,,,,,None,None,None,None,None,,1,001,2021_Nov_09_1132,eeg_contingent_digits,2021.2.3,60.02671188687918,
28.0,8.0,0.0,8.0,13.0,0.0,1.0,0.0,,,,,,,,,,,,,,,,,0,28,28,28,0,0,0,0,,,,,,,,,,,,,,,,,,,306.1977597999994,None,306.1977597999994,None,309.84639049999896,311.2458468999994,0.009458879998419434,None,0.4854408799983503,None,0.9686304799979553,None,['return'],[0.06731679999938933],311.29586669999844,None,,,,,,,1,001,2021_Nov_09_1132,eeg_contingent_digits,2021.2.3,60.02671188687918,
28.0,8.0,0.0,8.0,13.0,0.0,1.0,0.0,,,,,,,,,,,,,,,,,0,28,28,28,1,0,1,0,,,,,,,,,,,,,,,,,,,,,,,,,,,,,,,['return'],[0.19934949999878881],311.3958331999984,None,,,,,,,1,001,2021_Nov_09_1132,eeg_contingent_digits,2021.2.3,60.02671188687918,
28.0,8.0,0.0,8.0,13.0,0.0,1.0,0.0,,,,,,,,,,,,,,,,,0,28,28,28,2,0,2,0,,,,,,,,,,,,,,,,,,,,,,,,,,,,,,,['return'],[0.1661483000007138],311.62907839999934,None,,,,,,,1,001,2021_Nov_09_1132,eeg_contingent_digits,2021.2.3,60.02671188687918,
28.0,8.0,0.0,8.0,13.0,0.0,1.0,0.0,,,,,,,,,,,,,,,,,0,28,28,28,,,,,,,,,,,,,,,,,,,,,,,,,,,,,,,,,,,,,,,None,None,None,None,None,,1,001,2021_Nov_09_1132,eeg_contingent_digits,2021.2.3,60.02671188687918,
29.0,5.0,0.0,9.0,7.0,0.0,0.0,-1.0,,,,,,,,,,,,,,,,,0,29,29,29,0,0,0,0,,,,,,,,,,,,,,,,,,,311.8456209999986,None,311.8456209999986,None,314.5946111999983,315.9940482999991,0.013696449999770266,None,0.49392325000007986,None,0.9604347500007862,None,['return'],[0.32713040000089677],316.0440887999994,None,,,,,,,1,001,2021_Nov_09_1132,eeg_contingent_digits,2021.2.3,60.02671188687918,
29.0,5.0,0.0,9.0,7.0,0.0,0.0,-1.0,,,,,,,,,,,,,,,,,0,29,29,29,1,0,1,0,,,,,,,,,,,,,,,,,,,,,,,,,,,,,,,['return'],[0.16868310000063502],316.41045439999834,None,,,,,,,1,001,2021_Nov_09_1132,eeg_contingent_digits,2021.2.3,60.02671188687918,
29.0,5.0,0.0,9.0,7.0,0.0,0.0,-1.0,,,,,,,,,,,,,,,,,0,29,29,29,2,0,2,0,,,,,,,,,,,,,,,,,,,,,,,,,,,,,,,['return'],[0.1600177000000258],316.62713469999835,None,,,,,,,1,001,2021_Nov_09_1132,eeg_contingent_digits,2021.2.3,60.02671188687918,
29.0,5.0,0.0,9.0,7.0,0.0,0.0,-1.0,,,,,,,,,,,,,,,,,0,29,29,29,,,,,,,,,,,,,,,,,,,,,,,,,,,,,,,,,,,,,,,None,None,None,None,None,,1,001,2021_Nov_09_1132,eeg_contingent_digits,2021.2.3,60.02671188687918,
30.0,3.0,1.0,4.0,13.0,0.0,1.0,0.0,,,,,,,,,,,,,,,,,0,30,30,30,0,0,0,0,,,,,,,,,,,,,,,,,,,316.8437353999998,None,316.8437353999998,None,326.3567846999995,327.75628399999914,0.006154279999464052,None,0.47881688000052236,None,0.9619505800001207,None,['return'],[0.6689311000009184],327.8061291999984,None,,,,,,,1,001,2021_Nov_09_1132,eeg_contingent_digits,2021.2.3,60.02671188687918,
30.0,3.0,1.0,4.0,13.0,0.0,1.0,0.0,,,,,,,,,,,,,,,,,0,30,30,30,1,0,1,0,,,,,,,,,,,,,,,,,,,,,,,,,,,,,,,['return'],[0.14436829999976908],328.5226882999996,None,,,,,,,1,001,2021_Nov_09_1132,eeg_contingent_digits,2021.2.3,60.02671188687918,
30.0,3.0,1.0,4.0,13.0,0.0,1.0,0.0,,,,,,,,,,,,,,,,,0,30,30,30,2,0,2,0,,,,,,,,,,,,,,,,,,,,,,,,,,,,,,,['return'],[0.16118610000012268],328.70589069999914,None,,,,,,,1,001,2021_Nov_09_1132,eeg_contingent_digits,2021.2.3,60.02671188687918,
30.0,3.0,1.0,4.0,13.0,0.0,1.0,0.0,,,,,,,,,,,,,,,,,0,30,30,30,,,,,,,,,,,,,,,,,,,,,,,,,,,,,,,,,,,,,,,None,None,None,None,None,,1,001,2021_Nov_09_1132,eeg_contingent_digits,2021.2.3,60.02671188687918,
31.0,9.0,8.0,8.0,33.0,0.0,0.0,1.0,,,,,,,,,,,,,,,,,0,31,31,31,0,0,0,0,,,,,,,,,,,,,,,,,,,328.92249829999855,None,328.92249829999855,None,339.5518175999987,340.9512728999998,0.0038297099999908824,None,0.4741549099999247,None,0.9573106099996949,None,['return'],[0.9222616000006383],340.9846929999985,None,,,,,,,1,001,2021_Nov_09_1132,eeg_contingent_digits,2021.2.3,60.02671188687918,
31.0,9.0,8.0,8.0,33.0,0.0,0.0,1.0,,,,,,,,,,,,,,,,,0,31,31,31,1,0,1,0,,,,,,,,,,,,,,,,,,,,,,,,,,,,,,,['return'],[0.14805919999889738],341.95088899999973,None,,,,,,,1,001,2021_Nov_09_1132,eeg_contingent_digits,2021.2.3,60.02671188687918,
31.0,9.0,8.0,8.0,33.0,0.0,0.0,1.0,,,,,,,,,,,,,,,,,0,31,31,31,2,0,2,0,,,,,,,,,,,,,,,,,,,,,,,,,,,,,,,['return'],[0.14878950000093027],342.13413779999973,None,,,,,,,1,001,2021_Nov_09_1132,eeg_contingent_digits,2021.2.3,60.02671188687918,
31.0,9.0,8.0,8.0,33.0,0.0,0.0,1.0,,,,,,,,,,,,,,,,,0,31,31,31,,,,,,,,,,,,,,,,,,,,,,,,,,,,,,,,,,,,,,,342.35079119999864,None,return,342.35079119999864,None,1.0201285999992251,1,001,2021_Nov_09_1132,eeg_contingent_digits,2021.2.3,60.02671188687918,
