TrialID,NFB_digit1,NFB_digit2,NFB_digit3,Speaker_trial,TrialID_ME,NFB_digit1_ME,NFB_digit2_ME,NFB_digit3_ME,Speaker_trial_ME,NV_trial_ME,Triggered_trial_ME,Jitter_trial_ME,practice_block.thisRepN,practice_block.thisTrialN,practice_block.thisN,practice_block.thisIndex,practice_trials.thisRepN,practice_trials.thisTrialN,practice_trials.thisN,practice_trials.thisIndex,response_practice.thisRepN,response_practice.thisTrialN,response_practice.thisN,response_practice.thisIndex,ME_trials.thisRepN,ME_trials.thisTrialN,ME_trials.thisN,ME_trials.thisIndex,response_ME.thisRepN,response_ME.thisTrialN,response_ME.thisN,response_ME.thisIndex,Digit1_clear.started,Digit1_clear.stopped,response_practice_resp.keys,response_practice_resp.rt,response_practice_resp.started,response_practice_resp.stopped,text_practice_repeat.started,text_practice_repeat.stopped,text_4.started,text_4.stopped,Fixation_ME.started,Fixation_ME.stopped,sound_digit_1_ME.started,sound_digit_1_ME.stopped,text_2.started,text_2.stopped,key_resp_ME.keys,key_resp_ME.rt,key_resp_ME.started,key_resp_ME.stopped,disp_answer_ME.started,disp_answer_ME.stopped,text_7.started,text_7.stopped,text_next_block_ME.started,text_next_block_ME.stopped,response_nextblock_ME.keys,response_nextblock_ME.started,response_nextblock_ME.stopped,participant,session,date,expName,psychopyVersion,frameRate,
0.0,6.0,2.0,4.0,33.0,,,,,,,,,0,0,0,0,0,0,0,0,0,0,0,0,,,,,,,,,0.004013729998405324,None,['return'],[1.010450399999172],34.23536149999927,None,,,,,,,,,,,,,,,,,,,,,,,,1,001,2021_Nov_17_1308,eeg_contingent_digits,2021.2.3,60.02246040451339,
0.0,6.0,2.0,4.0,33.0,,,,,,,,,0,0,0,0,0,0,0,0,,,,,,,,,,,,,,,,,,,,,,,,,,,,,,,,,,,,,,,,,,1,001,2021_Nov_17_1308,eeg_contingent_digits,2021.2.3,60.02246040451339,
1.0,1.0,9.0,3.0,13.0,,,,,,,,,0,0,0,0,0,1,1,1,0,0,0,0,,,,,,,,,0.0008267300017905654,None,['return'],[0.33306530000118073],35.7859554000006,None,,,,,,,,,,,,,,,,,,,,,,,,1,001,2021_Nov_17_1308,eeg_contingent_digits,2021.2.3,60.02246040451339,
1.0,1.0,9.0,3.0,13.0,,,,,,,,,0,0,0,0,0,1,1,1,,,,,,,,,,,,,,,,,,,,,,,,,,,,,,,,,,,,,,,,,,1,001,2021_Nov_17_1308,eeg_contingent_digits,2021.2.3,60.02246040451339,
2.0,8.0,0.0,1.0,21.0,,,,,,,,,0,0,0,0,0,2,2,2,0,0,0,0,,,,,,,,,0.0010571300008450635,None,['return'],[0.20679679999921063],36.669921499998964,None,,,,,,,,,,,,,,,,,,,,,,,,1,001,2021_Nov_17_1308,eeg_contingent_digits,2021.2.3,60.02246040451339,
2.0,8.0,0.0,1.0,21.0,,,,,,,,,0,0,0,0,0,2,2,2,,,,,,,,,,,,,,,,,,,,,,,,,,,,,,,,,,,,,,,,,,1,001,2021_Nov_17_1308,eeg_contingent_digits,2021.2.3,60.02246040451339,
3.0,9.0,6.0,1.0,61.0,,,,,,,,,0,0,0,0,0,3,3,3,0,0,0,0,,,,,,,,,0.0006117300017649541,None,['return'],[0.24375270000018645],37.40324469999905,None,,,,,,,,,,,,,,,,,,,,,,,,1,001,2021_Nov_17_1308,eeg_contingent_digits,2021.2.3,60.02246040451339,
3.0,9.0,6.0,1.0,61.0,,,,,,,,,0,0,0,0,0,3,3,3,,,,,,,,,,,,,,,,,,,,,,,,,,,,,,,,,,,,,,,,,,1,001,2021_Nov_17_1308,eeg_contingent_digits,2021.2.3,60.02246040451339,
4.0,8.0,1.0,5.0,7.0,,,,,,,,,0,0,0,0,0,4,4,4,0,0,0,0,,,,,,,,,0.0008316300009028055,None,['return'],[0.3243860999991739],38.18644479999966,None,,,,,,,,,,,,,,,,,,,,,,,,1,001,2021_Nov_17_1308,eeg_contingent_digits,2021.2.3,60.02246040451339,
4.0,8.0,1.0,5.0,7.0,,,,,,,,,0,0,0,0,0,4,4,4,,,,,,,,,,,,,,,,,,,,,,,,,,,,,,,,,,,,,,,,,,1,001,2021_Nov_17_1308,eeg_contingent_digits,2021.2.3,60.02246040451339,
5.0,4.0,1.0,0.0,33.0,,,,,,,,,0,0,0,0,0,5,5,5,0,0,0,0,,,,,,,,,0.0011111300009361003,None,['return'],[0.3709177999990061],39.05274669999926,None,,,,,,,,,,,,,,,,,,,,,,,,1,001,2021_Nov_17_1308,eeg_contingent_digits,2021.2.3,60.02246040451339,
5.0,4.0,1.0,0.0,33.0,,,,,,,,,0,0,0,0,0,5,5,5,,,,,,,,,,,,,,,,,,,,,,,,,,,,,,,,,,,,,,,,,,1,001,2021_Nov_17_1308,eeg_contingent_digits,2021.2.3,60.02246040451339,
6.0,9.0,2.0,6.0,13.0,,,,,,,,,0,0,0,0,0,6,6,6,0,0,0,0,,,,,,,,,0.000496730002851109,None,['return'],[0.23757610000029672],39.96916719999899,None,,,,,,,,,,,,,,,,,,,,,,,,1,001,2021_Nov_17_1308,eeg_contingent_digits,2021.2.3,60.02246040451339,
6.0,9.0,2.0,6.0,13.0,,,,,,,,,0,0,0,0,0,6,6,6,,,,,,,,,,,,,,,,,,,,,,,,,,,,,,,,,,,,,,,,,,1,001,2021_Nov_17_1308,eeg_contingent_digits,2021.2.3,60.02246040451339,
7.0,2.0,3.0,0.0,10.0,,,,,,,,,0,0,0,0,0,7,7,7,0,0,0,0,,,,,,,,,0.001005730000542826,None,['return'],[0.25616439999976137],40.75256099999933,None,,,,,,,,,,,,,,,,,,,,,,,,1,001,2021_Nov_17_1308,eeg_contingent_digits,2021.2.3,60.02246040451339,
7.0,2.0,3.0,0.0,10.0,,,,,,,,,0,0,0,0,0,7,7,7,,,,,,,,,,,,,,,,,,,,,,,,,,,,,,,,,,,,,,,,,,1,001,2021_Nov_17_1308,eeg_contingent_digits,2021.2.3,60.02246040451339,
8.0,1.0,9.0,2.0,48.0,,,,,,,,,0,0,0,0,0,8,8,8,0,0,0,0,,,,,,,,,0.0006598300005862257,None,['return'],[0.14095040000029257],41.55225679999967,None,,,,,,,,,,,,,,,,,,,,,,,,1,001,2021_Nov_17_1308,eeg_contingent_digits,2021.2.3,60.02246040451339,
8.0,1.0,9.0,2.0,48.0,,,,,,,,,0,0,0,0,0,8,8,8,,,,,,,,,,,,,,,,,,,,,,,,,,,,,,,,,,,,,,,,,,1,001,2021_Nov_17_1308,eeg_contingent_digits,2021.2.3,60.02246040451339,
9.0,8.0,1.0,0.0,21.0,,,,,,,,,0,0,0,0,0,9,9,9,0,0,0,0,,,,,,,,,0.0010786299990286352,None,['return'],[0.26736429999982647],42.23637240000062,None,,,,,,,,,,,,,,,,,,,,,,,,1,001,2021_Nov_17_1308,eeg_contingent_digits,2021.2.3,60.02246040451339,
9.0,8.0,1.0,0.0,21.0,,,,,,,,,0,0,0,0,0,9,9,9,,,,,,,,,,,,,,,,,,,,,,,,,,,,,,,,,,,,,,,,,,1,001,2021_Nov_17_1308,eeg_contingent_digits,2021.2.3,60.02246040451339,
,,,,,,,,,,,,,0,0,0,0,,,,,,,,,,,,,,,,,,,,,,,42.5496232000005,None,,,,,,,,,,,,,,,,,,,,,,1,001,2021_Nov_17_1308,eeg_contingent_digits,2021.2.3,60.02246040451339,
,,,,,0.0,1.0,2.0,0.0,33.0,1.0,1.0,0.0,,,,,,,,,,,,,0,0,0,0,0,0,0,0,,,,,,,,,43.545802799999365,None,48.183583,None,0.005143320000570384,None,49.59489759999997,None,"['1', 'return']","[0.7482937999993737, 1.3305319000010059]",50.59449189999941,None,50.59449189999941,None,50.59449189999941,51.594432199999574,,,,,,1,001,2021_Nov_17_1308,eeg_contingent_digits,2021.2.3,60.02246040451339,
,,,,,0.0,1.0,2.0,0.0,33.0,1.0,1.0,0.0,,,,,,,,,,,,,0,0,0,0,,,,,,,,,,,,,,,,,,,,,,,,,,,,,None,None,None,None,None,1,001,2021_Nov_17_1308,eeg_contingent_digits,2021.2.3,60.02246040451339,
,,,,,1.0,0.0,8.0,3.0,49.0,1.0,0.0,1.0,,,,,,,,,,,,,0,1,1,1,0,0,0,0,,,,,,,,,,,52.01917440000034,None,0.005250420001175371,None,54.13290210000014,None,"['0', 'return']","[0.5566285000004427, 0.7576528000008693]",55.14403719999973,None,55.14403719999973,None,55.14403719999973,None,,,,,,1,001,2021_Nov_17_1308,eeg_contingent_digits,2021.2.3,60.02246040451339,
,,,,,1.0,0.0,8.0,3.0,49.0,1.0,0.0,1.0,,,,,,,,,,,,,0,1,1,1,,,,,,,,,,,,,,,,,,,,,,,,,,,,,None,None,None,None,None,1,001,2021_Nov_17_1308,eeg_contingent_digits,2021.2.3,60.02246040451339,
,,,,,,,,,,,,,,,,,,,,,,,,,,,,,,,,,,,,,,,,,,,55.98345490000065,None,0.010159019999264274,None,58.039413200000126,None,,,,,,,,,,,,,,,,,,,,
