TrialID,NFB_digit1,NFB_digit2,NFB_digit3,Speaker_trial,TrialID_ME,NFB_digit1_ME,NFB_digit2_ME,NFB_digit3_ME,Speaker_trial_ME,NV_trial_ME,Triggered_trial_ME,Jitter_trial_ME,practice_block.thisRepN,practice_block.thisTrialN,practice_block.thisN,practice_block.thisIndex,practice_trials.thisRepN,practice_trials.thisTrialN,practice_trials.thisN,practice_trials.thisIndex,response_practice.thisRepN,response_practice.thisTrialN,response_practice.thisN,response_practice.thisIndex,ME_trials.thisRepN,ME_trials.thisTrialN,ME_trials.thisN,ME_trials.thisIndex,response_ME.thisRepN,response_ME.thisTrialN,response_ME.thisN,response_ME.thisIndex,Digit1_clear.started,Digit1_clear.stopped,Digit2_clear.started,Digit2_clear.stopped,Digit3_clear.started,Digit3_clear.stopped,response_practice_resp.keys,response_practice_resp.rt,response_practice_resp.started,response_practice_resp.stopped,text_practice_repeat.started,text_practice_repeat.stopped,text_4.started,text_4.stopped,Fixation_ME.started,Fixation_ME.stopped,sound_digit_1_ME.started,sound_digit_1_ME.stopped,sound_digit_2_ME.started,sound_digit_2_ME.stopped,sound_digit_3_ME.started,sound_digit_3_ME.stopped,text_2.started,text_2.stopped,key_resp_ME.keys,key_resp_ME.rt,key_resp_ME.started,key_resp_ME.stopped,disp_answer_ME.started,disp_answer_ME.stopped,text_7.started,text_7.stopped,text_5.started,text_5.stopped,text_next_block_ME.started,text_next_block_ME.stopped,response_nextblock_ME.keys,response_nextblock_ME.started,response_nextblock_ME.stopped,participant,session,date,expName,psychopyVersion,frameRate,
0.0,6.0,2.0,4.0,33.0,,,,,,,,,0,0,0,0,0,0,0,0,0,0,0,0,,,,,,,,,0.0035753200063481927,None,0.4727996200090274,None,0.9560804200009443,None,['return'],[0.30639099999098107],22.01907419998315,None,,,,,,,,,,,,,,,,,,,,,,,,,,,,,,1,001,2021_Nov_15_1221,eeg_contingent_digits,2021.2.3,60.00650470923362,
0.0,6.0,2.0,4.0,33.0,,,,,,,,,0,0,0,0,0,0,0,0,1,0,1,0,,,,,,,,,,,,,,,['return'],[0.1817702999978792],22.364337799983332,None,,,,,,,,,,,,,,,,,,,,,,,,,,,,,,1,001,2021_Nov_15_1221,eeg_contingent_digits,2021.2.3,60.00650470923362,
0.0,6.0,2.0,4.0,33.0,,,,,,,,,0,0,0,0,0,0,0,0,2,0,2,0,,,,,,,,,,,,,,,['return'],[0.1843234000261873],22.57945399999153,None,,,,,,,,,,,,,,,,,,,,,,,,,,,,,,1,001,2021_Nov_15_1221,eeg_contingent_digits,2021.2.3,60.00650470923362,
0.0,6.0,2.0,4.0,33.0,,,,,,,,,0,0,0,0,0,0,0,0,,,,,,,,,,,,,,,,,,,,,,,,,,,,,,,,,,,,,,,,,,,,,,,,,,,,1,001,2021_Nov_15_1221,eeg_contingent_digits,2021.2.3,60.00650470923362,
,,,,,,,,,,,,,0,0,0,0,,,,,,,,,,,,,,,,,,,,,,,,,,,22.812855599971954,None,,,,,,,,,,,,,,,,,,,,,,,,,,,,1,001,2021_Nov_15_1221,eeg_contingent_digits,2021.2.3,60.00650470923362,
,,,,,0.0,1.0,2.0,0.0,33.0,1.0,1.0,0.0,,,,,,,,,,,,,0,0,0,0,0,0,0,0,,,,,,,,,,,,,23.629857699997956,None,24.912894099979894,None,0.0013260800042189658,None,0.47679878000053577,None,0.9438425799889956,None,26.32702139997855,27.328642099979334,"['1', 'return']","[0.41155729998718016, 0.804644299991196]",27.783001999981934,None,27.783001999981934,None,27.783001999981934,None,,,,,,,,1,001,2021_Nov_15_1221,eeg_contingent_digits,2021.2.3,60.00650470923362,
,,,,,0.0,1.0,2.0,0.0,33.0,1.0,1.0,0.0,,,,,,,,,,,,,0,0,0,0,1,0,1,0,,,,,,,,,,,,,,,,,,,,,,,,,"['2', 'return']","[0.3907020000042394, 0.750503999995999]",28.63182599999709,None,28.63182599999709,None,28.63182599999709,None,,,,,,,,1,001,2021_Nov_15_1221,eeg_contingent_digits,2021.2.3,60.00650470923362,
,,,,,0.0,1.0,2.0,0.0,33.0,1.0,1.0,0.0,,,,,,,,,,,,,0,0,0,0,2,0,2,0,,,,,,,,,,,,,,,,,,,,,,,,,"['0', 'return']","[0.639002400013851, 0.819044700008817]",29.431549399974756,None,29.431549399974756,None,29.431549399974756,None,,,,,,,,1,001,2021_Nov_15_1221,eeg_contingent_digits,2021.2.3,60.00650470923362,
,,,,,0.0,1.0,2.0,0.0,33.0,1.0,1.0,0.0,,,,,,,,,,,,,0,0,0,0,,,,,,,,,,,,,,,,,,,,,,,,,,,,,,,,,,,,,30.29963080000016,None,None,None,None,None,None,1,001,2021_Nov_15_1221,eeg_contingent_digits,2021.2.3,60.00650470923362,
,,,,,1.0,0.0,8.0,3.0,49.0,1.0,0.0,1.0,,,,,,,,,,,,,0,1,1,1,0,0,0,0,,,,,,,,,,,,,,,33.31139919999987,None,0.006347580027068034,None,0.46646558001521043,None,0.971918680035742,None,35.407822699984536,36.411339699989185,"['0', 'return']","[1.2861708000127692, 1.999171200004639]",36.8534480999806,None,36.8534480999806,None,36.8534480999806,37.86135279998416,,,,,,,,1,001,2021_Nov_15_1221,eeg_contingent_digits,2021.2.3,60.00650470923362,
,,,,,1.0,0.0,8.0,3.0,49.0,1.0,0.0,1.0,,,,,,,,,,,,,0,1,1,1,1,0,1,0,,,,,,,,,,,,,,,,,,,,,,,,,"['1', 'return']","[0.28146620001643896, 0.9083704999939073]",38.89816429998609,None,38.89816429998609,None,38.89816429998609,None,,,,,,,,1,001,2021_Nov_15_1221,eeg_contingent_digits,2021.2.3,60.00650470923362,
,,,,,1.0,0.0,8.0,3.0,49.0,1.0,0.0,1.0,,,,,,,,,,,,,0,1,1,1,2,0,2,0,,,,,,,,,,,,,,,,,,,,,,,,,"['3', 'return']","[0.20059649998438545, 0.5114807999925688]",39.84816409999621,None,39.84816409999621,None,39.84816409999621,None,,,,,,,,1,001,2021_Nov_15_1221,eeg_contingent_digits,2021.2.3,60.00650470923362,
,,,,,1.0,0.0,8.0,3.0,49.0,1.0,0.0,1.0,,,,,,,,,,,,,0,1,1,1,,,,,,,,,,,,,,,,,,,,,,,,,,,,,,,,,,,,,40.39482789998874,None,None,None,None,None,None,1,001,2021_Nov_15_1221,eeg_contingent_digits,2021.2.3,60.00650470923362,
,,,,,2.0,4.0,9.0,2.0,7.0,1.0,1.0,0.0,,,,,,,,,,,,,0,2,2,2,0,0,0,0,,,,,,,,,,,,,,,43.39413579998654,None,0.015588199981721118,None,0.4872954999736976,None,0.9539131999772508,None,45.46237850000034,46.4771021999768,"['5', 'return']","[0.6179612000123598, 1.4448004000005312]",46.90576259998488,None,46.90576259998488,None,46.90576259998488,47.910396699997364,,,,,,,,1,001,2021_Nov_15_1221,eeg_contingent_digits,2021.2.3,60.00650470923362,
,,,,,2.0,4.0,9.0,2.0,7.0,1.0,1.0,0.0,,,,,,,,,,,,,0,2,2,2,1,0,1,0,,,,,,,,,,,,,,,,,,,,,,,,,"['9', 'return']","[0.10933259999728762, 0.5302072999766096]",48.397278699994786,None,48.397278699994786,None,48.397278699994786,None,,,,,,,,1,001,2021_Nov_15_1221,eeg_contingent_digits,2021.2.3,60.00650470923362,
,,,,,2.0,4.0,9.0,2.0,7.0,1.0,1.0,0.0,,,,,,,,,,,,,0,2,2,2,2,0,2,0,,,,,,,,,,,,,,,,,,,,,,,,,"['3', 'return']","[0.43577229999937117, 0.6026481000008062]",48.96396379999351,None,48.96396379999351,None,48.96396379999351,None,,,,,,,,1,001,2021_Nov_15_1221,eeg_contingent_digits,2021.2.3,60.00650470923362,
,,,,,2.0,4.0,9.0,2.0,7.0,1.0,1.0,0.0,,,,,,,,,,,,,0,2,2,2,,,,,,,,,,,,,,,,,,,,,,,,,,,,,,,,,,,,,49.610530399979325,None,None,None,None,None,None,1,001,2021_Nov_15_1221,eeg_contingent_digits,2021.2.3,60.00650470923362,
,,,,,3.0,6.0,2.0,9.0,33.0,1.0,0.0,-0.0,,,,,,,,,,,,,0,3,3,3,0,0,0,0,,,,,,,,,,,,,,,52.60977749997983,None,0.005097879999084398,None,0.47878497999045067,None,0.9620909799996298,None,54.676225199975306,55.676409599982435,"['6', 'return']","[0.4941473000217229, 0.7652547000034247]",56.12125009999727,None,56.12125009999727,None,56.12125009999727,None,,,,,,,,1,001,2021_Nov_15_1221,eeg_contingent_digits,2021.2.3,60.00650470923362,
,,,,,3.0,6.0,2.0,9.0,33.0,1.0,0.0,-0.0,,,,,,,,,,,,,0,3,3,3,1,0,1,0,,,,,,,,,,,,,,,,,,,,,,,,,"['2', 'return']","[0.3288944999803789, 0.49707009998383]",56.9295438999834,None,56.9295438999834,None,56.9295438999834,None,,,,,,,,1,001,2021_Nov_15_1221,eeg_contingent_digits,2021.2.3,60.00650470923362,
,,,,,3.0,6.0,2.0,9.0,33.0,1.0,0.0,-0.0,,,,,,,,,,,,,0,3,3,3,2,0,2,0,,,,,,,,,,,,,,,,,,,,,,,,,"['9', 'return']","[0.2419575999956578, 0.3768139999883715]",57.46334289998049,None,57.46334289998049,None,57.46334289998049,None,,,,,,,,1,001,2021_Nov_15_1221,eeg_contingent_digits,2021.2.3,60.00650470923362,
,,,,,3.0,6.0,2.0,9.0,33.0,1.0,0.0,-0.0,,,,,,,,,,,,,0,3,3,3,,,,,,,,,,,,,,,,,,,,,,,,,,,,,,,,,,,,,57.87639369998942,None,None,None,None,None,None,1,001,2021_Nov_15_1221,eeg_contingent_digits,2021.2.3,60.00650470923362,
,,,,,4.0,5.0,2.0,4.0,7.0,1.0,1.0,0.0,,,,,,,,,,,,,0,4,4,4,0,0,0,0,,,,,,,,,,,,,,,60.876001099997666,None,0.0036574800324160606,None,0.4638115800335072,None,0.9469635800342076,None,62.9398613999947,63.94228269997984,"['0', 'return']","[1.4931813000002876, 1.6700285999977496]",64.39147329999832,None,64.39147329999832,None,64.39147329999832,65.39260479999939,,,,,,,,1,001,2021_Nov_15_1221,eeg_contingent_digits,2021.2.3,60.00650470923362,
,,,,,4.0,5.0,2.0,4.0,7.0,1.0,1.0,0.0,,,,,,,,,,,,,0,4,4,4,1,0,1,0,,,,,,,,,,,,,,,,,,,,,,,,,"['3', 'return']","[0.289780699997209, 0.42501370000536554]",66.12365119997412,None,66.12365119997412,None,66.12365119997412,None,,,,,,,,1,001,2021_Nov_15_1221,eeg_contingent_digits,2021.2.3,60.00650470923362,
,,,,,4.0,5.0,2.0,4.0,7.0,1.0,1.0,0.0,,,,,,,,,,,,,0,4,4,4,2,0,2,0,,,,,,,,,,,,,,,,,,,,,,,,,"['5', 'return']","[0.11548219999531284, 0.2503932999970857]",66.60080289997859,None,66.60080289997859,None,66.60080289997859,None,,,,,,,,1,001,2021_Nov_15_1221,eeg_contingent_digits,2021.2.3,60.00650470923362,
,,,,,4.0,5.0,2.0,4.0,7.0,1.0,1.0,0.0,,,,,,,,,,,,,0,4,4,4,,,,,,,,,,,,,,,,,,,,,,,,,,,,,,,,,,,,,66.8985810999875,None,None,None,None,None,None,1,001,2021_Nov_15_1221,eeg_contingent_digits,2021.2.3,60.00650470923362,
,,,,,5.0,9.0,1.0,2.0,14.0,1.0,0.0,-1.0,,,,,,,,,,,,,0,5,5,5,0,0,0,0,,,,,,,,,,,,,,,69.90863239997998,None,0.003878480027196929,None,0.48211988000548445,None,0.9654231800232083,None,72.01985669997521,73.02508649998344,"['7', 'return']","[0.31034960001125, 0.593486199999461]",73.47135999999591,None,73.47135999999591,None,73.47135999999591,None,,,,,,,,1,001,2021_Nov_15_1221,eeg_contingent_digits,2021.2.3,60.00650470923362,
,,,,,5.0,9.0,1.0,2.0,14.0,1.0,0.0,-1.0,,,,,,,,,,,,,0,5,5,5,1,0,1,0,,,,,,,,,,,,,,,,,,,,,,,,,"['1', 'return']","[0.1282622000144329, 0.27176020000479184]",74.11220009997487,None,74.11220009997487,None,74.11220009997487,None,,,,,,,,1,001,2021_Nov_15_1221,eeg_contingent_digits,2021.2.3,60.00650470923362,
,,,,,5.0,9.0,1.0,2.0,14.0,1.0,0.0,-1.0,,,,,,,,,,,,,0,5,5,5,2,0,2,0,,,,,,,,,,,,,,,,,,,,,,,,,"['2', 'return']","[0.09934570000041276, 0.19975550001254305]",74.42782769998303,None,74.42782769998303,None,74.42782769998303,None,,,,,,,,1,001,2021_Nov_15_1221,eeg_contingent_digits,2021.2.3,60.00650470923362,
,,,,,5.0,9.0,1.0,2.0,14.0,1.0,0.0,-1.0,,,,,,,,,,,,,0,5,5,5,,,,,,,,,,,,,,,,,,,,,,,,,,,,,,,,,,,,,74.67536239998299,None,None,None,None,None,None,1,001,2021_Nov_15_1221,eeg_contingent_digits,2021.2.3,60.00650470923362,
,,,,,6.0,4.0,2.0,9.0,33.0,1.0,1.0,0.0,,,,,,,,,,,,,0,6,6,6,0,0,0,0,,,,,,,,,,,,,,,77.67461829999229,None,0.005896579998079687,None,0.47594527999171987,None,0.9593758800183423,None,79.76068249999662,80.77436869998928,"['7', 'return']","[0.6444191999908071, 0.8008847000019159]",81.20186299999477,None,81.20186299999477,None,81.20186299999477,None,,,,,,,,1,001,2021_Nov_15_1221,eeg_contingent_digits,2021.2.3,60.00650470923362,
,,,,,6.0,4.0,2.0,9.0,33.0,1.0,1.0,0.0,,,,,,,,,,,,,0,6,6,6,1,0,1,0,,,,,,,,,,,,,,,,,,,,,,,,,"['2', 'return']","[0.24328370002331212, 0.36252360002254136]",82.04506019997643,None,82.04506019997643,None,82.04506019997643,None,,,,,,,,1,001,2021_Nov_15_1221,eeg_contingent_digits,2021.2.3,60.00650470923362,
,,,,,6.0,4.0,2.0,9.0,33.0,1.0,1.0,0.0,,,,,,,,,,,,,0,6,6,6,2,0,2,0,,,,,,,,,,,,,,,,,,,,,,,,,"['9', 'return']","[0.2824880999978632, 0.4177997999940999]",82.44470100000035,None,82.44470100000035,None,82.44470100000035,None,,,,,,,,1,001,2021_Nov_15_1221,eeg_contingent_digits,2021.2.3,60.00650470923362,
,,,,,6.0,4.0,2.0,9.0,33.0,1.0,1.0,0.0,,,,,,,,,,,,,0,6,6,6,,,,,,,,,,,,,,,,,,,,,,,,,,,,,,,,,,,,,82.90796329997829,None,None,None,None,None,None,1,001,2021_Nov_15_1221,eeg_contingent_digits,2021.2.3,60.00650470923362,
,,,,,7.0,9.0,6.0,3.0,21.0,1.0,0.0,-1.0,,,,,,,,,,,,,0,7,7,7,0,0,0,0,,,,,,,,,,,,,,,85.90802829997847,None,0.0032219800050370395,None,0.47740808001253754,None,0.9438928800227586,None,88.02434539998649,89.02379139998811,"['9', 'return']","[0.43745399999897927, 0.5844432000012603]",89.46580179999,None,89.46580179999,None,89.46580179999,None,,,,,,,,1,001,2021_Nov_15_1221,eeg_contingent_digits,2021.2.3,60.00650470923362,
,,,,,7.0,9.0,6.0,3.0,21.0,1.0,0.0,-1.0,,,,,,,,,,,,,0,7,7,7,1,0,1,0,,,,,,,,,,,,,,,,,,,,,,,,,"['6', 'return']","[0.4671950000047218, 0.5942911000165623]",90.09893859998556,None,90.09893859998556,None,90.09893859998556,None,,,,,,,,1,001,2021_Nov_15_1221,eeg_contingent_digits,2021.2.3,60.00650470923362,
,,,,,7.0,9.0,6.0,3.0,21.0,1.0,0.0,-1.0,,,,,,,,,,,,,0,7,7,7,2,0,2,0,,,,,,,,,,,,,,,,,,,,,,,,,"['3', 'return']","[0.2523518999805674, 0.35982630000216886]",90.74377559998538,None,90.74377559998538,None,90.74377559998538,None,,,,,,,,1,001,2021_Nov_15_1221,eeg_contingent_digits,2021.2.3,60.00650470923362,
,,,,,7.0,9.0,6.0,3.0,21.0,1.0,0.0,-1.0,,,,,,,,,,,,,0,7,7,7,,,,,,,,,,,,,,,,,,,,,,,,,,,,,,,,,,,,,91.14226769999368,None,None,None,None,None,None,1,001,2021_Nov_15_1221,eeg_contingent_digits,2021.2.3,60.00650470923362,
,,,,,8.0,1.0,5.0,9.0,13.0,1.0,1.0,0.0,,,,,,,,,,,,,0,8,8,8,0,0,0,0,,,,,,,,,,,,,,,94.15680989998509,None,0.001954979990841821,None,0.4647547799977474,None,0.9480309799837414,None,96.2169339999964,97.22295839997241,"['1', 'return']","[0.41830739998840727, 0.8527422999904957]",97.66811979998602,None,97.66811979998602,None,97.66811979998602,None,,,,,,,,1,001,2021_Nov_15_1221,eeg_contingent_digits,2021.2.3,60.00650470923362,
,,,,,8.0,1.0,5.0,9.0,13.0,1.0,1.0,0.0,,,,,,,,,,,,,0,8,8,8,1,0,1,0,,,,,,,,,,,,,,,,,,,,,,,,,"['5', 'return']","[0.1681222000042908, 0.36470940001890995]",98.56183049999527,None,98.56183049999527,None,98.56183049999527,None,,,,,,,,1,001,2021_Nov_15_1221,eeg_contingent_digits,2021.2.3,60.00650470923362,
,,,,,8.0,1.0,5.0,9.0,13.0,1.0,1.0,0.0,,,,,,,,,,,,,0,8,8,8,2,0,2,0,,,,,,,,,,,,,,,,,,,,,,,,,"['9', 'return']","[0.10391949999029748, 0.22312219999730587]",98.9772721999907,None,98.9772721999907,None,98.9772721999907,None,,,,,,,,1,001,2021_Nov_15_1221,eeg_contingent_digits,2021.2.3,60.00650470923362,
,,,,,8.0,1.0,5.0,9.0,13.0,1.0,1.0,0.0,,,,,,,,,,,,,0,8,8,8,,,,,,,,,,,,,,,,,,,,,,,,,,,,,,,,,,,,,99.24068179997266,None,None,None,None,None,None,1,001,2021_Nov_15_1221,eeg_contingent_digits,2021.2.3,60.00650470923362,
,,,,,9.0,0.0,6.0,5.0,21.0,1.0,0.0,2.0,,,,,,,,,,,,,0,9,9,9,0,0,0,0,,,,,,,,,,,,,,,102.2560383999953,None,0.004168379993643612,None,0.49870878001092933,None,0.9774183800036553,None,104.33968629999436,105.33908439998049,"['0', 'return']","[0.3973855999938678, 0.6226012999832164]",105.79892589998781,None,105.79892589998781,None,105.79892589998781,None,,,,,,,,1,001,2021_Nov_15_1221,eeg_contingent_digits,2021.2.3,60.00650470923362,
,,,,,9.0,0.0,6.0,5.0,21.0,1.0,0.0,2.0,,,,,,,,,,,,,0,9,9,9,1,0,1,0,,,,,,,,,,,,,,,,,,,,,,,,,"['6', 'return']","[0.3995351000048686, 0.5808575999981258]",106.45961019999231,None,106.45961019999231,None,106.45961019999231,None,,,,,,,,1,001,2021_Nov_15_1221,eeg_contingent_digits,2021.2.3,60.00650470923362,
,,,,,9.0,0.0,6.0,5.0,21.0,1.0,0.0,2.0,,,,,,,,,,,,,0,9,9,9,2,0,2,0,,,,,,,,,,,,,,,,,,,,,,,,,"['5', 'return']","[0.14249549998203292, 0.2772914999804925]",107.07804709998891,None,107.07804709998891,None,107.07804709998891,None,,,,,,,,1,001,2021_Nov_15_1221,eeg_contingent_digits,2021.2.3,60.00650470923362,
,,,,,9.0,0.0,6.0,5.0,21.0,1.0,0.0,2.0,,,,,,,,,,,,,0,9,9,9,,,,,,,,,,,,,,,,,,,,,,,,,,,,,,,,,,,,,107.39010389999021,None,None,None,None,None,None,1,001,2021_Nov_15_1221,eeg_contingent_digits,2021.2.3,60.00650470923362,
,,,,,10.0,4.0,2.0,1.0,33.0,1.0,1.0,0.0,,,,,,,,,,,,,0,10,10,10,0,0,0,0,,,,,,,,,,,,,,,110.40531179998652,None,0.014521599980071187,None,0.4721677999768872,None,0.9751683999784291,None,112.47130559998914,113.47183859997313,"['1', 'return']","[0.5740510000032373, 0.7125950999907218]",113.91281899999012,None,113.91281899999012,None,113.91281899999012,None,,,,,,,,1,001,2021_Nov_15_1221,eeg_contingent_digits,2021.2.3,60.00650470923362,
,,,,,10.0,4.0,2.0,1.0,33.0,1.0,1.0,0.0,,,,,,,,,,,,,0,10,10,10,1,0,1,0,,,,,,,,,,,,,,,,,,,,,,,,,"['2', 'return']","[0.024117000022670254, 0.24372450000373647]",114.67659489999642,None,114.67659489999642,None,114.67659489999642,None,,,,,,,,1,001,2021_Nov_15_1221,eeg_contingent_digits,2021.2.3,60.00650470923362,
,,,,,10.0,4.0,2.0,1.0,33.0,1.0,1.0,0.0,,,,,,,,,,,,,0,10,10,10,2,0,2,0,,,,,,,,,,,,,,,,,,,,,,,,,"['8', 'return']","[0.18304400000488386, 0.31373950000852346]",114.95866349997232,None,114.95866349997232,None,114.95866349997232,None,,,,,,,,1,001,2021_Nov_15_1221,eeg_contingent_digits,2021.2.3,60.00650470923362,
,,,,,10.0,4.0,2.0,1.0,33.0,1.0,1.0,0.0,,,,,,,,,,,,,0,10,10,10,,,,,,,,,,,,,,,,,,,,,,,,,,,,,,,,,,,,,115.30675479999627,None,None,None,None,None,None,1,001,2021_Nov_15_1221,eeg_contingent_digits,2021.2.3,60.00650470923362,
,,,,,11.0,0.0,5.0,9.0,48.0,1.0,0.0,2.0,,,,,,,,,,,,,0,11,11,11,0,0,0,0,,,,,,,,,,,,,,,118.32364550000057,None,0.0022708800388500094,None,0.47442558003240265,None,0.9576003800320905,None,120.40693589998409,121.40444469999056,"['0', 'return']","[0.3681734999991022, 0.5200202999985777]",121.86738119999063,None,121.86738119999063,None,121.86738119999063,None,,,,,,,,1,001,2021_Nov_15_1221,eeg_contingent_digits,2021.2.3,60.00650470923362,
,,,,,11.0,0.0,5.0,9.0,48.0,1.0,0.0,2.0,,,,,,,,,,,,,0,11,11,11,1,0,1,0,,,,,,,,,,,,,,,,,,,,,,,,,"['5', 'return']","[0.2904244999808725, 0.4171304999908898]",122.43338069997844,None,122.43338069997844,None,122.43338069997844,None,,,,,,,,1,001,2021_Nov_15_1221,eeg_contingent_digits,2021.2.3,60.00650470923362,
,,,,,11.0,0.0,5.0,9.0,48.0,1.0,0.0,2.0,,,,,,,,,,,,,0,11,11,11,2,0,2,0,,,,,,,,,,,,,,,,,,,,,,,,,"['9', 'return']","[0.18288119998760521, 0.3436490999883972]",122.90030609999667,None,122.90030609999667,None,122.90030609999667,None,,,,,,,,1,001,2021_Nov_15_1221,eeg_contingent_digits,2021.2.3,60.00650470923362,
,,,,,11.0,0.0,5.0,9.0,48.0,1.0,0.0,2.0,,,,,,,,,,,,,0,11,11,11,,,,,,,,,,,,,,,,,,,,,,,,,,,,,,,,,,,,,123.29745319997892,None,None,None,None,None,None,1,001,2021_Nov_15_1221,eeg_contingent_digits,2021.2.3,60.00650470923362,
,,,,,12.0,0.0,4.0,3.0,61.0,1.0,1.0,0.0,,,,,,,,,,,,,0,12,12,12,0,0,0,0,,,,,,,,,,,,,,,126.30423839998548,None,0.0057515800290275365,None,0.47899918002076447,None,0.962364080012776,None,128.40570299999672,129.42050699997344,"['6', 'return']","[0.6405685000063386, 0.7913839000102598]",129.85712859997875,None,129.85712859997875,None,129.85712859997875,None,,,,,,,,1,001,2021_Nov_15_1221,eeg_contingent_digits,2021.2.3,60.00650470923362,
,,,,,12.0,0.0,4.0,3.0,61.0,1.0,1.0,0.0,,,,,,,,,,,,,0,12,12,12,1,0,1,0,,,,,,,,,,,,,,,,,,,,,,,,,"['6', 'return']","[0.14455769999767654, 0.2907182999770157]",130.70593749999534,None,130.70593749999534,None,130.70593749999534,None,,,,,,,,1,001,2021_Nov_15_1221,eeg_contingent_digits,2021.2.3,60.00650470923362,
,,,,,12.0,0.0,4.0,3.0,61.0,1.0,1.0,0.0,,,,,,,,,,,,,0,12,12,12,2,0,2,0,,,,,,,,,,,,,,,,,,,,,,,,,"['6', 'return']","[0.12613889999920502, 0.32548640001914464]",131.0524810999923,None,131.0524810999923,None,131.0524810999923,None,,,,,,,,1,001,2021_Nov_15_1221,eeg_contingent_digits,2021.2.3,60.00650470923362,
,,,,,12.0,0.0,4.0,3.0,61.0,1.0,1.0,0.0,,,,,,,,,,,,,0,12,12,12,,,,,,,,,,,,,,,,,,,,,,,,,,,,,,,,,,,,,131.43334399999003,None,None,None,None,None,None,1,001,2021_Nov_15_1221,eeg_contingent_digits,2021.2.3,60.00650470923362,
,,,,,13.0,4.0,9.0,0.0,7.0,1.0,0.0,2.0,,,,,,,,,,,,,0,13,13,13,0,0,0,0,,,,,,,,,,,,,,,134.44160189997638,None,0.0023701800091657788,None,0.4737750800268259,None,0.9569852800341323,None,136.54169849999016,137.55332639999688,"['7', 'return']","[1.2512309000012465, 1.4070278000144754]",137.9951191,None,137.9951191,None,137.9951191,139.00348859999212,,,,,,,,1,001,2021_Nov_15_1221,eeg_contingent_digits,2021.2.3,60.00650470923362,
,,,,,13.0,4.0,9.0,0.0,7.0,1.0,0.0,2.0,,,,,,,,,,,,,0,13,13,13,1,0,1,0,,,,,,,,,,,,,,,,,,,,,,,,,"['9', 'return']","[0.6072062000166625, 0.7751252000161912]",139.45455269998638,None,139.45455269998638,None,139.45455269998638,None,,,,,,,,1,001,2021_Nov_15_1221,eeg_contingent_digits,2021.2.3,60.00650470923362,
,,,,,13.0,4.0,9.0,0.0,7.0,1.0,0.0,2.0,,,,,,,,,,,,,0,13,13,13,2,0,2,0,,,,,,,,,,,,,,,,,,,,,,,,,"['0', 'return']","[0.06758889998309314, 0.1666786999849137]",140.2848780999775,None,140.2848780999775,None,140.2848780999775,None,,,,,,,,1,001,2021_Nov_15_1221,eeg_contingent_digits,2021.2.3,60.00650470923362,
,,,,,13.0,4.0,9.0,0.0,7.0,1.0,0.0,2.0,,,,,,,,,,,,,0,13,13,13,,,,,,,,,,,,,,,,,,,,,,,,,,,,,,,,,,,,,140.5007391999825,None,None,None,None,None,None,1,001,2021_Nov_15_1221,eeg_contingent_digits,2021.2.3,60.00650470923362,
