videoFile,condition,video,speaker,callSign,colour,number,seq,id,block,exp.thisRepN,exp.thisTrialN,exp.thisN,exp.thisIndex,training.thisRepN,training.thisTrialN,training.thisN,training.thisIndex,firstHalf.thisRepN,firstHalf.thisTrialN,firstHalf.thisN,firstHalf.thisIndex,blocksA.thisRepN,blocksA.thisTrialN,blocksA.thisN,blocksA.thisIndex,secondHalf.thisRepN,secondHalf.thisTrialN,secondHalf.thisN,secondHalf.thisIndex,blocksB.thisRepN,blocksB.thisTrialN,blocksB.thisN,blocksB.thisIndex,mouseClickOnCall.x,mouseClickOnCall.y,mouseClickOnCall.leftButton,mouseClickOnCall.midButton,mouseClickOnCall.rightButton,mouseClickOnCall.time,mouseClickOnCall.clicked_name,mouseClickOnColour.x,mouseClickOnColour.y,mouseClickOnColour.leftButton,mouseClickOnColour.midButton,mouseClickOnColour.rightButton,mouseClickOnColour.time,mouseClickOnColour.clicked_name,mouseClickOnNumber.x,mouseClickOnNumber.y,mouseClickOnNumber.leftButton,mouseClickOnNumber.midButton,mouseClickOnNumber.rightButton,mouseClickOnNumber.time,mouseClickOnNumber.clicked_name,callSignCorrect,colourCorrect,numberCorrect,participant,order,date,expName,psychopyVersion,frameRate,
video/Training/zh_sp01_Ad_We_4_NVocInAudio_NoVideo.avi,vocoded,noVideo,sp01,Ad,We,4,,,,,,,,0,0,0,0,,,,,,,,,,,,,,,,,-0.4115740740740741,0.30277777777777776,1,0,0,7.210441700008232,call1,-0.010185185185185186,-0.3263888888888889,1,0,0,8.392468500009272,colour4,0.40694444444444444,-0.30694444444444446,1,0,0,9.358052499999758,number4,True,True,True,11,1,2019_Nov_12_1405,MA_Theta_Exp,3.0.7,60.266922196246476,
video/Training/zh_sp07_Ad_Ge_3_NVocInAudio_NoVideo.avi,vocoded,noVideo,sp07,Ad,Ge,3,,,,,,,,0,1,1,1,,,,,,,,,,,,,,,,,-0.3921296296296296,0.31527777777777777,1,0,0,6.1761977999995,call1,-0.018518518518518517,0.30694444444444446,1,0,0,7.06969120001304,colour1,0.3625,-0.10138888888888889,1,0,0,8.137157899996964,number3,True,True,True,11,1,2019_Nov_12_1405,MA_Theta_Exp,3.0.7,60.266922196246476,
video/Training/zh_sp01_Dr_Ro_3_NVocInAudio_GlobalThetaInVideo.avi,vocoded,plusVideo,sp01,Dr,Ro,3,,,,,,,,0,2,2,2,,,,,,,,,,,,,,,,,-0.4393518518518518,0.10555555555555556,1,0,0,5.734868500003358,call2,0.009722222222222222,-0.10277777777777777,1,0,0,6.815977899997961,colour3,0.42314814814814816,-0.09583333333333334,1,0,0,7.931220200000098,number3,True,True,True,11,1,2019_Nov_12_1405,MA_Theta_Exp,3.0.7,60.266922196246476,
video/Training/zh_sp07_Dr_Gr_4_NVocInAudio_GlobalThetaInVideo.avi,vocoded,plusVideo,sp07,Dr,Gr,4,,,,,,,,0,3,3,3,,,,,,,,,,,,,,,,,-0.42824074074074076,0.10694444444444444,1,0,0,5.226753800001461,call2,-0.004629629629629629,0.09722222222222222,1,0,0,5.980673499987461,colour2,0.3800925925925926,-0.30694444444444446,1,0,0,6.840772700001253,number4,True,True,True,11,1,2019_Nov_12_1405,MA_Theta_Exp,3.0.7,60.266922196246476,
video/Training/zh_sp01_Ti_Gr_2_NoThetaInAudio_NoVideo.avi,noTheta,noVideo,sp01,Ti,Gr,2,,,,,,,,0,4,4,4,,,,,,,,,,,,,,,,,-0.3990740740740741,-0.1,1,0,0,13.27489559998503,call3,,,,,,,,,,,,,,,True,NO_ANSW,NO_ANSW,11,1,2019_Nov_12_1405,MA_Theta_Exp,3.0.7,60.266922196246476,
video/Training/zh_sp07_Ti_Ro_1_NoThetaInAudio_NoVideo.avi,noTheta,noVideo,sp07,Ti,Ro,1,,,,,,,,0,5,5,5,,,,,,,,,,,,,,,,,-0.412962962962963,0.2638888888888889,1,0,0,8.046287899982417,call1,-0.002777777777777778,0.08055555555555556,1,0,0,11.146577300009085,colour2,0.3578703703703704,0.2777777777777778,1,0,0,11.935166499984916,number1,False,False,True,11,1,2019_Nov_12_1405,MA_Theta_Exp,3.0.7,60.266922196246476,
video/Training/zh_sp01_Un_Ge_1_NoThetaInAudio_GlobalThetaInVideo.avi,noTheta,plusVideo,sp01,Un,Ge,1,,,,,,,,0,6,6,6,,,,,,,,,,,,,,,,,-0.4115740740740741,0.10555555555555556,1,0,0,6.05175800001598,call2,0.009722222222222222,0.3111111111111111,1,0,0,6.860839900007704,colour1,0.38055555555555554,0.30694444444444446,1,0,0,7.491462399979355,number1,False,True,True,11,1,2019_Nov_12_1405,MA_Theta_Exp,3.0.7,60.266922196246476,
video/Training/zh_sp07_Un_We_2_NoThetaInAudio_GlobalThetaInVideo.avi,noTheta,plusVideo,sp07,Un,We,2,,,,,,,,0,7,7,7,,,,,,,,,,,,,,,,,-0.4083333333333333,0.12222222222222222,1,0,0,5.317849099985324,call2,-0.001851851851851852,-0.3,1,0,0,6.22491199997603,colour4,0.3925925925925926,0.1375,1,0,0,7.037635299988324,number2,False,True,True,11,1,2019_Nov_12_1405,MA_Theta_Exp,3.0.7,60.266922196246476,
video/Training/zh_sp01_Ad_Ge_1_GlobalTheta_NoVideo.avi,globalTheta,noVideo,sp01,Ad,Ge,1,,,,,,,,0,8,8,8,,,,,,,,,,,,,,,,,-0.4041666666666667,-0.2902777777777778,1,0,0,9.436831200000597,call4,0.009722222222222222,-0.3472222222222222,1,0,0,11.477765500021633,colour4,0.36944444444444446,0.3375,1,0,0,12.2330348000105,number1,False,False,True,11,1,2019_Nov_12_1405,MA_Theta_Exp,3.0.7,60.266922196246476,
video/Training/zh_sp07_Ad_Ro_3_GlobalTheta_NoVideo.avi,globalTheta,noVideo,sp07,Ad,Ro,3,,,,,,,,0,9,9,9,,,,,,,,,,,,,,,,,-0.4,0.30694444444444446,1,0,0,5.84880360000534,call1,-0.005555555555555556,-0.3013888888888889,1,0,0,9.52355769998394,colour4,0.38981481481481484,-0.10416666666666667,1,0,0,10.141385900002206,number3,True,False,True,11,1,2019_Nov_12_1405,MA_Theta_Exp,3.0.7,60.266922196246476,
video/Experiment/zh_sp07_Dr_Gr_3_NVocInAudio_NoVideo.avi,vocoded,noVideo,sp07,Dr,Gr,3,0,2,flow/blocks/NVocInAudio_NoVideo_A.csv,,,,,,,,,0,0,0,0,0,0,0,22,,,,,,,,,-0.3921296296296296,0.10138888888888889,1,0,0,5.284216300002299,call2,-0.03518518518518519,0.10555555555555556,1,0,0,5.999695100006647,colour2,0.4361111111111111,-0.12777777777777777,1,0,0,7.185495299985632,number3,True,True,True,11,1,2019_Nov_12_1405,MA_Theta_Exp,3.0.7,60.266922196246476,
video/Experiment/zh_sp01_Ad_Ge_3_NVocInAudio_NoVideo.avi,vocoded,noVideo,sp01,Ad,Ge,3,0,2,flow/blocks/NVocInAudio_NoVideo_A.csv,,,,,,,,,0,0,0,0,0,1,1,2,,,,,,,,,-0.4324074074074074,0.3194444444444444,1,0,0,5.059646799985785,call1,0.005555555555555556,0.31527777777777777,1,0,0,5.6910173000069335,colour1,0.38055555555555554,-0.08055555555555556,1,0,0,6.5263968000072055,number3,True,True,True,11,1,2019_Nov_12_1405,MA_Theta_Exp,3.0.7,60.266922196246476,
video/Experiment/zh_sp07_Dr_Gr_2_NVocInAudio_NoVideo.avi,vocoded,noVideo,sp07,Dr,Gr,2,0,2,flow/blocks/NVocInAudio_NoVideo_A.csv,,,,,,,,,0,0,0,0,0,2,2,21,,,,,,,,,-0.4393518518518518,0.12361111111111112,1,0,0,4.7391617000103,call2,-0.030555555555555555,0.1111111111111111,1,0,0,5.362491500010947,colour2,0.38425925925925924,0.09027777777777778,1,0,0,5.935985799995251,number2,True,True,True,11,1,2019_Nov_12_1405,MA_Theta_Exp,3.0.7,60.266922196246476,
video/Experiment/zh_sp01_Dr_We_4_NVocInAudio_NoVideo.avi,vocoded,noVideo,sp01,Dr,We,4,0,2,flow/blocks/NVocInAudio_NoVideo_A.csv,,,,,,,,,0,0,0,0,0,3,3,31,,,,,,,,,-0.42083333333333334,0.11944444444444445,1,0,0,5.944136799982516,call2,-0.000462962962962963,-0.2986111111111111,1,0,0,6.833509899995988,colour4,0.40555555555555556,-0.29305555555555557,1,0,0,7.657841100008227,number4,True,True,True,11,1,2019_Nov_12_1405,MA_Theta_Exp,3.0.7,60.266922196246476,
video/Experiment/zh_sp07_Dr_Ge_4_NVocInAudio_NoVideo.avi,vocoded,noVideo,sp07,Dr,Ge,4,0,2,flow/blocks/NVocInAudio_NoVideo_A.csv,,,,,,,,,0,0,0,0,0,4,4,19,,,,,,,,,-0.42268518518518516,0.12361111111111112,1,0,0,5.766879200004041,call2,-0.02962962962962963,0.26805555555555555,1,0,0,6.506895899976371,colour1,0.4023148148148148,-0.30694444444444446,1,0,0,7.533166799985338,number4,True,True,True,11,1,2019_Nov_12_1405,MA_Theta_Exp,3.0.7,60.266922196246476,
video/Experiment/zh_sp01_Dr_We_3_NVocInAudio_NoVideo.avi,vocoded,noVideo,sp01,Dr,We,3,0,2,flow/blocks/NVocInAudio_NoVideo_A.csv,,,,,,,,,0,0,0,0,0,5,5,30,,,,,,,,,-0.41435185185185186,0.10277777777777777,1,0,0,5.2287168000184465,call2,-0.02824074074074074,-0.2972222222222222,1,0,0,6.068987400009064,colour4,0.3787037037037037,-0.12916666666666668,1,0,0,6.778034800023306,number3,True,True,True,11,1,2019_Nov_12_1405,MA_Theta_Exp,3.0.7,60.266922196246476,
video/Experiment/zh_sp07_Ad_Ge_1_NVocInAudio_NoVideo.avi,vocoded,noVideo,sp07,Ad,Ge,1,0,2,flow/blocks/NVocInAudio_NoVideo_A.csv,,,,,,,,,0,0,0,0,0,6,6,0,,,,,,,,,-0.3921296296296296,0.3055555555555556,1,0,0,6.642729199986206,call1,0.06388888888888888,0.2972222222222222,1,0,0,7.319843800010858,colour1,0.4236111111111111,0.2722222222222222,1,0,0,8.003292800014606,number1,True,True,True,11,1,2019_Nov_12_1405,MA_Theta_Exp,3.0.7,60.266922196246476,
video/Experiment/zh_sp07_Ad_Ro_1_NVocInAudio_NoVideo.avi,vocoded,noVideo,sp07,Ad,Ro,1,0,2,flow/blocks/NVocInAudio_NoVideo_A.csv,,,,,,,,,0,0,0,0,0,7,7,8,,,,,,,,,-0.4532407407407407,0.30833333333333335,1,0,0,4.4994959000032395,call1,-0.02824074074074074,-0.07777777777777778,1,0,0,5.389491000009002,colour3,0.3523148148148148,0.3263888888888889,1,0,0,6.269961500016507,number1,True,True,True,11,1,2019_Nov_12_1405,MA_Theta_Exp,3.0.7,60.266922196246476,
video/Experiment/zh_sp01_Ad_Ge_2_NVocInAudio_NoVideo.avi,vocoded,noVideo,sp01,Ad,Ge,2,0,2,flow/blocks/NVocInAudio_NoVideo_A.csv,,,,,,,,,0,0,0,0,0,8,8,1,,,,,,,,,-0.3861111111111111,0.3013888888888889,1,0,0,5.616286900010891,call1,0.024537037037037038,0.30972222222222223,1,0,0,6.281639699998777,colour1,0.39166666666666666,0.12777777777777777,1,0,0,6.902228999999352,number2,True,True,True,11,1,2019_Nov_12_1405,MA_Theta_Exp,3.0.7,60.266922196246476,
video/Experiment/zh_sp07_Dr_Ge_3_NVocInAudio_NoVideo.avi,vocoded,noVideo,sp07,Dr,Ge,3,0,2,flow/blocks/NVocInAudio_NoVideo_A.csv,,,,,,,,,0,0,0,0,0,9,9,18,,,,,,,,,-0.3861111111111111,0.09722222222222222,1,0,0,4.962896999990335,call2,-0.001388888888888889,0.27361111111111114,1,0,0,5.7307093999988865,colour1,0.3578703703703704,-0.06666666666666667,1,0,0,6.486244600004284,number3,True,True,True,11,1,2019_Nov_12_1405,MA_Theta_Exp,3.0.7,60.266922196246476,
video/Experiment/zh_sp07_Dr_We_1_NVocInAudio_NoVideo.avi,vocoded,noVideo,sp07,Dr,We,1,0,2,flow/blocks/NVocInAudio_NoVideo_A.csv,,,,,,,,,0,0,0,0,0,10,10,28,,,,,,,,,-0.425462962962963,0.12638888888888888,1,0,0,4.54725979999057,call2,-0.007407407407407408,-0.35138888888888886,1,0,0,5.521575199993094,colour4,0.4027777777777778,0.325,1,0,0,6.684883200010518,number1,True,True,True,11,1,2019_Nov_12_1405,MA_Theta_Exp,3.0.7,60.266922196246476,
video/Experiment/zh_sp01_Ad_Gr_4_NVocInAudio_NoVideo.avi,vocoded,noVideo,sp01,Ad,Gr,4,0,2,flow/blocks/NVocInAudio_NoVideo_A.csv,,,,,,,,,0,0,0,0,0,11,11,7,,,,,,,,,-0.3527777777777778,0.10555555555555556,1,0,0,7.840078699984588,call2,0.006944444444444444,0.10972222222222222,1,0,0,8.487379799975315,colour2,0.37175925925925923,-0.35,1,0,0,9.220300199987832,number4,False,True,True,11,1,2019_Nov_12_1405,MA_Theta_Exp,3.0.7,60.266922196246476,
video/Experiment/zh_sp07_Ad_Ro_4_NVocInAudio_NoVideo.avi,vocoded,noVideo,sp07,Ad,Ro,4,0,2,flow/blocks/NVocInAudio_NoVideo_A.csv,,,,,,,,,0,0,0,0,0,12,12,11,,,,,,,,,-0.4449074074074074,0.30833333333333335,1,0,0,4.758782399992924,call1,-0.0032407407407407406,-0.08888888888888889,1,0,0,5.468826099997386,colour3,0.4361111111111111,-0.31527777777777777,1,0,0,6.257924999983516,number4,True,True,True,11,1,2019_Nov_12_1405,MA_Theta_Exp,3.0.7,60.266922196246476,
video/Experiment/zh_sp01_Dr_Ro_3_NVocInAudio_NoVideo.avi,vocoded,noVideo,sp01,Dr,Ro,3,0,2,flow/blocks/NVocInAudio_NoVideo_A.csv,,,,,,,,,0,0,0,0,0,13,13,26,,,,,,,,,-0.39305555555555555,0.1111111111111111,1,0,0,5.21796350000659,call2,-0.011574074074074073,-0.06388888888888888,1,0,0,5.92348719999427,colour3,0.42592592592592593,-0.13194444444444445,1,0,0,6.503575200011255,number3,True,True,True,11,1,2019_Nov_12_1405,MA_Theta_Exp,3.0.7,60.266922196246476,
video/Experiment/zh_sp01_Ad_Ro_3_NVocInAudio_NoVideo.avi,vocoded,noVideo,sp01,Ad,Ro,3,0,2,flow/blocks/NVocInAudio_NoVideo_A.csv,,,,,,,,,0,0,0,0,0,14,14,10,,,,,,,,,-0.4060185185185185,0.325,1,0,0,5.16331989999162,call1,-0.022685185185185187,-0.06111111111111111,1,0,0,5.807165500009432,colour3,0.3773148148148148,-0.10833333333333334,1,0,0,6.5785672000201885,number3,True,True,True,11,1,2019_Nov_12_1405,MA_Theta_Exp,3.0.7,60.266922196246476,
video/Experiment/zh_sp07_Ad_We_1_NVocInAudio_NoVideo.avi,vocoded,noVideo,sp07,Ad,We,1,0,2,flow/blocks/NVocInAudio_NoVideo_A.csv,,,,,,,,,0,0,0,0,0,15,15,12,,,,,,,,,-0.42777777777777776,0.3375,1,0,0,4.576046399975894,call1,0.013425925925925926,-0.3541666666666667,1,0,0,5.551891999988584,colour4,0.34953703703703703,0.2652777777777778,1,0,0,6.401847499975702,number1,True,True,True,11,1,2019_Nov_12_1405,MA_Theta_Exp,3.0.7,60.266922196246476,
video/Experiment/zh_sp07_Dr_We_2_NVocInAudio_NoVideo.avi,vocoded,noVideo,sp07,Dr,We,2,0,2,flow/blocks/NVocInAudio_NoVideo_A.csv,,,,,,,,,0,0,0,0,0,16,16,29,,,,,,,,,-0.35833333333333334,0.12638888888888888,1,0,0,4.632802599982824,call2,-0.024074074074074074,-0.2833333333333333,1,0,0,5.419205599988345,colour4,0.3648148148148148,0.07361111111111111,1,0,0,6.1792947000067215,number2,True,True,True,11,1,2019_Nov_12_1405,MA_Theta_Exp,3.0.7,60.266922196246476,
video/Experiment/zh_sp07_Dr_Ge_2_NVocInAudio_NoVideo.avi,vocoded,noVideo,sp07,Dr,Ge,2,0,2,flow/blocks/NVocInAudio_NoVideo_A.csv,,,,,,,,,0,0,0,0,0,17,17,17,,,,,,,,,-0.41712962962962963,0.1,1,0,0,5.655052499991143,call2,-0.04351851851851852,0.2916666666666667,1,0,0,6.615554099989822,colour1,0.36342592592592593,0.08472222222222223,1,0,0,7.353998500009766,number2,True,True,True,11,1,2019_Nov_12_1405,MA_Theta_Exp,3.0.7,60.266922196246476,
video/Experiment/zh_sp07_Ad_Gr_1_NVocInAudio_NoVideo.avi,vocoded,noVideo,sp07,Ad,Gr,1,0,2,flow/blocks/NVocInAudio_NoVideo_A.csv,,,,,,,,,0,0,0,0,0,18,18,4,,,,,,,,,-0.36944444444444446,0.30833333333333335,1,0,0,4.6796506000100635,call1,0.05925925925925926,0.11388888888888889,1,0,0,5.239945399982389,colour2,0.4287037037037037,0.2638888888888889,1,0,0,5.8166218000114895,number1,True,True,True,11,1,2019_Nov_12_1405,MA_Theta_Exp,3.0.7,60.266922196246476,
video/Experiment/zh_sp01_Ad_We_4_NVocInAudio_NoVideo.avi,vocoded,noVideo,sp01,Ad,We,4,0,2,flow/blocks/NVocInAudio_NoVideo_A.csv,,,,,,,,,0,0,0,0,0,19,19,15,,,,,,,,,-0.42962962962962964,0.31805555555555554,1,0,0,5.220701800019015,call1,-0.010185185185185186,-0.2611111111111111,1,0,0,6.03727020000224,colour4,0.4023148148148148,-0.28194444444444444,1,0,0,6.5773992000031285,number4,True,True,True,11,1,2019_Nov_12_1405,MA_Theta_Exp,3.0.7,60.266922196246476,
video/Experiment/zh_sp01_Dr_Gr_4_NVocInAudio_NoVideo.avi,vocoded,noVideo,sp01,Dr,Gr,4,0,2,flow/blocks/NVocInAudio_NoVideo_A.csv,,,,,,,,,0,0,0,0,0,20,20,23,,,,,,,,,-0.4351851851851852,0.11388888888888889,1,0,0,5.3410827000043355,call2,-0.03657407407407407,0.1,1,0,0,5.976891900005285,colour2,0.4083333333333333,-0.29583333333333334,1,0,0,6.729022600018652,number4,True,True,True,11,1,2019_Nov_12_1405,MA_Theta_Exp,3.0.7,60.266922196246476,
video/Experiment/zh_sp07_Dr_Ro_2_NVocInAudio_NoVideo.avi,vocoded,noVideo,sp07,Dr,Ro,2,0,2,flow/blocks/NVocInAudio_NoVideo_A.csv,,,,,,,,,0,0,0,0,0,21,21,25,,,,,,,,,-0.36527777777777776,0.08888888888888889,1,0,0,4.5278166999924,call2,-0.04861111111111111,-0.044444444444444446,1,0,0,5.17433449998498,colour3,0.4222222222222222,0.05416666666666667,1,0,0,5.804701599990949,number2,True,True,True,11,1,2019_Nov_12_1405,MA_Theta_Exp,3.0.7,60.266922196246476,
video/Experiment/zh_sp01_Ad_We_3_NVocInAudio_NoVideo.avi,vocoded,noVideo,sp01,Ad,We,3,0,2,flow/blocks/NVocInAudio_NoVideo_A.csv,,,,,,,,,0,0,0,0,0,22,22,14,,,,,,,,,-0.4041666666666667,0.31666666666666665,1,0,0,5.355206600012025,call1,0.04953703703703704,-0.3388888888888889,1,0,0,6.233449399995152,colour4,0.4162037037037037,-0.10138888888888889,1,0,0,6.950236999982735,number3,True,True,True,11,1,2019_Nov_12_1405,MA_Theta_Exp,3.0.7,60.266922196246476,
video/Experiment/zh_sp01_Dr_Ro_4_NVocInAudio_NoVideo.avi,vocoded,noVideo,sp01,Dr,Ro,4,0,2,flow/blocks/NVocInAudio_NoVideo_A.csv,,,,,,,,,0,0,0,0,0,23,23,27,,,,,,,,,-0.4337962962962963,0.09861111111111111,1,0,0,5.1268246000108775,call2,-0.0060185185185185185,-0.1,1,0,0,5.758460700017167,colour3,0.4009259259259259,-0.3263888888888889,1,0,0,6.476129500020761,number4,True,True,True,11,1,2019_Nov_12_1405,MA_Theta_Exp,3.0.7,60.266922196246476,
video/Experiment/zh_sp07_Dr_Gr_1_NVocInAudio_NoVideo.avi,vocoded,noVideo,sp07,Dr,Gr,1,0,2,flow/blocks/NVocInAudio_NoVideo_A.csv,,,,,,,,,0,0,0,0,0,24,24,20,,,,,,,,,-0.4111111111111111,0.09722222222222222,1,0,0,4.788260200002696,call2,-0.018518518518518517,0.10138888888888889,1,0,0,5.412590000021737,colour2,0.4486111111111111,0.33194444444444443,1,0,0,6.395570599997882,number1,True,True,True,11,1,2019_Nov_12_1405,MA_Theta_Exp,3.0.7,60.266922196246476,
video/Experiment/zh_sp01_Ad_We_2_NVocInAudio_NoVideo.avi,vocoded,noVideo,sp01,Ad,We,2,0,2,flow/blocks/NVocInAudio_NoVideo_A.csv,,,,,,,,,0,0,0,0,0,25,25,13,,,,,,,,,-0.41712962962962963,0.33611111111111114,1,0,0,5.514826400001766,call1,0.03333333333333333,-0.3541666666666667,1,0,0,6.469001799996477,colour4,0.3578703703703704,0.09027777777777778,1,0,0,7.160883700009435,number2,True,True,True,11,1,2019_Nov_12_1405,MA_Theta_Exp,3.0.7,60.266922196246476,
video/Experiment/zh_sp01_Ad_Gr_3_NVocInAudio_NoVideo.avi,vocoded,noVideo,sp01,Ad,Gr,3,0,2,flow/blocks/NVocInAudio_NoVideo_A.csv,,,,,,,,,0,0,0,0,0,26,26,6,,,,,,,,,-0.3680555555555556,0.3347222222222222,1,0,0,5.268753399985144,call1,-0.012962962962962963,0.10972222222222222,1,0,0,5.971802599990042,colour2,0.38564814814814813,-0.1375,1,0,0,6.61870550000458,number3,True,True,True,11,1,2019_Nov_12_1405,MA_Theta_Exp,3.0.7,60.266922196246476,
video/Experiment/zh_sp07_Ad_Ge_4_NVocInAudio_NoVideo.avi,vocoded,noVideo,sp07,Ad,Ge,4,0,2,flow/blocks/NVocInAudio_NoVideo_A.csv,,,,,,,,,0,0,0,0,0,27,27,3,,,,,,,,,-0.3976851851851852,0.28888888888888886,1,0,0,5.753499700018438,call1,0.0023148148148148147,0.2902777777777778,1,0,0,6.448322599986568,colour1,0.3578703703703704,-0.28055555555555556,1,0,0,7.101704700005939,number4,True,True,True,11,1,2019_Nov_12_1405,MA_Theta_Exp,3.0.7,60.266922196246476,
video/Experiment/zh_sp07_Ad_Ro_2_NVocInAudio_NoVideo.avi,vocoded,noVideo,sp07,Ad,Ro,2,0,2,flow/blocks/NVocInAudio_NoVideo_A.csv,,,,,,,,,0,0,0,0,0,28,28,9,,,,,,,,,-0.42685185185185187,0.28888888888888886,1,0,0,4.349138999998104,call1,-0.000462962962962963,-0.11666666666666667,1,0,0,4.987729500018759,colour3,0.3731481481481482,0.06944444444444445,1,0,0,5.563133700023172,number2,True,True,True,11,1,2019_Nov_12_1405,MA_Theta_Exp,3.0.7,60.266922196246476,
video/Experiment/zh_sp01_Dr_Ro_1_NVocInAudio_NoVideo.avi,vocoded,noVideo,sp01,Dr,Ro,1,0,2,flow/blocks/NVocInAudio_NoVideo_A.csv,,,,,,,,,0,0,0,0,0,29,29,24,,,,,,,,,-0.41388888888888886,0.10694444444444444,1,0,0,5.233692299982067,call2,0.030555555555555555,-0.12777777777777777,1,0,0,6.1862962000013795,colour3,0.3592592592592593,0.29305555555555557,1,0,0,6.94184210000094,number1,True,True,True,11,1,2019_Nov_12_1405,MA_Theta_Exp,3.0.7,60.266922196246476,
video/Experiment/zh_sp01_Dr_Ge_1_NVocInAudio_NoVideo.avi,vocoded,noVideo,sp01,Dr,Ge,1,0,2,flow/blocks/NVocInAudio_NoVideo_A.csv,,,,,,,,,0,0,0,0,0,30,30,16,,,,,,,,,-0.38472222222222224,0.10833333333333334,1,0,0,5.125635700009298,call2,-0.02546296296296296,0.2722222222222222,1,0,0,5.664844299986726,colour1,0.3787037037037037,0.2833333333333333,1,0,0,6.160647600016091,number1,True,True,True,11,1,2019_Nov_12_1405,MA_Theta_Exp,3.0.7,60.266922196246476,
video/Experiment/zh_sp01_Ad_Gr_2_NVocInAudio_NoVideo.avi,vocoded,noVideo,sp01,Ad,Gr,2,0,2,flow/blocks/NVocInAudio_NoVideo_A.csv,,,,,,,,,0,0,0,0,0,31,31,5,,,,,,,,,-0.4046296296296296,0.3236111111111111,1,0,0,6.485531899990747,call1,-0.02638888888888889,0.1111111111111111,1,0,0,7.255212899995968,colour2,0.38842592592592595,0.11527777777777778,1,0,0,7.8329500000108965,number2,True,True,True,11,1,2019_Nov_12_1405,MA_Theta_Exp,3.0.7,60.266922196246476,
video/Experiment/zh_sp07_Dr_We_1_NoThetaInAudio_GlobalThetaInVideo.avi,noTheta,plusVideo,sp07,Dr,We,1,1,3,flow/blocks/NoThetaInAudio_GlobalThetaInVideo_A.csv,,,,,,,,,0,1,1,1,0,0,0,28,,,,,,,,,-0.39490740740740743,0.31805555555555554,1,0,0,5.857415300008142,call1,0.020833333333333332,0.10694444444444444,1,0,0,7.63726809999207,colour2,0.43287037037037035,0.28888888888888886,1,0,0,8.301731799991103,number1,False,False,True,11,1,2019_Nov_12_1405,MA_Theta_Exp,3.0.7,60.266922196246476,
video/Experiment/zh_sp07_Dr_Ge_1_NoThetaInAudio_GlobalThetaInVideo.avi,noTheta,plusVideo,sp07,Dr,Ge,1,1,3,flow/blocks/NoThetaInAudio_GlobalThetaInVideo_A.csv,,,,,,,,,0,1,1,1,0,1,1,16,,,,,,,,,-0.39490740740740743,0.30972222222222223,1,0,0,6.898508499987656,call1,-0.032407407407407406,0.31805555555555554,1,0,0,7.697189599974081,colour1,0.39675925925925926,0.2833333333333333,1,0,0,8.304169899987755,number1,False,True,True,11,1,2019_Nov_12_1405,MA_Theta_Exp,3.0.7,60.266922196246476,
video/Experiment/zh_sp01_Dr_We_3_NoThetaInAudio_GlobalThetaInVideo.avi,noTheta,plusVideo,sp01,Dr,We,3,1,3,flow/blocks/NoThetaInAudio_GlobalThetaInVideo_A.csv,,,,,,,,,0,1,1,1,0,2,2,30,,,,,,,,,-0.4740740740740741,0.12222222222222222,1,0,0,5.101081700006034,call2,-0.033796296296296297,-0.35,1,0,0,5.8779928000003565,colour4,0.4287037037037037,-0.15833333333333333,1,0,0,6.528856199991424,number3,True,True,True,11,1,2019_Nov_12_1405,MA_Theta_Exp,3.0.7,60.266922196246476,
video/Experiment/zh_sp07_Ad_Ge_1_NoThetaInAudio_GlobalThetaInVideo.avi,noTheta,plusVideo,sp07,Ad,Ge,1,1,3,flow/blocks/NoThetaInAudio_GlobalThetaInVideo_A.csv,,,,,,,,,0,1,1,1,0,3,3,0,,,,,,,,,-0.4046296296296296,0.30416666666666664,1,0,0,6.008635000005597,call1,0.03981481481481482,0.28888888888888886,1,0,0,6.648804500000551,colour1,0.42314814814814816,0.26944444444444443,1,0,0,7.180699399992591,number1,True,True,True,11,1,2019_Nov_12_1405,MA_Theta_Exp,3.0.7,60.266922196246476,
video/Experiment/zh_sp07_Dr_Gr_1_NoThetaInAudio_GlobalThetaInVideo.avi,noTheta,plusVideo,sp07,Dr,Gr,1,1,3,flow/blocks/NoThetaInAudio_GlobalThetaInVideo_A.csv,,,,,,,,,0,1,1,1,0,4,4,20,,,,,,,,,-0.4449074074074074,0.2902777777777778,1,0,0,4.599853699997766,call1,0.03287037037037037,0.1,1,0,0,5.4017050999973435,colour2,0.4564814814814815,0.2847222222222222,1,0,0,5.951930600014748,number1,False,True,True,11,1,2019_Nov_12_1405,MA_Theta_Exp,3.0.7,60.266922196246476,
video/Experiment/zh_sp01_Ad_Gr_3_NoThetaInAudio_GlobalThetaInVideo.avi,noTheta,plusVideo,sp01,Ad,Gr,3,1,3,flow/blocks/NoThetaInAudio_GlobalThetaInVideo_A.csv,,,,,,,,,0,1,1,1,0,5,5,6,,,,,,,,,-0.3962962962962963,0.3,1,0,0,6.136413699976401,call1,-0.033796296296296297,0.08333333333333333,1,0,0,7.759709100006148,colour2,0.4125,-0.14027777777777778,1,0,0,8.505991000012727,number3,True,True,True,11,1,2019_Nov_12_1405,MA_Theta_Exp,3.0.7,60.266922196246476,
video/Experiment/zh_sp07_Ad_We_4_NoThetaInAudio_GlobalThetaInVideo.avi,noTheta,plusVideo,sp07,Ad,We,4,1,3,flow/blocks/NoThetaInAudio_GlobalThetaInVideo_A.csv,,,,,,,,,0,1,1,1,0,6,6,15,,,,,,,,,-0.4152777777777778,0.13055555555555556,1,0,0,5.759825300017837,call2,0.013888888888888888,-0.3402777777777778,1,0,0,6.701656399993226,colour4,0.4078703703703704,-0.3194444444444444,1,0,0,7.710706300014863,number4,False,True,True,11,1,2019_Nov_12_1405,MA_Theta_Exp,3.0.7,60.266922196246476,
video/Experiment/zh_sp01_Dr_Ge_2_NoThetaInAudio_GlobalThetaInVideo.avi,noTheta,plusVideo,sp01,Dr,Ge,2,1,3,flow/blocks/NoThetaInAudio_GlobalThetaInVideo_A.csv,,,,,,,,,0,1,1,1,0,7,7,17,,,,,,,,,-0.39166666666666666,0.2833333333333333,1,0,0,9.315503099991474,call1,-0.008796296296296297,0.2902777777777778,1,0,0,9.923300099995686,colour1,0.36666666666666664,0.09166666666666666,1,0,0,10.55464079999365,number2,False,True,True,11,1,2019_Nov_12_1405,MA_Theta_Exp,3.0.7,60.266922196246476,
video/Experiment/zh_sp07_Ad_We_1_NoThetaInAudio_GlobalThetaInVideo.avi,noTheta,plusVideo,sp07,Ad,We,1,1,3,flow/blocks/NoThetaInAudio_GlobalThetaInVideo_A.csv,,,,,,,,,0,1,1,1,0,8,8,12,,,,,,,,,-0.3962962962962963,0.2902777777777778,1,0,0,4.584041599999182,call1,0.01898148148148148,-0.3375,1,0,0,5.386102100019343,colour4,0.3509259259259259,0.2986111111111111,1,0,0,6.088525599974673,number1,True,True,True,11,1,2019_Nov_12_1405,MA_Theta_Exp,3.0.7,60.266922196246476,
video/Experiment/zh_sp01_Ad_Gr_2_NoThetaInAudio_GlobalThetaInVideo.avi,noTheta,plusVideo,sp01,Ad,Gr,2,1,3,flow/blocks/NoThetaInAudio_GlobalThetaInVideo_A.csv,,,,,,,,,0,1,1,1,0,9,9,5,,,,,,,,,-0.38333333333333336,0.31666666666666665,1,0,0,5.335920699988492,call1,0.04675925925925926,0.10138888888888889,1,0,0,6.060250999988057,colour2,0.3662037037037037,0.0763888888888889,1,0,0,6.774097200017422,number2,True,True,True,11,1,2019_Nov_12_1405,MA_Theta_Exp,3.0.7,60.266922196246476,
video/Experiment/zh_sp07_Ad_Ge_2_NoThetaInAudio_GlobalThetaInVideo.avi,noTheta,plusVideo,sp07,Ad,Ge,2,1,3,flow/blocks/NoThetaInAudio_GlobalThetaInVideo_A.csv,,,,,,,,,0,1,1,1,0,10,10,1,,,,,,,,,-0.37962962962962965,0.26944444444444443,1,0,0,8.709436000004644,call1,-0.046296296296296294,0.11666666666666667,1,0,0,9.29714419998345,colour2,0.3925925925925926,0.08055555555555556,1,0,0,9.806810899986885,number2,True,False,True,11,1,2019_Nov_12_1405,MA_Theta_Exp,3.0.7,60.266922196246476,
video/Experiment/zh_sp01_Dr_Gr_2_NoThetaInAudio_GlobalThetaInVideo.avi,noTheta,plusVideo,sp01,Dr,Gr,2,1,3,flow/blocks/NoThetaInAudio_GlobalThetaInVideo_A.csv,,,,,,,,,0,1,1,1,0,11,11,21,,,,,,,,,-0.4097222222222222,0.09583333333333334,1,0,0,5.260391699994216,call2,0.003703703703703704,0.13055555555555556,1,0,0,5.733448799990583,colour2,0.4009259259259259,0.10416666666666667,1,0,0,6.267337500001304,number2,True,True,True,11,1,2019_Nov_12_1405,MA_Theta_Exp,3.0.7,60.266922196246476,
video/Experiment/zh_sp07_Ad_Gr_4_NoThetaInAudio_GlobalThetaInVideo.avi,noTheta,plusVideo,sp07,Ad,Gr,4,1,3,flow/blocks/NoThetaInAudio_GlobalThetaInVideo_A.csv,,,,,,,,,0,1,1,1,0,12,12,7,,,,,,,,,-0.4236111111111111,0.3125,1,0,0,4.6639997999882326,call1,-0.007407407407407408,0.10138888888888889,1,0,0,5.1736865999992006,colour2,0.3592592592592593,-0.32222222222222224,1,0,0,5.876968099997612,number4,True,True,True,11,1,2019_Nov_12_1405,MA_Theta_Exp,3.0.7,60.266922196246476,
video/Experiment/zh_sp07_Dr_Gr_4_NoThetaInAudio_GlobalThetaInVideo.avi,noTheta,plusVideo,sp07,Dr,Gr,4,1,3,flow/blocks/NoThetaInAudio_GlobalThetaInVideo_A.csv,,,,,,,,,0,1,1,1,0,13,13,23,,,,,,,,,-0.3921296296296296,0.28194444444444444,1,0,0,4.9613636000140104,call1,-0.03657407407407407,0.11944444444444445,1,0,0,5.665008300013142,colour2,0.3925925925925926,-0.13055555555555556,1,0,0,6.304848200001288,number3,False,True,False,11,1,2019_Nov_12_1405,MA_Theta_Exp,3.0.7,60.266922196246476,
video/Experiment/zh_sp01_Dr_We_4_NoThetaInAudio_GlobalThetaInVideo.avi,noTheta,plusVideo,sp01,Dr,We,4,1,3,flow/blocks/NoThetaInAudio_GlobalThetaInVideo_A.csv,,,,,,,,,0,1,1,1,0,14,14,31,,,,,,,,,-0.3861111111111111,0.12083333333333333,1,0,0,5.498398099996848,call2,0.003703703703703704,-0.31527777777777777,1,0,0,6.261717099987436,colour4,0.38425925925925924,-0.2847222222222222,1,0,0,6.813403200008906,number4,True,True,True,11,1,2019_Nov_12_1405,MA_Theta_Exp,3.0.7,60.266922196246476,
video/Experiment/zh_sp01_Ad_Ro_3_NoThetaInAudio_GlobalThetaInVideo.avi,noTheta,plusVideo,sp01,Ad,Ro,3,1,3,flow/blocks/NoThetaInAudio_GlobalThetaInVideo_A.csv,,,,,,,,,0,1,1,1,0,15,15,10,,,,,,,,,-0.425462962962963,0.33611111111111114,1,0,0,5.087798499997007,call1,0.024537037037037038,-0.09444444444444444,1,0,0,5.791606199985836,colour3,0.3972222222222222,-0.12361111111111112,1,0,0,6.315481800003909,number3,True,True,True,11,1,2019_Nov_12_1405,MA_Theta_Exp,3.0.7,60.266922196246476,
video/Experiment/zh_sp07_Dr_Ro_4_NoThetaInAudio_GlobalThetaInVideo.avi,noTheta,plusVideo,sp07,Dr,Ro,4,1,3,flow/blocks/NoThetaInAudio_GlobalThetaInVideo_A.csv,,,,,,,,,0,1,1,1,0,16,16,27,,,,,,,,,-0.4444444444444444,0.12638888888888888,1,0,0,5.380926499987254,call2,-0.006944444444444444,0.13055555555555556,1,0,0,5.966844599985052,colour2,0.38842592592592595,-0.30972222222222223,1,0,0,6.605455699987942,number4,True,False,True,11,1,2019_Nov_12_1405,MA_Theta_Exp,3.0.7,60.266922196246476,
video/Experiment/zh_sp01_Ad_Ro_4_NoThetaInAudio_GlobalThetaInVideo.avi,noTheta,plusVideo,sp01,Ad,Ro,4,1,3,flow/blocks/NoThetaInAudio_GlobalThetaInVideo_A.csv,,,,,,,,,0,1,1,1,0,17,17,11,,,,,,,,,-0.3962962962962963,0.3013888888888889,1,0,0,6.734288100007689,call1,0.027314814814814816,-0.12083333333333333,1,0,0,7.341180399991572,colour3,0.41759259259259257,-0.32222222222222224,1,0,0,7.833876399992732,number4,True,True,True,11,1,2019_Nov_12_1405,MA_Theta_Exp,3.0.7,60.266922196246476,
video/Experiment/zh_sp01_Dr_Ge_4_NoThetaInAudio_GlobalThetaInVideo.avi,noTheta,plusVideo,sp01,Dr,Ge,4,1,3,flow/blocks/NoThetaInAudio_GlobalThetaInVideo_A.csv,,,,,,,,,0,1,1,1,0,18,18,19,,,,,,,,,-0.42407407407407405,0.10694444444444444,1,0,0,5.68798180000158,call2,-0.022685185185185187,0.2652777777777778,1,0,0,6.393057100009173,colour1,0.3509259259259259,-0.25416666666666665,1,0,0,7.061459999997169,number4,True,True,True,11,1,2019_Nov_12_1405,MA_Theta_Exp,3.0.7,60.266922196246476,
video/Experiment/zh_sp07_Dr_Ro_1_NoThetaInAudio_GlobalThetaInVideo.avi,noTheta,plusVideo,sp07,Dr,Ro,1,1,3,flow/blocks/NoThetaInAudio_GlobalThetaInVideo_A.csv,,,,,,,,,0,1,1,1,0,19,19,24,,,,,,,,,-0.3907407407407407,0.27361111111111114,1,0,0,4.7259328000072856,call1,0.0023148148148148147,-0.11388888888888889,1,0,0,5.418364500015741,colour3,0.3314814814814815,0.2833333333333333,1,0,0,6.1564491000026464,number1,False,True,True,11,1,2019_Nov_12_1405,MA_Theta_Exp,3.0.7,60.266922196246476,
video/Experiment/zh_sp01_Dr_Ge_3_NoThetaInAudio_GlobalThetaInVideo.avi,noTheta,plusVideo,sp01,Dr,Ge,3,1,3,flow/blocks/NoThetaInAudio_GlobalThetaInVideo_A.csv,,,,,,,,,0,1,1,1,0,20,20,18,,,,,,,,,-0.38657407407407407,0.10277777777777777,1,0,0,8.893910799990408,call2,-0.020833333333333332,0.2972222222222222,1,0,0,11.346121000009589,colour1,0.3814814814814815,-0.06805555555555555,1,0,0,11.895324000011897,number3,True,True,True,11,1,2019_Nov_12_1405,MA_Theta_Exp,3.0.7,60.266922196246476,
video/Experiment/zh_sp07_Dr_Ro_3_NoThetaInAudio_GlobalThetaInVideo.avi,noTheta,plusVideo,sp07,Dr,Ro,3,1,3,flow/blocks/NoThetaInAudio_GlobalThetaInVideo_A.csv,,,,,,,,,0,1,1,1,0,21,21,26,,,,,,,,,-0.44212962962962965,0.3277777777777778,1,0,0,4.404355600010604,call1,0.020370370370370372,-0.12222222222222222,1,0,0,5.2541686999902595,colour3,0.4009259259259259,-0.10555555555555556,1,0,0,5.86561680000159,number3,False,True,True,11,1,2019_Nov_12_1405,MA_Theta_Exp,3.0.7,60.266922196246476,
video/Experiment/zh_sp07_Ad_We_2_NoThetaInAudio_GlobalThetaInVideo.avi,noTheta,plusVideo,sp07,Ad,We,2,1,3,flow/blocks/NoThetaInAudio_GlobalThetaInVideo_A.csv,,,,,,,,,0,1,1,1,0,22,22,13,,,,,,,,,-0.4212962962962963,0.32083333333333336,1,0,0,4.42356359999394,call1,-0.0032407407407407406,-0.3486111111111111,1,0,0,5.1803852999873925,colour4,0.32592592592592595,0.07361111111111111,1,0,0,5.965354100015247,number2,True,True,True,11,1,2019_Nov_12_1405,MA_Theta_Exp,3.0.7,60.266922196246476,
video/Experiment/zh_sp07_Ad_Ro_1_NoThetaInAudio_GlobalThetaInVideo.avi,noTheta,plusVideo,sp07,Ad,Ro,1,1,3,flow/blocks/NoThetaInAudio_GlobalThetaInVideo_A.csv,,,,,,,,,0,1,1,1,0,23,23,8,,,,,,,,,-0.4046296296296296,0.2638888888888889,1,0,0,8.330328300013207,call1,-0.01712962962962963,-0.1361111111111111,1,0,0,8.930675599985989,colour3,0.37592592592592594,0.2902777777777778,1,0,0,9.493879200017545,number1,True,True,True,11,1,2019_Nov_12_1405,MA_Theta_Exp,3.0.7,60.266922196246476,
video/Experiment/zh_sp01_Ad_Ro_2_NoThetaInAudio_GlobalThetaInVideo.avi,noTheta,plusVideo,sp01,Ad,Ro,2,1,3,flow/blocks/NoThetaInAudio_GlobalThetaInVideo_A.csv,,,,,,,,,0,1,1,1,0,24,24,9,,,,,,,,,-0.40185185185185185,0.31527777777777777,1,0,0,5.0842459999839775,call1,-0.000462962962962963,-0.07083333333333333,1,0,0,5.673065399983898,colour3,0.39814814814814814,0.09305555555555556,1,0,0,6.243275399989216,number2,True,True,True,11,1,2019_Nov_12_1405,MA_Theta_Exp,3.0.7,60.266922196246476,
video/Experiment/zh_sp07_Dr_We_2_NoThetaInAudio_GlobalThetaInVideo.avi,noTheta,plusVideo,sp07,Dr,We,2,1,3,flow/blocks/NoThetaInAudio_GlobalThetaInVideo_A.csv,,,,,,,,,0,1,1,1,0,25,25,29,,,,,,,,,-0.40694444444444444,0.14444444444444443,1,0,0,4.425683000008576,call2,0.027314814814814816,-0.32222222222222224,1,0,0,5.136241600004723,colour4,0.3648148148148148,0.06388888888888888,1,0,0,5.812359000003198,number2,True,True,True,11,1,2019_Nov_12_1405,MA_Theta_Exp,3.0.7,60.266922196246476,
video/Experiment/zh_sp01_Ad_Ge_4_NoThetaInAudio_GlobalThetaInVideo.avi,noTheta,plusVideo,sp01,Ad,Ge,4,1,3,flow/blocks/NoThetaInAudio_GlobalThetaInVideo_A.csv,,,,,,,,,0,1,1,1,0,26,26,3,,,,,,,,,-0.40046296296296297,0.29305555555555557,1,0,0,9.043887699983316,call1,-0.03796296296296296,0.29444444444444445,1,0,0,9.524057900009211,colour1,0.36064814814814816,-0.26666666666666666,1,0,0,10.11810580000747,number4,True,True,True,11,1,2019_Nov_12_1405,MA_Theta_Exp,3.0.7,60.266922196246476,
video/Experiment/zh_sp01_Dr_Gr_3_NoThetaInAudio_GlobalThetaInVideo.avi,noTheta,plusVideo,sp01,Dr,Gr,3,1,3,flow/blocks/NoThetaInAudio_GlobalThetaInVideo_A.csv,,,,,,,,,0,1,1,1,0,27,27,22,,,,,,,,,-0.41388888888888886,0.10694444444444444,1,0,0,5.632519700011471,call2,0.02175925925925926,0.08888888888888889,1,0,0,6.139149299997371,colour2,0.4263888888888889,-0.12777777777777777,1,0,0,6.94550880001043,number3,True,True,True,11,1,2019_Nov_12_1405,MA_Theta_Exp,3.0.7,60.266922196246476,
video/Experiment/zh_sp01_Ad_Ge_3_NoThetaInAudio_GlobalThetaInVideo.avi,noTheta,plusVideo,sp01,Ad,Ge,3,1,3,flow/blocks/NoThetaInAudio_GlobalThetaInVideo_A.csv,,,,,,,,,0,1,1,1,0,28,28,2,,,,,,,,,-0.37546296296296294,0.26944444444444443,1,0,0,6.4258273000014015,call1,-0.026851851851851852,0.2763888888888889,1,0,0,6.952821699989727,colour1,0.4625,-0.13472222222222222,1,0,0,7.71661820000736,number3,True,True,True,11,1,2019_Nov_12_1405,MA_Theta_Exp,3.0.7,60.266922196246476,
video/Experiment/zh_sp01_Ad_Gr_1_NoThetaInAudio_GlobalThetaInVideo.avi,noTheta,plusVideo,sp01,Ad,Gr,1,1,3,flow/blocks/NoThetaInAudio_GlobalThetaInVideo_A.csv,,,,,,,,,0,1,1,1,0,29,29,4,,,,,,,,,-0.40555555555555556,0.30694444444444446,1,0,0,5.862841300026048,call1,-0.013888888888888888,0.10833333333333334,1,0,0,7.158695499994792,colour2,0.37037037037037035,0.2902777777777778,1,0,0,7.8671041000052355,number1,True,True,True,11,1,2019_Nov_12_1405,MA_Theta_Exp,3.0.7,60.266922196246476,
video/Experiment/zh_sp07_Ad_We_3_NoThetaInAudio_GlobalThetaInVideo.avi,noTheta,plusVideo,sp07,Ad,We,3,1,3,flow/blocks/NoThetaInAudio_GlobalThetaInVideo_A.csv,,,,,,,,,0,1,1,1,0,30,30,14,,,,,,,,,-0.4013888888888889,0.04722222222222222,1,0,0,4.509611999994377,call2,0.003703703703703704,-0.3486111111111111,1,0,0,5.20300710000447,colour4,0.425,-0.11388888888888889,1,0,0,6.696694399986882,number3,False,True,True,11,1,2019_Nov_12_1405,MA_Theta_Exp,3.0.7,60.266922196246476,
video/Experiment/zh_sp01_Dr_Ro_2_NoThetaInAudio_GlobalThetaInVideo.avi,noTheta,plusVideo,sp01,Dr,Ro,2,1,3,flow/blocks/NoThetaInAudio_GlobalThetaInVideo_A.csv,,,,,,,,,0,1,1,1,0,31,31,25,,,,,,,,,-0.42685185185185187,0.10833333333333334,1,0,0,5.156893000006676,call2,-0.03333333333333333,-0.11388888888888889,1,0,0,5.80275130001246,colour3,0.4222222222222222,0.08055555555555556,1,0,0,6.4252451000211295,number2,True,True,True,11,1,2019_Nov_12_1405,MA_Theta_Exp,3.0.7,60.266922196246476,
video/Experiment/zh_sp07_Ad_Ro_2_GlobalTheta_NoVideo.avi,globalTheta,noVideo,sp07,Ad,Ro,2,2,5,flow/blocks/GlobalTheta_NoVideo_A.csv,,,,,,,,,0,2,2,2,0,0,0,9,,,,,,,,,-0.4236111111111111,0.3402777777777778,1,0,0,4.998019299993757,call1,0.016666666666666666,-0.32222222222222224,1,0,0,6.978565500001423,colour4,0.3425925925925926,0.10277777777777777,1,0,0,7.7115940999938175,number2,True,False,True,11,1,2019_Nov_12_1405,MA_Theta_Exp,3.0.7,60.266922196246476,
video/Experiment/zh_sp01_Ad_Ge_2_GlobalTheta_NoVideo.avi,globalTheta,noVideo,sp01,Ad,Ge,2,2,5,flow/blocks/GlobalTheta_NoVideo_A.csv,,,,,,,,,0,2,2,2,0,1,1,1,,,,,,,,,-0.39166666666666666,0.29583333333333334,1,0,0,9.492498800012982,call1,-0.009722222222222222,0.30972222222222223,1,0,0,10.929262399993604,colour1,0.33194444444444443,0.10416666666666667,1,0,0,11.405710299994098,number2,True,True,True,11,1,2019_Nov_12_1405,MA_Theta_Exp,3.0.7,60.266922196246476,
video/Experiment/zh_sp01_Dr_We_2_GlobalTheta_NoVideo.avi,globalTheta,noVideo,sp01,Dr,We,2,2,5,flow/blocks/GlobalTheta_NoVideo_A.csv,,,,,,,,,0,2,2,2,0,2,2,29,,,,,,,,,-0.42962962962962964,0.10694444444444444,1,0,0,5.0789469000010286,call2,-0.02824074074074074,-0.31805555555555554,1,0,0,5.858175399975153,colour4,0.3662037037037037,0.03888888888888889,1,0,0,6.641036899993196,number2,True,True,True,11,1,2019_Nov_12_1405,MA_Theta_Exp,3.0.7,60.266922196246476,
video/Experiment/zh_sp07_Ad_We_1_GlobalTheta_NoVideo.avi,globalTheta,noVideo,sp07,Ad,We,1,2,5,flow/blocks/GlobalTheta_NoVideo_A.csv,,,,,,,,,0,2,2,2,0,3,3,12,,,,,,,,,-0.4101851851851852,0.275,1,0,0,4.507071700005326,call1,-0.008796296296296297,-0.3013888888888889,1,0,0,5.284710699983407,colour4,0.3509259259259259,0.30277777777777776,1,0,0,6.084304299991345,number1,True,True,True,11,1,2019_Nov_12_1405,MA_Theta_Exp,3.0.7,60.266922196246476,
video/Experiment/zh_sp01_Dr_Gr_1_GlobalTheta_NoVideo.avi,globalTheta,noVideo,sp01,Dr,Gr,1,2,5,flow/blocks/GlobalTheta_NoVideo_A.csv,,,,,,,,,0,2,2,2,0,4,4,20,,,,,,,,,-0.43657407407407406,0.1125,1,0,0,5.519432099972619,call2,-0.050462962962962966,0.11666666666666667,1,0,0,6.146156900009373,colour2,0.3592592592592593,0.2986111111111111,1,0,0,6.739877600019099,number1,True,True,True,11,1,2019_Nov_12_1405,MA_Theta_Exp,3.0.7,60.266922196246476,
video/Experiment/zh_sp07_Dr_Ro_4_GlobalTheta_NoVideo.avi,globalTheta,noVideo,sp07,Dr,Ro,4,2,5,flow/blocks/GlobalTheta_NoVideo_A.csv,,,,,,,,,0,2,2,2,0,5,5,27,,,,,,,,,-0.3888888888888889,0.2861111111111111,1,0,0,7.543662999989465,call1,-0.021296296296296296,-0.2708333333333333,1,0,0,8.594334599998547,colour4,0.387037037037037,-0.29444444444444445,1,0,0,9.158124599984149,number4,False,False,True,11,1,2019_Nov_12_1405,MA_Theta_Exp,3.0.7,60.266922196246476,
video/Experiment/zh_sp01_Dr_Ro_2_GlobalTheta_NoVideo.avi,globalTheta,noVideo,sp01,Dr,Ro,2,2,5,flow/blocks/GlobalTheta_NoVideo_A.csv,,,,,,,,,0,2,2,2,0,6,6,25,,,,,,,,,-0.3416666666666667,0.11944444444444445,1,0,0,5.262937299994519,call2,0.020370370370370372,-0.17916666666666667,1,0,0,6.022074400010752,colour3,0.3486111111111111,0.07777777777777778,1,0,0,6.692562500014901,number2,True,True,True,11,1,2019_Nov_12_1405,MA_Theta_Exp,3.0.7,60.266922196246476,
video/Experiment/zh_sp07_Dr_Ge_2_GlobalTheta_NoVideo.avi,globalTheta,noVideo,sp07,Dr,Ge,2,2,5,flow/blocks/GlobalTheta_NoVideo_A.csv,,,,,,,,,0,2,2,2,0,7,7,17,,,,,,,,,-0.3736111111111111,0.06666666666666667,1,0,0,4.411380400008056,call2,-0.06018518518518518,0.11805555555555555,1,0,0,5.019504199997755,colour2,0.45092592592592595,0.30694444444444446,1,0,0,5.72282009999617,number1,True,False,False,11,1,2019_Nov_12_1405,MA_Theta_Exp,3.0.7,60.266922196246476,
video/Experiment/zh_sp07_Ad_Ge_4_GlobalTheta_NoVideo.avi,globalTheta,noVideo,sp07,Ad,Ge,4,2,5,flow/blocks/GlobalTheta_NoVideo_A.csv,,,,,,,,,0,2,2,2,0,8,8,3,,,,,,,,,-0.3819444444444444,0.11805555555555555,1,0,0,4.8529112999967765,call2,-0.02824074074074074,-0.10138888888888889,1,0,0,5.466858800005866,colour3,0.36342592592592593,-0.13472222222222222,1,0,0,6.012281500006793,number3,False,False,False,11,1,2019_Nov_12_1405,MA_Theta_Exp,3.0.7,60.266922196246476,
video/Experiment/zh_sp01_Ad_We_3_GlobalTheta_NoVideo.avi,globalTheta,noVideo,sp01,Ad,We,3,2,5,flow/blocks/GlobalTheta_NoVideo_A.csv,,,,,,,,,0,2,2,2,0,9,9,14,,,,,,,,,-0.4324074074074074,0.28888888888888886,1,0,0,4.846367699996335,call1,0.006481481481481481,-0.3263888888888889,1,0,0,5.626160100015113,colour4,0.41064814814814815,-0.11527777777777778,1,0,0,6.240564000006998,number3,True,True,True,11,1,2019_Nov_12_1405,MA_Theta_Exp,3.0.7,60.266922196246476,
video/Experiment/zh_sp01_Dr_Ro_3_GlobalTheta_NoVideo.avi,globalTheta,noVideo,sp01,Dr,Ro,3,2,5,flow/blocks/GlobalTheta_NoVideo_A.csv,,,,,,,,,0,2,2,2,0,10,10,26,,,,,,,,,-0.425,0.29444444444444445,1,0,0,5.323408900003415,call1,0.008333333333333333,-0.1361111111111111,1,0,0,6.130226800014498,colour3,0.3787037037037037,-0.1125,1,0,0,6.724676599988015,number3,False,True,True,11,1,2019_Nov_12_1405,MA_Theta_Exp,3.0.7,60.266922196246476,
video/Experiment/zh_sp07_Dr_Ge_1_GlobalTheta_NoVideo.avi,globalTheta,noVideo,sp07,Dr,Ge,1,2,5,flow/blocks/GlobalTheta_NoVideo_A.csv,,,,,,,,,0,2,2,2,0,11,11,16,,,,,,,,,-0.4601851851851852,0.10694444444444444,1,0,0,4.406423999986146,call2,-0.06435185185185185,-0.28194444444444444,1,0,0,5.140128700004425,colour4,0.337037037037037,0.2861111111111111,1,0,0,6.09588690000237,number1,True,False,True,11,1,2019_Nov_12_1405,MA_Theta_Exp,3.0.7,60.266922196246476,
video/Experiment/zh_sp07_Ad_Ro_3_GlobalTheta_NoVideo.avi,globalTheta,noVideo,sp07,Ad,Ro,3,2,5,flow/blocks/GlobalTheta_NoVideo_A.csv,,,,,,,,,0,2,2,2,0,12,12,10,,,,,,,,,-0.3972222222222222,0.29444444444444445,1,0,0,4.626465800014557,call1,-0.02962962962962963,0.09444444444444444,1,0,0,5.885122700012289,colour2,0.3731481481481482,-0.12083333333333333,1,0,0,6.748953100002836,number3,True,False,True,11,1,2019_Nov_12_1405,MA_Theta_Exp,3.0.7,60.266922196246476,
video/Experiment/zh_sp01_Ad_Ge_3_GlobalTheta_NoVideo.avi,globalTheta,noVideo,sp01,Ad,Ge,3,2,5,flow/blocks/GlobalTheta_NoVideo_A.csv,,,,,,,,,0,2,2,2,0,13,13,2,,,,,,,,,-0.42685185185185187,0.3013888888888889,1,0,0,4.759424599993508,call1,-0.01574074074074074,0.2833333333333333,1,0,0,5.331062199984444,colour1,0.38425925925925924,-0.09444444444444444,1,0,0,6.195485899981577,number3,True,True,True,11,1,2019_Nov_12_1405,MA_Theta_Exp,3.0.7,60.266922196246476,
video/Experiment/zh_sp07_Ad_Gr_2_GlobalTheta_NoVideo.avi,globalTheta,noVideo,sp07,Ad,Gr,2,2,5,flow/blocks/GlobalTheta_NoVideo_A.csv,,,,,,,,,0,2,2,2,0,14,14,5,,,,,,,,,-0.42083333333333334,0.12083333333333333,1,0,0,4.951381799997762,call2,-0.03888888888888889,0.11666666666666667,1,0,0,5.535021299991058,colour2,0.3592592592592593,0.06805555555555555,1,0,0,6.15770139999222,number2,False,True,True,11,1,2019_Nov_12_1405,MA_Theta_Exp,3.0.7,60.266922196246476,
video/Experiment/zh_sp01_Ad_Gr_1_GlobalTheta_NoVideo.avi,globalTheta,noVideo,sp01,Ad,Gr,1,2,5,flow/blocks/GlobalTheta_NoVideo_A.csv,,,,,,,,,0,2,2,2,0,15,15,4,,,,,,,,,-0.43657407407407406,0.30277777777777776,1,0,0,5.28088820000994,call1,0.002777777777777778,0.10277777777777777,1,0,0,7.0388720000046305,colour2,0.3453703703703704,0.2708333333333333,1,0,0,7.680591999989701,number1,True,True,True,11,1,2019_Nov_12_1405,MA_Theta_Exp,3.0.7,60.266922196246476,
video/Experiment/zh_sp01_Dr_Ge_3_GlobalTheta_NoVideo.avi,globalTheta,noVideo,sp01,Dr,Ge,3,2,5,flow/blocks/GlobalTheta_NoVideo_A.csv,,,,,,,,,0,2,2,2,0,16,16,18,,,,,,,,,-0.39444444444444443,0.12222222222222222,1,0,0,5.500290199997835,call2,-0.011574074074074073,0.30277777777777776,1,0,0,7.589565799979027,colour1,0.36898148148148147,-0.09305555555555556,1,0,0,8.4229764000047,number3,True,True,True,11,1,2019_Nov_12_1405,MA_Theta_Exp,3.0.7,60.266922196246476,
video/Experiment/zh_sp01_Ad_We_2_GlobalTheta_NoVideo.avi,globalTheta,noVideo,sp01,Ad,We,2,2,5,flow/blocks/GlobalTheta_NoVideo_A.csv,,,,,,,,,0,2,2,2,0,17,17,13,,,,,,,,,-0.3837962962962963,0.2972222222222222,1,0,0,5.649406800017459,call1,-0.022685185185185187,-0.2833333333333333,1,0,0,6.485914499993669,colour4,0.35509259259259257,0.10972222222222222,1,0,0,7.119074300018838,number2,True,True,True,11,1,2019_Nov_12_1405,MA_Theta_Exp,3.0.7,60.266922196246476,
video/Experiment/zh_sp07_Ad_Ro_1_GlobalTheta_NoVideo.avi,globalTheta,noVideo,sp07,Ad,Ro,1,2,5,flow/blocks/GlobalTheta_NoVideo_A.csv,,,,,,,,,0,2,2,2,0,18,18,8,,,,,,,,,-0.4185185185185185,0.10833333333333334,1,0,0,5.772064699995099,call2,-0.026851851851851852,-0.09166666666666666,1,0,0,6.516893499996513,colour3,0.337037037037037,0.275,1,0,0,7.228394199977629,number1,False,True,True,11,1,2019_Nov_12_1405,MA_Theta_Exp,3.0.7,60.266922196246476,
video/Experiment/zh_sp07_Ad_We_4_GlobalTheta_NoVideo.avi,globalTheta,noVideo,sp07,Ad,We,4,2,5,flow/blocks/GlobalTheta_NoVideo_A.csv,,,,,,,,,0,2,2,2,0,19,19,15,,,,,,,,,-0.4601851851851852,0.09305555555555556,1,0,0,4.419539499998791,call2,-0.022685185185185187,-0.26666666666666666,1,0,0,5.039848300017184,colour4,0.34444444444444444,-0.13472222222222222,1,0,0,5.591916499979561,number3,False,True,False,11,1,2019_Nov_12_1405,MA_Theta_Exp,3.0.7,60.266922196246476,
video/Experiment/zh_sp01_Dr_Gr_2_GlobalTheta_NoVideo.avi,globalTheta,noVideo,sp01,Dr,Gr,2,2,5,flow/blocks/GlobalTheta_NoVideo_A.csv,,,,,,,,,0,2,2,2,0,20,20,21,,,,,,,,,-0.4046296296296296,0.08472222222222223,1,0,0,6.302110299991909,call2,-0.0060185185185185185,0.09305555555555556,1,0,0,7.931121100002201,colour2,0.41759259259259257,0.09027777777777778,1,0,0,8.546298400004162,number2,True,True,True,11,1,2019_Nov_12_1405,MA_Theta_Exp,3.0.7,60.266922196246476,
video/Experiment/zh_sp01_Dr_We_1_GlobalTheta_NoVideo.avi,globalTheta,noVideo,sp01,Dr,We,1,2,5,flow/blocks/GlobalTheta_NoVideo_A.csv,,,,,,,,,0,2,2,2,0,21,21,28,,,,,,,,,-0.40694444444444444,0.10694444444444444,1,0,0,4.998110799991991,call2,-0.0032407407407407406,-0.30416666666666664,1,0,0,5.736205299996072,colour4,0.3537037037037037,0.28888888888888886,1,0,0,6.5245655000035185,number1,True,True,True,11,1,2019_Nov_12_1405,MA_Theta_Exp,3.0.7,60.266922196246476,
video/Experiment/zh_sp07_Ad_Gr_4_GlobalTheta_NoVideo.avi,globalTheta,noVideo,sp07,Ad,Gr,4,2,5,flow/blocks/GlobalTheta_NoVideo_A.csv,,,,,,,,,0,2,2,2,0,22,22,7,,,,,,,,,-0.40694444444444444,0.11527777777777778,1,0,0,5.240883499995107,call2,-0.01990740740740741,0.125,1,0,0,5.777433100010967,colour2,0.4027777777777778,-0.11666666666666667,1,0,0,6.607499400008237,number3,False,True,False,11,1,2019_Nov_12_1405,MA_Theta_Exp,3.0.7,60.266922196246476,
video/Experiment/zh_sp07_Dr_Ge_4_GlobalTheta_NoVideo.avi,globalTheta,noVideo,sp07,Dr,Ge,4,2,5,flow/blocks/GlobalTheta_NoVideo_A.csv,,,,,,,,,0,2,2,2,0,23,23,19,,,,,,,,,-0.3861111111111111,0.10972222222222222,1,0,0,5.877003700006753,call2,0.05,-0.10138888888888889,1,0,0,6.618030999990879,colour3,0.34814814814814815,-0.30833333333333335,1,0,0,7.152703500003554,number4,True,False,True,11,1,2019_Nov_12_1405,MA_Theta_Exp,3.0.7,60.266922196246476,
video/Experiment/zh_sp07_Ad_Gr_3_GlobalTheta_NoVideo.avi,globalTheta,noVideo,sp07,Ad,Gr,3,2,5,flow/blocks/GlobalTheta_NoVideo_A.csv,,,,,,,,,0,2,2,2,0,24,24,6,,,,,,,,,-0.4199074074074074,0.30277777777777776,1,0,0,4.801317599980393,call1,0.038425925925925926,0.07361111111111111,1,0,0,5.421528399980161,colour2,0.37592592592592594,-0.10277777777777777,1,0,0,5.957074899983127,number3,True,True,True,11,1,2019_Nov_12_1405,MA_Theta_Exp,3.0.7,60.266922196246476,
video/Experiment/zh_sp07_Dr_We_4_GlobalTheta_NoVideo.avi,globalTheta,noVideo,sp07,Dr,We,4,2,5,flow/blocks/GlobalTheta_NoVideo_A.csv,,,,,,,,,0,2,2,2,0,25,25,31,,,,,,,,,-0.4041666666666667,0.29305555555555557,1,0,0,4.538850100012496,call1,-0.010185185185185186,-0.2861111111111111,1,0,0,5.344871600012993,colour4,0.35648148148148145,-0.09722222222222222,1,0,0,6.849618199979886,number3,False,True,False,11,1,2019_Nov_12_1405,MA_Theta_Exp,3.0.7,60.266922196246476,
video/Experiment/zh_sp01_Ad_Ro_4_GlobalTheta_NoVideo.avi,globalTheta,noVideo,sp01,Ad,Ro,4,2,5,flow/blocks/GlobalTheta_NoVideo_A.csv,,,,,,,,,0,2,2,2,0,26,26,11,,,,,,,,,-0.4083333333333333,0.2875,1,0,0,5.679494100011652,call1,-0.0060185185185185185,-0.09166666666666666,1,0,0,6.333235099999001,colour3,0.3537037037037037,-0.28888888888888886,1,0,0,7.113580400007777,number4,True,True,True,11,1,2019_Nov_12_1405,MA_Theta_Exp,3.0.7,60.266922196246476,
video/Experiment/zh_sp01_Ad_Ge_1_GlobalTheta_NoVideo.avi,globalTheta,noVideo,sp01,Ad,Ge,1,2,5,flow/blocks/GlobalTheta_NoVideo_A.csv,,,,,,,,,0,2,2,2,0,27,27,0,,,,,,,,,-0.43194444444444446,0.28888888888888886,1,0,0,7.022309099993436,call1,-0.04490740740740741,0.30416666666666664,1,0,0,7.692385500005912,colour1,0.3888888888888889,0.3111111111111111,1,0,0,8.170797500002664,number1,True,True,True,11,1,2019_Nov_12_1405,MA_Theta_Exp,3.0.7,60.266922196246476,
video/Experiment/zh_sp01_Dr_Ro_1_GlobalTheta_NoVideo.avi,globalTheta,noVideo,sp01,Dr,Ro,1,2,5,flow/blocks/GlobalTheta_NoVideo_A.csv,,,,,,,,,0,2,2,2,0,28,28,24,,,,,,,,,-0.41574074074074074,0.11944444444444445,1,0,0,5.251478399994085,call2,0.013425925925925926,-0.10416666666666667,1,0,0,6.192432399984682,colour3,0.3875,0.2861111111111111,1,0,0,6.935073899978306,number1,True,True,True,11,1,2019_Nov_12_1405,MA_Theta_Exp,3.0.7,60.266922196246476,
video/Experiment/zh_sp01_Dr_Gr_3_GlobalTheta_NoVideo.avi,globalTheta,noVideo,sp01,Dr,Gr,3,2,5,flow/blocks/GlobalTheta_NoVideo_A.csv,,,,,,,,,0,2,2,2,0,29,29,22,,,,,,,,,-0.39861111111111114,0.09583333333333334,1,0,0,5.937455500010401,call2,0.013888888888888888,0.10555555555555556,1,0,0,6.564338399999542,colour2,0.399537037037037,-0.10972222222222222,1,0,0,7.183720000000903,number3,True,True,True,11,1,2019_Nov_12_1405,MA_Theta_Exp,3.0.7,60.266922196246476,
video/Experiment/zh_sp07_Dr_We_3_GlobalTheta_NoVideo.avi,globalTheta,noVideo,sp07,Dr,We,3,2,5,flow/blocks/GlobalTheta_NoVideo_A.csv,,,,,,,,,0,2,2,2,0,30,30,30,,,,,,,,,-0.3907407407407407,0.2972222222222222,1,0,0,4.649109699996188,call1,0.006944444444444444,-0.3125,1,0,0,5.4513176000036765,colour4,0.3523148148148148,-0.1638888888888889,1,0,0,7.694800099998247,number3,False,True,True,11,1,2019_Nov_12_1405,MA_Theta_Exp,3.0.7,60.266922196246476,
video/Experiment/zh_sp07_Dr_Gr_4_GlobalTheta_NoVideo.avi,globalTheta,noVideo,sp07,Dr,Gr,4,2,5,flow/blocks/GlobalTheta_NoVideo_A.csv,,,,,,,,,0,2,2,2,0,31,31,23,,,,,,,,,-0.4393518518518518,0.35833333333333334,1,0,0,4.558519999991404,call1,-0.05462962962962963,0.10555555555555556,1,0,0,5.27329219999956,colour2,0.41805555555555557,-0.11388888888888889,1,0,0,5.976432399998885,number3,False,True,False,11,1,2019_Nov_12_1405,MA_Theta_Exp,3.0.7,60.266922196246476,
video/Experiment/zh_sp07_Ad_Gr_1_NVocInAudio_GlobalThetaInVideo.avi,vocoded,plusVideo,sp07,Ad,Gr,1,3,1,flow/blocks/NVocInAudio_GlobalThetaInVideo_A.csv,,,,,,,,,0,3,3,3,0,0,0,4,,,,,,,,,-0.40324074074074073,0.32222222222222224,1,0,0,4.829182700021192,call1,0.008333333333333333,0.11388888888888889,1,0,0,5.410136300022714,colour2,0.38425925925925924,0.25416666666666665,1,0,0,5.9952128999866545,number1,True,True,True,11,1,2019_Nov_12_1405,MA_Theta_Exp,3.0.7,60.266922196246476,
video/Experiment/zh_sp01_Dr_Ge_2_NVocInAudio_GlobalThetaInVideo.avi,vocoded,plusVideo,sp01,Dr,Ge,2,3,1,flow/blocks/NVocInAudio_GlobalThetaInVideo_A.csv,,,,,,,,,0,3,3,3,0,1,1,17,,,,,,,,,-0.42916666666666664,0.09444444444444444,1,0,0,5.187371400010306,call2,-0.08796296296296297,0.2638888888888889,1,0,0,5.7277587999997195,colour1,0.43148148148148147,0.07083333333333333,1,0,0,6.507328200008487,number2,True,True,True,11,1,2019_Nov_12_1405,MA_Theta_Exp,3.0.7,60.266922196246476,
video/Experiment/zh_sp07_Ad_Ro_2_NVocInAudio_GlobalThetaInVideo.avi,vocoded,plusVideo,sp07,Ad,Ro,2,3,1,flow/blocks/NVocInAudio_GlobalThetaInVideo_A.csv,,,,,,,,,0,3,3,3,0,2,2,9,,,,,,,,,-0.40555555555555556,0.2791666666666667,1,0,0,4.708019999990938,call1,-0.007407407407407408,-0.07916666666666666,1,0,0,5.416873299982399,colour3,0.3912037037037037,0.0875,1,0,0,6.2666082000068855,number2,True,True,True,11,1,2019_Nov_12_1405,MA_Theta_Exp,3.0.7,60.266922196246476,
video/Experiment/zh_sp01_Dr_Ge_1_NVocInAudio_GlobalThetaInVideo.avi,vocoded,plusVideo,sp01,Dr,Ge,1,3,1,flow/blocks/NVocInAudio_GlobalThetaInVideo_A.csv,,,,,,,,,0,3,3,3,0,3,3,16,,,,,,,,,-0.43194444444444446,0.10416666666666667,1,0,0,5.076543300005142,call2,-0.06296296296296296,0.2875,1,0,0,5.781710000010207,colour1,0.41064814814814815,0.2902777777777778,1,0,0,6.530257900012657,number1,True,True,True,11,1,2019_Nov_12_1405,MA_Theta_Exp,3.0.7,60.266922196246476,
video/Experiment/zh_sp01_Dr_Ro_3_NVocInAudio_GlobalThetaInVideo.avi,vocoded,plusVideo,sp01,Dr,Ro,3,3,1,flow/blocks/NVocInAudio_GlobalThetaInVideo_A.csv,,,,,,,,,0,3,3,3,0,4,4,26,,,,,,,,,-0.40555555555555556,0.08055555555555556,1,0,0,5.176012100011576,call2,0.006944444444444444,-0.09166666666666666,1,0,0,6.3286248999938834,colour3,0.36898148148148147,-0.07916666666666666,1,0,0,6.8492553000105545,number3,True,True,True,11,1,2019_Nov_12_1405,MA_Theta_Exp,3.0.7,60.266922196246476,
video/Experiment/zh_sp07_Ad_Ge_1_NVocInAudio_GlobalThetaInVideo.avi,vocoded,plusVideo,sp07,Ad,Ge,1,3,1,flow/blocks/NVocInAudio_GlobalThetaInVideo_A.csv,,,,,,,,,0,3,3,3,0,5,5,0,,,,,,,,,-0.3972222222222222,0.3138888888888889,1,0,0,4.5777918999956455,call1,0.00787037037037037,0.32083333333333336,1,0,0,5.068851700023515,colour1,0.34814814814814815,0.26805555555555555,1,0,0,5.589543399983086,number1,True,True,True,11,1,2019_Nov_12_1405,MA_Theta_Exp,3.0.7,60.266922196246476,
video/Experiment/zh_sp01_Dr_Gr_2_NVocInAudio_GlobalThetaInVideo.avi,vocoded,plusVideo,sp01,Dr,Gr,2,3,1,flow/blocks/NVocInAudio_GlobalThetaInVideo_A.csv,,,,,,,,,0,3,3,3,0,6,6,21,,,,,,,,,-0.39490740740740743,0.06666666666666667,1,0,0,5.393975699989824,call2,-0.08055555555555556,0.0875,1,0,0,6.101842699979898,colour2,0.3648148148148148,0.10138888888888889,1,0,0,6.896672900009435,number2,True,True,True,11,1,2019_Nov_12_1405,MA_Theta_Exp,3.0.7,60.266922196246476,
video/Experiment/zh_sp01_Dr_Gr_4_NVocInAudio_GlobalThetaInVideo.avi,vocoded,plusVideo,sp01,Dr,Gr,4,3,1,flow/blocks/NVocInAudio_GlobalThetaInVideo_A.csv,,,,,,,,,0,3,3,3,0,7,7,23,,,,,,,,,-0.40879629629629627,0.10833333333333334,1,0,0,5.690017399989301,call2,-0.024074074074074074,0.10555555555555556,1,0,0,6.2037394999933895,colour2,0.4027777777777778,-0.32916666666666666,1,0,0,6.988604100013617,number4,True,True,True,11,1,2019_Nov_12_1405,MA_Theta_Exp,3.0.7,60.266922196246476,
video/Experiment/zh_sp07_Dr_We_3_NVocInAudio_GlobalThetaInVideo.avi,vocoded,plusVideo,sp07,Dr,We,3,3,1,flow/blocks/NVocInAudio_GlobalThetaInVideo_A.csv,,,,,,,,,0,3,3,3,0,8,8,30,,,,,,,,,-0.41712962962962963,0.12083333333333333,1,0,0,4.499820800003363,call2,0.03611111111111111,-0.33194444444444443,1,0,0,5.340088299999479,colour4,0.41805555555555557,-0.10833333333333334,1,0,0,5.894506900018314,number3,True,True,True,11,1,2019_Nov_12_1405,MA_Theta_Exp,3.0.7,60.266922196246476,
video/Experiment/zh_sp07_Ad_Ro_4_NVocInAudio_GlobalThetaInVideo.avi,vocoded,plusVideo,sp07,Ad,Ro,4,3,1,flow/blocks/NVocInAudio_GlobalThetaInVideo_A.csv,,,,,,,,,0,3,3,3,0,9,9,11,,,,,,,,,-0.41435185185185186,0.34444444444444444,1,0,0,4.504835500003537,call1,-0.031018518518518518,-0.10416666666666667,1,0,0,5.269891300005838,colour3,0.4162037037037037,-0.32083333333333336,1,0,0,5.8738902999903075,number4,True,True,True,11,1,2019_Nov_12_1405,MA_Theta_Exp,3.0.7,60.266922196246476,
video/Experiment/zh_sp07_Ad_We_1_NVocInAudio_GlobalThetaInVideo.avi,vocoded,plusVideo,sp07,Ad,We,1,3,1,flow/blocks/NVocInAudio_GlobalThetaInVideo_A.csv,,,,,,,,,0,3,3,3,0,10,10,12,,,,,,,,,-0.38796296296296295,0.3111111111111111,1,0,0,5.76188559998991,call1,0.016666666666666666,-0.3125,1,0,0,6.44788249998237,colour4,0.3592592592592593,0.2972222222222222,1,0,0,7.259909999993397,number1,True,True,True,11,1,2019_Nov_12_1405,MA_Theta_Exp,3.0.7,60.266922196246476,
video/Experiment/zh_sp07_Dr_Ro_1_NVocInAudio_GlobalThetaInVideo.avi,vocoded,plusVideo,sp07,Dr,Ro,1,3,1,flow/blocks/NVocInAudio_GlobalThetaInVideo_A.csv,,,,,,,,,0,3,3,3,0,11,11,24,,,,,,,,,-0.4111111111111111,0.09722222222222222,1,0,0,4.590460500010522,call2,-0.004166666666666667,-0.10416666666666667,1,0,0,5.443836299993563,colour3,0.36342592592592593,0.28194444444444444,1,0,0,6.196271699998761,number1,True,True,True,11,1,2019_Nov_12_1405,MA_Theta_Exp,3.0.7,60.266922196246476,
video/Experiment/zh_sp07_Ad_Gr_3_NVocInAudio_GlobalThetaInVideo.avi,vocoded,plusVideo,sp07,Ad,Gr,3,3,1,flow/blocks/NVocInAudio_GlobalThetaInVideo_A.csv,,,,,,,,,0,3,3,3,0,12,12,6,,,,,,,,,-0.37222222222222223,0.28888888888888886,1,0,0,4.878012600005604,call1,-0.030555555555555555,0.0763888888888889,1,0,0,5.762345299997833,colour2,0.3800925925925926,-0.1111111111111111,1,0,0,6.37967490000301,number3,True,True,True,11,1,2019_Nov_12_1405,MA_Theta_Exp,3.0.7,60.266922196246476,
video/Experiment/zh_sp07_Ad_Ge_3_NVocInAudio_GlobalThetaInVideo.avi,vocoded,plusVideo,sp07,Ad,Ge,3,3,1,flow/blocks/NVocInAudio_GlobalThetaInVideo_A.csv,,,,,,,,,0,3,3,3,0,13,13,2,,,,,,,,,-0.4,0.3138888888888889,1,0,0,4.787180199986324,call1,-0.024074074074074074,0.3138888888888889,1,0,0,5.568862499989336,colour1,0.3912037037037037,-0.09305555555555556,1,0,0,6.376734599994961,number3,True,True,True,11,1,2019_Nov_12_1405,MA_Theta_Exp,3.0.7,60.266922196246476,
video/Experiment/zh_sp07_Dr_We_1_NVocInAudio_GlobalThetaInVideo.avi,vocoded,plusVideo,sp07,Dr,We,1,3,1,flow/blocks/NVocInAudio_GlobalThetaInVideo_A.csv,,,,,,,,,0,3,3,3,0,14,14,28,,,,,,,,,-0.4532407407407407,0.12916666666666668,1,0,0,4.530787299998337,call2,-0.02546296296296296,-0.29444444444444445,1,0,0,5.206166699994355,colour4,0.37592592592592594,0.30277777777777776,1,0,0,5.963389999989886,number1,True,True,True,11,1,2019_Nov_12_1405,MA_Theta_Exp,3.0.7,60.266922196246476,
video/Experiment/zh_sp01_Dr_Ro_2_NVocInAudio_GlobalThetaInVideo.avi,vocoded,plusVideo,sp01,Dr,Ro,2,3,1,flow/blocks/NVocInAudio_GlobalThetaInVideo_A.csv,,,,,,,,,0,3,3,3,0,15,15,25,,,,,,,,,-0.4166666666666667,0.125,1,0,0,5.8756542000046466,call2,0.012037037037037037,-0.13055555555555556,1,0,0,6.462878599995747,colour3,0.4064814814814815,0.10138888888888889,1,0,0,7.045415300002787,number2,True,True,True,11,1,2019_Nov_12_1405,MA_Theta_Exp,3.0.7,60.266922196246476,
video/Experiment/zh_sp01_Dr_Gr_1_NVocInAudio_GlobalThetaInVideo.avi,vocoded,plusVideo,sp01,Dr,Gr,1,3,1,flow/blocks/NVocInAudio_GlobalThetaInVideo_A.csv,,,,,,,,,0,3,3,3,0,16,16,20,,,,,,,,,-0.3861111111111111,0.12361111111111112,1,0,0,5.780553699994925,call2,-0.018518518518518517,0.12222222222222222,1,0,0,7.3814345999853685,colour2,0.4217592592592593,0.2791666666666667,1,0,0,7.914643600001,number1,True,True,True,11,1,2019_Nov_12_1405,MA_Theta_Exp,3.0.7,60.266922196246476,
video/Experiment/zh_sp07_Dr_Ge_3_NVocInAudio_GlobalThetaInVideo.avi,vocoded,plusVideo,sp07,Dr,Ge,3,3,1,flow/blocks/NVocInAudio_GlobalThetaInVideo_A.csv,,,,,,,,,0,3,3,3,0,17,17,18,,,,,,,,,-0.3763888888888889,0.1,1,0,0,4.4306674000108615,call2,-0.024074074074074074,0.30277777777777776,1,0,0,4.998386099992786,colour1,0.38564814814814813,-0.10277777777777777,1,0,0,5.647115700005088,number3,True,True,True,11,1,2019_Nov_12_1405,MA_Theta_Exp,3.0.7,60.266922196246476,
video/Experiment/zh_sp01_Ad_Ge_2_NVocInAudio_GlobalThetaInVideo.avi,vocoded,plusVideo,sp01,Ad,Ge,2,3,1,flow/blocks/NVocInAudio_GlobalThetaInVideo_A.csv,,,,,,,,,0,3,3,3,0,18,18,1,,,,,,,,,-0.39444444444444443,0.27361111111111114,1,0,0,10.022722499998054,call1,0.01898148148148148,0.2847222222222222,1,0,0,10.566333900002064,colour1,0.425,0.10972222222222222,1,0,0,11.597150199988391,number2,True,True,True,11,1,2019_Nov_12_1405,MA_Theta_Exp,3.0.7,60.266922196246476,
video/Experiment/zh_sp01_Dr_We_4_NVocInAudio_GlobalThetaInVideo.avi,vocoded,plusVideo,sp01,Dr,We,4,3,1,flow/blocks/NVocInAudio_GlobalThetaInVideo_A.csv,,,,,,,,,0,3,3,3,0,19,19,31,,,,,,,,,-0.4083333333333333,0.12638888888888888,1,0,0,5.128847199986922,call2,-0.004629629629629629,-0.2916666666666667,1,0,0,5.911717899987707,colour4,0.39537037037037037,-0.2972222222222222,1,0,0,6.508022099995287,number4,True,True,True,11,1,2019_Nov_12_1405,MA_Theta_Exp,3.0.7,60.266922196246476,
video/Experiment/zh_sp01_Ad_Gr_4_NVocInAudio_GlobalThetaInVideo.avi,vocoded,plusVideo,sp01,Ad,Gr,4,3,1,flow/blocks/NVocInAudio_GlobalThetaInVideo_A.csv,,,,,,,,,0,3,3,3,0,20,20,7,,,,,,,,,-0.4199074074074074,0.3125,1,0,0,5.042191399988951,call1,0.034722222222222224,0.07222222222222222,1,0,0,5.696123399975477,colour2,0.41203703703703703,-0.33055555555555555,1,0,0,6.393533700000262,number4,True,True,True,11,1,2019_Nov_12_1405,MA_Theta_Exp,3.0.7,60.266922196246476,
video/Experiment/zh_sp01_Ad_Gr_2_NVocInAudio_GlobalThetaInVideo.avi,vocoded,plusVideo,sp01,Ad,Gr,2,3,1,flow/blocks/NVocInAudio_GlobalThetaInVideo_A.csv,,,,,,,,,0,3,3,3,0,21,21,5,,,,,,,,,-0.4949074074074074,0.3138888888888889,1,0,0,5.206083299999591,call1,0.03194444444444444,0.09027777777777778,1,0,0,6.37384009998641,colour2,0.3662037037037037,0.1,1,0,0,6.963492699986091,number2,True,True,True,11,1,2019_Nov_12_1405,MA_Theta_Exp,3.0.7,60.266922196246476,
video/Experiment/zh_sp01_Ad_We_2_NVocInAudio_GlobalThetaInVideo.avi,vocoded,plusVideo,sp01,Ad,We,2,3,1,flow/blocks/NVocInAudio_GlobalThetaInVideo_A.csv,,,,,,,,,0,3,3,3,0,22,22,13,,,,,,,,,-0.3574074074074074,0.30277777777777776,1,0,0,4.922719100024551,call1,-0.012962962962962963,-0.29444444444444445,1,0,0,5.626419100008206,colour4,0.35509259259259257,0.11388888888888889,1,0,0,6.274856499978341,number2,True,True,True,11,1,2019_Nov_12_1405,MA_Theta_Exp,3.0.7,60.266922196246476,
video/Experiment/zh_sp01_Ad_We_4_NVocInAudio_GlobalThetaInVideo.avi,vocoded,plusVideo,sp01,Ad,We,4,3,1,flow/blocks/NVocInAudio_GlobalThetaInVideo_A.csv,,,,,,,,,0,3,3,3,0,23,23,15,,,,,,,,,-0.39305555555555555,0.3125,1,0,0,5.652223600016441,call1,-0.02546296296296296,-0.30694444444444446,1,0,0,6.612880500004394,colour4,0.34675925925925927,-0.2833333333333333,1,0,0,7.110631699993974,number4,True,True,True,11,1,2019_Nov_12_1405,MA_Theta_Exp,3.0.7,60.266922196246476,
video/Experiment/zh_sp07_Dr_Ge_4_NVocInAudio_GlobalThetaInVideo.avi,vocoded,plusVideo,sp07,Dr,Ge,4,3,1,flow/blocks/NVocInAudio_GlobalThetaInVideo_A.csv,,,,,,,,,0,3,3,3,0,24,24,19,,,,,,,,,-0.39166666666666666,0.12083333333333333,1,0,0,4.584771800000453,call2,0.01898148148148148,0.3013888888888889,1,0,0,5.101073500001803,colour1,0.39814814814814814,-0.2986111111111111,1,0,0,6.120023099996615,number4,True,True,True,11,1,2019_Nov_12_1405,MA_Theta_Exp,3.0.7,60.266922196246476,
video/Experiment/zh_sp07_Ad_Ro_3_NVocInAudio_GlobalThetaInVideo.avi,vocoded,plusVideo,sp07,Ad,Ro,3,3,1,flow/blocks/NVocInAudio_GlobalThetaInVideo_A.csv,,,,,,,,,0,3,3,3,0,25,25,10,,,,,,,,,-0.39861111111111114,0.26666666666666666,1,0,0,5.769140399992466,call1,0.05694444444444444,-0.125,1,0,0,6.485446799983038,colour3,0.4134259259259259,-0.11388888888888889,1,0,0,6.920647099992493,number3,True,True,True,11,1,2019_Nov_12_1405,MA_Theta_Exp,3.0.7,60.266922196246476,
video/Experiment/zh_sp01_Ad_Ge_4_NVocInAudio_GlobalThetaInVideo.avi,vocoded,plusVideo,sp01,Ad,Ge,4,3,1,flow/blocks/NVocInAudio_GlobalThetaInVideo_A.csv,,,,,,,,,0,3,3,3,0,26,26,3,,,,,,,,,-0.43657407407407406,0.31805555555555554,1,0,0,5.838309500017203,call1,-0.03657407407407407,0.3,1,0,0,6.638541000022087,colour1,0.38564814814814813,-0.28055555555555556,1,0,0,7.281088700023247,number4,True,True,True,11,1,2019_Nov_12_1405,MA_Theta_Exp,3.0.7,60.266922196246476,
video/Experiment/zh_sp07_Ad_Ro_1_NVocInAudio_GlobalThetaInVideo.avi,vocoded,plusVideo,sp07,Ad,Ro,1,3,1,flow/blocks/NVocInAudio_GlobalThetaInVideo_A.csv,,,,,,,,,0,3,3,3,0,27,27,8,,,,,,,,,-0.40324074074074073,0.30972222222222223,1,0,0,4.306758699996863,call1,-0.010185185185185186,-0.07916666666666666,1,0,0,4.998972900008084,colour3,0.36898148148148147,0.29583333333333334,1,0,0,5.735737900016829,number1,True,True,True,11,1,2019_Nov_12_1405,MA_Theta_Exp,3.0.7,60.266922196246476,
video/Experiment/zh_sp01_Dr_We_2_NVocInAudio_GlobalThetaInVideo.avi,vocoded,plusVideo,sp01,Dr,We,2,3,1,flow/blocks/NVocInAudio_GlobalThetaInVideo_A.csv,,,,,,,,,0,3,3,3,0,28,28,29,,,,,,,,,-0.40694444444444444,0.10416666666666667,1,0,0,5.192865499993786,call2,-0.022222222222222223,-0.3,1,0,0,5.974750499997754,colour4,0.36342592592592593,0.06805555555555555,1,0,0,6.611393400002271,number2,True,True,True,11,1,2019_Nov_12_1405,MA_Theta_Exp,3.0.7,60.266922196246476,
video/Experiment/zh_sp07_Dr_Ro_4_NVocInAudio_GlobalThetaInVideo.avi,vocoded,plusVideo,sp07,Dr,Ro,4,3,1,flow/blocks/NVocInAudio_GlobalThetaInVideo_A.csv,,,,,,,,,0,3,3,3,0,29,29,27,,,,,,,,,-0.4111111111111111,0.10694444444444444,1,0,0,5.337201199989067,call2,-0.026851851851851852,-0.08888888888888889,1,0,0,5.996308999980101,colour3,0.3675925925925926,-0.34305555555555556,1,0,0,6.661222399998223,number4,True,True,True,11,1,2019_Nov_12_1405,MA_Theta_Exp,3.0.7,60.266922196246476,
video/Experiment/zh_sp01_Ad_We_3_NVocInAudio_GlobalThetaInVideo.avi,vocoded,plusVideo,sp01,Ad,We,3,3,1,flow/blocks/NVocInAudio_GlobalThetaInVideo_A.csv,,,,,,,,,0,3,3,3,0,30,30,14,,,,,,,,,-0.40324074074074073,0.2986111111111111,1,0,0,5.0661158000002615,call1,-0.004629629629629629,-0.2972222222222222,1,0,0,5.802826400002232,colour4,0.3537037037037037,-0.10694444444444444,1,0,0,6.315814200002933,number3,True,True,True,11,1,2019_Nov_12_1405,MA_Theta_Exp,3.0.7,60.266922196246476,
video/Experiment/zh_sp07_Dr_Gr_3_NVocInAudio_GlobalThetaInVideo.avi,vocoded,plusVideo,sp07,Dr,Gr,3,3,1,flow/blocks/NVocInAudio_GlobalThetaInVideo_A.csv,,,,,,,,,0,3,3,3,0,31,31,22,,,,,,,,,-0.42916666666666664,0.10833333333333334,1,0,0,4.719113700004527,call2,0.009259259259259259,0.06111111111111111,1,0,0,5.255682699993486,colour2,0.37175925925925923,-0.10972222222222222,1,0,0,5.968838600005256,number3,True,True,True,11,1,2019_Nov_12_1405,MA_Theta_Exp,3.0.7,60.266922196246476,
video/Experiment/zh_sp01_Dr_We_1_NoThetaInAudio_NoVideo.avi,noTheta,noVideo,sp01,Dr,We,1,4,4,flow/blocks/NoThetaInAudio_NoVideo_A.csv,,,,,,,,,0,4,4,4,0,0,0,28,,,,,,,,,-0.40555555555555556,0.11388888888888889,1,0,0,5.633879099972546,call2,-0.04583333333333333,-0.28055555555555556,1,0,0,6.3353652000078,colour4,0.35648148148148145,0.2875,1,0,0,7.081777099985629,number1,True,True,True,11,1,2019_Nov_12_1405,MA_Theta_Exp,3.0.7,60.266922196246476,
video/Experiment/zh_sp07_Dr_Ro_1_NoThetaInAudio_NoVideo.avi,noTheta,noVideo,sp07,Dr,Ro,1,4,4,flow/blocks/NoThetaInAudio_NoVideo_A.csv,,,,,,,,,0,4,4,4,0,1,1,24,,,,,,,,,-0.3972222222222222,0.11527777777777778,1,0,0,4.775341900007334,call2,-0.024074074074074074,-0.1125,1,0,0,5.379783799988218,colour3,0.3597222222222222,0.325,1,0,0,6.25262680000742,number1,True,True,True,11,1,2019_Nov_12_1405,MA_Theta_Exp,3.0.7,60.266922196246476,
video/Experiment/zh_sp01_Ad_We_3_NoThetaInAudio_NoVideo.avi,noTheta,noVideo,sp01,Ad,We,3,4,4,flow/blocks/NoThetaInAudio_NoVideo_A.csv,,,,,,,,,0,4,4,4,0,2,2,14,,,,,,,,,-0.36944444444444446,0.2902777777777778,1,0,0,4.968582000001334,call1,-0.019444444444444445,-0.29444444444444445,1,0,0,5.703516200010199,colour4,0.4078703703703704,-0.05694444444444444,1,0,0,6.210087799991015,number3,True,True,True,11,1,2019_Nov_12_1405,MA_Theta_Exp,3.0.7,60.266922196246476,
video/Experiment/zh_sp01_Dr_Ge_3_NoThetaInAudio_NoVideo.avi,noTheta,noVideo,sp01,Dr,Ge,3,4,4,flow/blocks/NoThetaInAudio_NoVideo_A.csv,,,,,,,,,0,4,4,4,0,3,3,18,,,,,,,,,-0.4041666666666667,0.09444444444444444,1,0,0,4.850909000000684,call2,-0.03657407407407407,0.2569444444444444,1,0,0,5.344990500016138,colour1,0.3939814814814815,-0.14583333333333334,1,0,0,6.017615200020373,number3,True,True,True,11,1,2019_Nov_12_1405,MA_Theta_Exp,3.0.7,60.266922196246476,
video/Experiment/zh_sp07_Ad_Ro_1_NoThetaInAudio_NoVideo.avi,noTheta,noVideo,sp07,Ad,Ro,1,4,4,flow/blocks/NoThetaInAudio_NoVideo_A.csv,,,,,,,,,0,4,4,4,0,4,4,8,,,,,,,,,-0.4337962962962963,0.3277777777777778,1,0,0,4.1371842000226025,call1,-0.049074074074074076,-0.11666666666666667,1,0,0,4.781819700001506,colour3,0.34953703703703703,0.26666666666666666,1,0,0,5.468230600003153,number1,True,True,True,11,1,2019_Nov_12_1405,MA_Theta_Exp,3.0.7,60.266922196246476,
video/Experiment/zh_sp07_Dr_Ge_2_NoThetaInAudio_NoVideo.avi,noTheta,noVideo,sp07,Dr,Ge,2,4,4,flow/blocks/NoThetaInAudio_NoVideo_A.csv,,,,,,,,,0,4,4,4,0,5,5,17,,,,,,,,,-0.3861111111111111,0.26944444444444443,1,0,0,4.525828599988017,call1,-0.03935185185185185,0.30277777777777776,1,0,0,5.001554299989948,colour1,0.36064814814814816,0.05555555555555555,1,0,0,5.510813700006111,number2,False,True,True,11,1,2019_Nov_12_1405,MA_Theta_Exp,3.0.7,60.266922196246476,
video/Experiment/zh_sp01_Dr_Ro_2_NoThetaInAudio_NoVideo.avi,noTheta,noVideo,sp01,Dr,Ro,2,4,4,flow/blocks/NoThetaInAudio_NoVideo_A.csv,,,,,,,,,0,4,4,4,0,6,6,25,,,,,,,,,-0.4101851851851852,0.1111111111111111,1,0,0,4.969713099999353,call2,0.027777777777777776,-0.07916666666666666,1,0,0,5.674391000007745,colour3,0.387037037037037,0.09722222222222222,1,0,0,6.173621000023559,number2,True,True,True,11,1,2019_Nov_12_1405,MA_Theta_Exp,3.0.7,60.266922196246476,
video/Experiment/zh_sp01_Dr_Ro_4_NoThetaInAudio_NoVideo.avi,noTheta,noVideo,sp01,Dr,Ro,4,4,4,flow/blocks/NoThetaInAudio_NoVideo_A.csv,,,,,,,,,0,4,4,4,0,7,7,27,,,,,,,,,-0.41712962962962963,0.11805555555555555,1,0,0,6.256295500003034,call2,0.07175925925925926,-0.125,1,0,0,6.842170199990505,colour3,0.41759259259259257,-0.3277777777777778,1,0,0,7.363728500000434,number4,True,True,True,11,1,2019_Nov_12_1405,MA_Theta_Exp,3.0.7,60.266922196246476,
video/Experiment/zh_sp01_Ad_Gr_3_NoThetaInAudio_NoVideo.avi,noTheta,noVideo,sp01,Ad,Gr,3,4,4,flow/blocks/NoThetaInAudio_NoVideo_A.csv,,,,,,,,,0,4,4,4,0,8,8,6,,,,,,,,,-0.4111111111111111,0.3111111111111111,1,0,0,5.235782899981132,call1,-0.012962962962962963,0.09861111111111111,1,0,0,5.752165500016417,colour2,0.4050925925925926,-0.10416666666666667,1,0,0,6.610153999994509,number3,True,True,True,11,1,2019_Nov_12_1405,MA_Theta_Exp,3.0.7,60.266922196246476,
video/Experiment/zh_sp01_Ad_We_4_NoThetaInAudio_NoVideo.avi,noTheta,noVideo,sp01,Ad,We,4,4,4,flow/blocks/NoThetaInAudio_NoVideo_A.csv,,,,,,,,,0,4,4,4,0,9,9,15,,,,,,,,,-0.3638888888888889,0.30972222222222223,1,0,0,4.997154499986209,call1,0.03009259259259259,-0.2861111111111111,1,0,0,5.82208830001764,colour4,0.3902777777777778,-0.275,1,0,0,6.286964699975215,number4,True,True,True,11,1,2019_Nov_12_1405,MA_Theta_Exp,3.0.7,60.266922196246476,
video/Experiment/zh_sp07_Dr_Gr_2_NoThetaInAudio_NoVideo.avi,noTheta,noVideo,sp07,Dr,Gr,2,4,4,flow/blocks/NoThetaInAudio_NoVideo_A.csv,,,,,,,,,0,4,4,4,0,10,10,21,,,,,,,,,-0.4041666666666667,0.3236111111111111,1,0,0,4.531312300008722,call1,0.001388888888888889,0.0875,1,0,0,5.251108500000555,colour2,0.3592592592592593,0.11388888888888889,1,0,0,5.793447800009744,number2,False,True,True,11,1,2019_Nov_12_1405,MA_Theta_Exp,3.0.7,60.266922196246476,
video/Experiment/zh_sp07_Ad_Ge_4_NoThetaInAudio_NoVideo.avi,noTheta,noVideo,sp07,Ad,Ge,4,4,4,flow/blocks/NoThetaInAudio_NoVideo_A.csv,,,,,,,,,0,4,4,4,0,11,11,3,,,,,,,,,-0.39166666666666666,0.30694444444444446,1,0,0,4.9077688999823295,call1,-0.011574074074074073,0.2916666666666667,1,0,0,5.5646209999977145,colour1,0.40925925925925927,-0.2972222222222222,1,0,0,6.387194599985378,number4,True,True,True,11,1,2019_Nov_12_1405,MA_Theta_Exp,3.0.7,60.266922196246476,
video/Experiment/zh_sp07_Dr_We_4_NoThetaInAudio_NoVideo.avi,noTheta,noVideo,sp07,Dr,We,4,4,4,flow/blocks/NoThetaInAudio_NoVideo_A.csv,,,,,,,,,0,4,4,4,0,12,12,31,,,,,,,,,-0.3819444444444444,0.15,1,0,0,4.515480900008697,call2,0.009722222222222222,-0.29444444444444445,1,0,0,5.2809320999949705,colour4,0.36064814814814816,-0.14166666666666666,1,0,0,5.8137407999893185,number3,True,True,False,11,1,2019_Nov_12_1405,MA_Theta_Exp,3.0.7,60.266922196246476,
video/Experiment/zh_sp01_Ad_Ge_3_NoThetaInAudio_NoVideo.avi,noTheta,noVideo,sp01,Ad,Ge,3,4,4,flow/blocks/NoThetaInAudio_NoVideo_A.csv,,,,,,,,,0,4,4,4,0,13,13,2,,,,,,,,,-0.3972222222222222,0.30833333333333335,1,0,0,4.931036599999061,call1,-0.06712962962962964,0.3236111111111111,1,0,0,5.352277800004231,colour1,0.3731481481481482,-0.08194444444444444,1,0,0,5.9305299000116065,number3,True,True,True,11,1,2019_Nov_12_1405,MA_Theta_Exp,3.0.7,60.266922196246476,
video/Experiment/zh_sp07_Ad_Gr_4_NoThetaInAudio_NoVideo.avi,noTheta,noVideo,sp07,Ad,Gr,4,4,4,flow/blocks/NoThetaInAudio_NoVideo_A.csv,,,,,,,,,0,4,4,4,0,14,14,7,,,,,,,,,-0.3736111111111111,0.32222222222222224,1,0,0,4.827707799995551,call1,-0.013888888888888888,0.1125,1,0,0,5.665188899991335,colour2,0.35,-0.09722222222222222,1,0,0,6.9963093000114895,number3,True,True,False,11,1,2019_Nov_12_1405,MA_Theta_Exp,3.0.7,60.266922196246476,
video/Experiment/zh_sp07_Ad_Ro_2_NoThetaInAudio_NoVideo.avi,noTheta,noVideo,sp07,Ad,Ro,2,4,4,flow/blocks/NoThetaInAudio_NoVideo_A.csv,,,,,,,,,0,4,4,4,0,15,15,9,,,,,,,,,-0.3726851851851852,0.325,1,0,0,4.736165200010873,call1,-0.024074074074074074,-0.07222222222222222,1,0,0,5.385678399994504,colour3,0.37083333333333335,0.05694444444444444,1,0,0,5.973347099992679,number2,True,True,True,11,1,2019_Nov_12_1405,MA_Theta_Exp,3.0.7,60.266922196246476,
video/Experiment/zh_sp01_Dr_Ro_3_NoThetaInAudio_NoVideo.avi,noTheta,noVideo,sp01,Dr,Ro,3,4,4,flow/blocks/NoThetaInAudio_NoVideo_A.csv,,,,,,,,,0,4,4,4,0,16,16,26,,,,,,,,,-0.41805555555555557,0.08333333333333333,1,0,0,4.996713100001216,call2,-0.012962962962962963,-0.09583333333333334,1,0,0,5.626615199988009,colour3,0.36342592592592593,-0.09166666666666666,1,0,0,6.116379600018263,number3,True,True,True,11,1,2019_Nov_12_1405,MA_Theta_Exp,3.0.7,60.266922196246476,
video/Experiment/zh_sp01_Ad_Ro_3_NoThetaInAudio_NoVideo.avi,noTheta,noVideo,sp01,Ad,Ro,3,4,4,flow/blocks/NoThetaInAudio_NoVideo_A.csv,,,,,,,,,0,4,4,4,0,17,17,10,,,,,,,,,-0.3680555555555556,0.2722222222222222,1,0,0,5.065348299976904,call1,-0.04490740740740741,-0.06944444444444445,1,0,0,5.809126399981324,colour3,0.3731481481481482,-0.058333333333333334,1,0,0,6.3206650000065565,number3,True,True,True,11,1,2019_Nov_12_1405,MA_Theta_Exp,3.0.7,60.266922196246476,
video/Experiment/zh_sp01_Ad_We_1_NoThetaInAudio_NoVideo.avi,noTheta,noVideo,sp01,Ad,We,1,4,4,flow/blocks/NoThetaInAudio_NoVideo_A.csv,,,,,,,,,0,4,4,4,0,18,18,12,,,,,,,,,-0.44212962962962965,0.2777777777777778,1,0,0,5.092060599999968,call1,0.044444444444444446,-0.2916666666666667,1,0,0,6.012225999991642,colour4,0.3300925925925926,0.2777777777777778,1,0,0,6.6995178000070155,number1,True,True,True,11,1,2019_Nov_12_1405,MA_Theta_Exp,3.0.7,60.266922196246476,
video/Experiment/zh_sp07_Ad_Ge_2_NoThetaInAudio_NoVideo.avi,noTheta,noVideo,sp07,Ad,Ge,2,4,4,flow/blocks/NoThetaInAudio_NoVideo_A.csv,,,,,,,,,0,4,4,4,0,19,19,1,,,,,,,,,-0.39490740740740743,0.2722222222222222,1,0,0,4.55848629999673,call1,-0.049074074074074076,0.2986111111111111,1,0,0,5.3187918000039645,colour1,0.35648148148148145,0.06527777777777778,1,0,0,5.91495439998107,number2,True,True,True,11,1,2019_Nov_12_1405,MA_Theta_Exp,3.0.7,60.266922196246476,
video/Experiment/zh_sp07_Ad_Gr_1_NoThetaInAudio_NoVideo.avi,noTheta,noVideo,sp07,Ad,Gr,1,4,4,flow/blocks/NoThetaInAudio_NoVideo_A.csv,,,,,,,,,0,4,4,4,0,20,20,4,,,,,,,,,-0.42962962962962964,0.31666666666666665,1,0,0,4.483590499992715,call1,-0.01990740740740741,0.0763888888888889,1,0,0,5.0305394000024535,colour2,0.3375,0.25833333333333336,1,0,0,5.623662500001956,number1,True,True,True,11,1,2019_Nov_12_1405,MA_Theta_Exp,3.0.7,60.266922196246476,
video/Experiment/zh_sp01_Dr_We_3_NoThetaInAudio_NoVideo.avi,noTheta,noVideo,sp01,Dr,We,3,4,4,flow/blocks/NoThetaInAudio_NoVideo_A.csv,,,,,,,,,0,4,4,4,0,21,21,30,,,,,,,,,-0.39305555555555555,0.09722222222222222,1,0,0,5.49654679998639,call2,-0.0032407407407407406,-0.3194444444444444,1,0,0,6.146022900007665,colour4,0.36898148148148147,-0.15694444444444444,1,0,0,6.694594300002791,number3,True,True,True,11,1,2019_Nov_12_1405,MA_Theta_Exp,3.0.7,60.266922196246476,
video/Experiment/zh_sp07_Dr_Ge_4_NoThetaInAudio_NoVideo.avi,noTheta,noVideo,sp07,Dr,Ge,4,4,4,flow/blocks/NoThetaInAudio_NoVideo_A.csv,,,,,,,,,0,4,4,4,0,22,22,19,,,,,,,,,-0.42268518518518516,0.325,1,0,0,4.624967999989167,call1,-0.03657407407407407,0.32916666666666666,1,0,0,5.108707900013542,colour1,0.40694444444444444,-0.30833333333333335,1,0,0,5.876209599984577,number4,False,True,True,11,1,2019_Nov_12_1405,MA_Theta_Exp,3.0.7,60.266922196246476,
video/Experiment/zh_sp07_Dr_Gr_1_NoThetaInAudio_NoVideo.avi,noTheta,noVideo,sp07,Dr,Gr,1,4,4,flow/blocks/NoThetaInAudio_NoVideo_A.csv,,,,,,,,,0,4,4,4,0,23,23,20,,,,,,,,,-0.412962962962963,0.09861111111111111,1,0,0,5.032449799997266,call2,-0.024074074074074074,0.11388888888888889,1,0,0,5.590539500000887,colour2,0.3537037037037037,0.2722222222222222,1,0,0,6.282097100018291,number1,True,True,True,11,1,2019_Nov_12_1405,MA_Theta_Exp,3.0.7,60.266922196246476,
video/Experiment/zh_sp01_Dr_Gr_4_NoThetaInAudio_NoVideo.avi,noTheta,noVideo,sp01,Dr,Gr,4,4,4,flow/blocks/NoThetaInAudio_NoVideo_A.csv,,,,,,,,,0,4,4,4,0,24,24,23,,,,,,,,,-0.425,0.1,1,0,0,4.98623020001105,call2,-0.05324074074074074,0.1,1,0,0,5.467158700019354,colour2,0.3439814814814815,-0.26805555555555555,1,0,0,6.061860199988587,number4,True,True,True,11,1,2019_Nov_12_1405,MA_Theta_Exp,3.0.7,60.266922196246476,
video/Experiment/zh_sp01_Ad_We_2_NoThetaInAudio_NoVideo.avi,noTheta,noVideo,sp01,Ad,We,2,4,4,flow/blocks/NoThetaInAudio_NoVideo_A.csv,,,,,,,,,0,4,4,4,0,25,25,13,,,,,,,,,-0.37777777777777777,0.07361111111111111,1,0,0,5.112835999985691,call2,-0.02546296296296296,-0.24305555555555555,1,0,0,5.785718400002224,colour4,0.3523148148148148,0.06388888888888888,1,0,0,6.362142099998891,number2,False,True,True,11,1,2019_Nov_12_1405,MA_Theta_Exp,3.0.7,60.266922196246476,
video/Experiment/zh_sp07_Dr_Ge_1_NoThetaInAudio_NoVideo.avi,noTheta,noVideo,sp07,Dr,Ge,1,4,4,flow/blocks/NoThetaInAudio_NoVideo_A.csv,,,,,,,,,0,4,4,4,0,26,26,16,,,,,,,,,-0.4060185185185185,0.3277777777777778,1,0,0,4.586634700011928,call1,-0.05740740740740741,0.325,1,0,0,5.353842899989104,colour1,0.33287037037037037,0.2652777777777778,1,0,0,5.909788799996022,number1,False,True,True,11,1,2019_Nov_12_1405,MA_Theta_Exp,3.0.7,60.266922196246476,
video/Experiment/zh_sp01_Ad_Ro_4_NoThetaInAudio_NoVideo.avi,noTheta,noVideo,sp01,Ad,Ro,4,4,4,flow/blocks/NoThetaInAudio_NoVideo_A.csv,,,,,,,,,0,4,4,4,0,27,27,11,,,,,,,,,-0.42083333333333334,0.28055555555555556,1,0,0,6.36160010000458,call1,-0.012962962962962963,-0.11388888888888889,1,0,0,7.1392168999882415,colour3,0.399537037037037,-0.28055555555555556,1,0,0,7.720327699993504,number4,True,True,True,11,1,2019_Nov_12_1405,MA_Theta_Exp,3.0.7,60.266922196246476,
video/Experiment/zh_sp07_Ad_Ge_1_NoThetaInAudio_NoVideo.avi,noTheta,noVideo,sp07,Ad,Ge,1,4,4,flow/blocks/NoThetaInAudio_NoVideo_A.csv,,,,,,,,,0,4,4,4,0,28,28,0,,,,,,,,,-0.4351851851851852,0.3,1,0,0,4.285528300009901,call1,0.009722222222222222,0.2861111111111111,1,0,0,4.77193340001395,colour1,0.3592592592592593,0.2833333333333333,1,0,0,5.391944800008787,number1,True,True,True,11,1,2019_Nov_12_1405,MA_Theta_Exp,3.0.7,60.266922196246476,
video/Experiment/zh_sp01_Dr_We_2_NoThetaInAudio_NoVideo.avi,noTheta,noVideo,sp01,Dr,We,2,4,4,flow/blocks/NoThetaInAudio_NoVideo_A.csv,,,,,,,,,0,4,4,4,0,29,29,29,,,,,,,,,-0.3712962962962963,0.14166666666666666,1,0,0,4.943453999992926,call2,-0.0060185185185185185,-0.2875,1,0,0,5.585634000017308,colour4,0.3578703703703704,0.07083333333333333,1,0,0,6.206883500010008,number2,True,True,True,11,1,2019_Nov_12_1405,MA_Theta_Exp,3.0.7,60.266922196246476,
video/Experiment/zh_sp07_Ad_Gr_2_NoThetaInAudio_NoVideo.avi,noTheta,noVideo,sp07,Ad,Gr,2,4,4,flow/blocks/NoThetaInAudio_NoVideo_A.csv,,,,,,,,,0,4,4,4,0,30,30,5,,,,,,,,,-0.35555555555555557,0.3013888888888889,1,0,0,6.5681828999950085,call1,0.02638888888888889,0.06666666666666667,1,0,0,7.2431818999757525,colour2,0.4023148148148148,0.07361111111111111,1,0,0,7.71469939997769,number2,True,True,True,11,1,2019_Nov_12_1405,MA_Theta_Exp,3.0.7,60.266922196246476,
video/Experiment/zh_sp07_Dr_Gr_3_NoThetaInAudio_NoVideo.avi,noTheta,noVideo,sp07,Dr,Gr,3,4,4,flow/blocks/NoThetaInAudio_NoVideo_A.csv,,,,,,,,,0,4,4,4,0,31,31,22,,,,,,,,,-0.4337962962962963,0.3486111111111111,1,0,0,4.769475000008242,call1,0.027314814814814816,0.1375,1,0,0,5.344114299979992,colour2,0.39814814814814814,-0.1375,1,0,0,5.886123800009955,number3,False,True,True,11,1,2019_Nov_12_1405,MA_Theta_Exp,3.0.7,60.266922196246476,
video/Experiment/zh_sp01_Un_We_1_NVocInAudio_GlobalThetaInVideo.avi,vocoded,plusVideo,sp01,Un,We,1,0,1,flow/blocks/NVocInAudio_GlobalThetaInVideo_B.csv,,,,,,,,,,,,,,,,,0,0,0,0,0,0,0,28,-0.40694444444444444,-0.30833333333333335,1,0,0,5.549333200004185,call4,-0.002777777777777778,-0.3138888888888889,1,0,0,6.212175299995579,colour4,0.3912037037037037,0.2972222222222222,1,0,0,6.97324409999419,number1,True,True,True,11,1,2019_Nov_12_1405,MA_Theta_Exp,3.0.7,60.266922196246476,
video/Experiment/zh_sp01_Ti_Ro_1_NVocInAudio_GlobalThetaInVideo.avi,vocoded,plusVideo,sp01,Ti,Ro,1,0,1,flow/blocks/NVocInAudio_GlobalThetaInVideo_B.csv,,,,,,,,,,,,,,,,,0,0,0,0,0,1,1,8,-0.45046296296296295,-0.12083333333333333,1,0,0,5.527808099985123,call3,0.005092592592592593,-0.09583333333333334,1,0,0,6.0827543000050355,colour3,0.39814814814814814,0.2791666666666667,1,0,0,6.616078499995638,number1,True,True,True,11,1,2019_Nov_12_1405,MA_Theta_Exp,3.0.7,60.266922196246476,
video/Experiment/zh_sp01_Un_Ge_4_NVocInAudio_GlobalThetaInVideo.avi,vocoded,plusVideo,sp01,Un,Ge,4,0,1,flow/blocks/NVocInAudio_GlobalThetaInVideo_B.csv,,,,,,,,,,,,,,,,,0,0,0,0,0,2,2,19,-0.3851851851851852,-0.32083333333333336,1,0,0,5.568223800015403,call4,-0.03796296296296296,0.2986111111111111,1,0,0,6.264082000008784,colour1,0.4273148148148148,-0.3347222222222222,1,0,0,6.965859400021145,number4,True,True,True,11,1,2019_Nov_12_1405,MA_Theta_Exp,3.0.7,60.266922196246476,
video/Experiment/zh_sp07_Un_Ge_1_NVocInAudio_GlobalThetaInVideo.avi,vocoded,plusVideo,sp07,Un,Ge,1,0,1,flow/blocks/NVocInAudio_GlobalThetaInVideo_B.csv,,,,,,,,,,,,,,,,,0,0,0,0,0,3,3,16,-0.42962962962962964,-0.30694444444444446,1,0,0,5.196484300016891,call4,-0.0587962962962963,0.2875,1,0,0,6.07821320000221,colour1,0.45416666666666666,0.29444444444444445,1,0,0,6.71227910000016,number1,True,True,True,11,1,2019_Nov_12_1405,MA_Theta_Exp,3.0.7,60.266922196246476,
video/Experiment/zh_sp01_Ti_Gr_1_NVocInAudio_GlobalThetaInVideo.avi,vocoded,plusVideo,sp01,Ti,Gr,1,0,1,flow/blocks/NVocInAudio_GlobalThetaInVideo_B.csv,,,,,,,,,,,,,,,,,0,0,0,0,0,4,4,4,-0.425,-0.10833333333333334,1,0,0,5.113923299999442,call3,-0.012962962962962963,0.0875,1,0,0,5.64469509999617,colour2,0.4550925925925926,0.35555555555555557,1,0,0,6.180266200011829,number1,True,True,True,11,1,2019_Nov_12_1405,MA_Theta_Exp,3.0.7,60.266922196246476,
video/Experiment/zh_sp01_Un_We_4_NVocInAudio_GlobalThetaInVideo.avi,vocoded,plusVideo,sp01,Un,We,4,0,1,flow/blocks/NVocInAudio_GlobalThetaInVideo_B.csv,,,,,,,,,,,,,,,,,0,0,0,0,0,5,5,31,-0.4060185185185185,-0.3194444444444444,1,0,0,6.739675299992086,call4,-0.008796296296296297,-0.3111111111111111,1,0,0,7.41617299997597,colour4,0.3731481481481482,-0.29305555555555557,1,0,0,7.965441699983785,number4,True,True,True,11,1,2019_Nov_12_1405,MA_Theta_Exp,3.0.7,60.266922196246476,
video/Experiment/zh_sp01_Un_Ro_3_NVocInAudio_GlobalThetaInVideo.avi,vocoded,plusVideo,sp01,Un,Ro,3,0,1,flow/blocks/NVocInAudio_GlobalThetaInVideo_B.csv,,,,,,,,,,,,,,,,,0,0,0,0,0,6,6,26,-0.375,-0.3055555555555556,1,0,0,5.507147500000428,call4,-0.033796296296296297,-0.16805555555555557,1,0,0,6.133096200006548,colour3,0.3800925925925926,-0.09861111111111111,1,0,0,6.690379700012272,number3,True,True,True,11,1,2019_Nov_12_1405,MA_Theta_Exp,3.0.7,60.266922196246476,
video/Experiment/zh_sp01_Un_Ro_4_NVocInAudio_GlobalThetaInVideo.avi,vocoded,plusVideo,sp01,Un,Ro,4,0,1,flow/blocks/NVocInAudio_GlobalThetaInVideo_B.csv,,,,,,,,,,,,,,,,,0,0,0,0,0,7,7,27,-0.39351851851851855,-0.35555555555555557,1,0,0,5.211578600021312,call4,0.010648148148148148,-0.11666666666666667,1,0,0,6.139166400011163,colour3,0.3731481481481482,-0.3013888888888889,1,0,0,6.920131399994716,number4,True,True,True,11,1,2019_Nov_12_1405,MA_Theta_Exp,3.0.7,60.266922196246476,
video/Experiment/zh_sp07_Ti_Gr_2_NVocInAudio_GlobalThetaInVideo.avi,vocoded,plusVideo,sp07,Ti,Gr,2,0,1,flow/blocks/NVocInAudio_GlobalThetaInVideo_B.csv,,,,,,,,,,,,,,,,,0,0,0,0,0,8,8,5,-0.4041666666666667,-0.09166666666666666,1,0,0,4.5697531000187155,call3,-0.019444444444444445,0.09444444444444444,1,0,0,5.381428200023947,colour2,0.3731481481481482,0.11805555555555555,1,0,0,5.970523500000127,number2,True,True,True,11,1,2019_Nov_12_1405,MA_Theta_Exp,3.0.7,60.266922196246476,
video/Experiment/zh_sp07_Ti_Gr_3_NVocInAudio_GlobalThetaInVideo.avi,vocoded,plusVideo,sp07,Ti,Gr,3,0,1,flow/blocks/NVocInAudio_GlobalThetaInVideo_B.csv,,,,,,,,,,,,,,,,,0,0,0,0,0,9,9,6,-0.4,-0.07083333333333333,1,0,0,4.682184500008589,call3,-0.04212962962962963,0.05138888888888889,1,0,0,5.266001299984055,colour2,0.3731481481481482,-0.09166666666666666,1,0,0,6.032290900009684,number3,True,True,True,11,1,2019_Nov_12_1405,MA_Theta_Exp,3.0.7,60.266922196246476,
video/Experiment/zh_sp01_Un_Ro_2_NVocInAudio_GlobalThetaInVideo.avi,vocoded,plusVideo,sp01,Un,Ro,2,0,1,flow/blocks/NVocInAudio_GlobalThetaInVideo_B.csv,,,,,,,,,,,,,,,,,0,0,0,0,0,10,10,25,-0.4236111111111111,-0.3111111111111111,1,0,0,5.555331200012006,call4,-0.03518518518518519,-0.1111111111111111,1,0,0,6.114660899998853,colour3,0.4166666666666667,0.058333333333333334,1,0,0,6.607935999985784,number2,True,True,True,11,1,2019_Nov_12_1405,MA_Theta_Exp,3.0.7,60.266922196246476,
video/Experiment/zh_sp07_Ti_Gr_4_NVocInAudio_GlobalThetaInVideo.avi,vocoded,plusVideo,sp07,Ti,Gr,4,0,1,flow/blocks/NVocInAudio_GlobalThetaInVideo_B.csv,,,,,,,,,,,,,,,,,0,0,0,0,0,11,11,7,-0.4,-0.09722222222222222,1,0,0,4.955829999991693,call3,0.0412037037037037,0.05694444444444444,1,0,0,5.515660900011426,colour2,0.40925925925925927,-0.34444444444444444,1,0,0,6.402069200004917,number4,True,True,True,11,1,2019_Nov_12_1405,MA_Theta_Exp,3.0.7,60.266922196246476,
video/Experiment/zh_sp07_Un_Gr_3_NVocInAudio_GlobalThetaInVideo.avi,vocoded,plusVideo,sp07,Un,Gr,3,0,1,flow/blocks/NVocInAudio_GlobalThetaInVideo_B.csv,,,,,,,,,,,,,,,,,0,0,0,0,0,12,12,22,-0.38333333333333336,-0.3527777777777778,1,0,0,4.539271799993003,call4,-0.010185185185185186,0.05277777777777778,1,0,0,5.313965499983169,colour2,0.3958333333333333,-0.06527777777777778,1,0,0,6.14274359997944,number3,True,True,True,11,1,2019_Nov_12_1405,MA_Theta_Exp,3.0.7,60.266922196246476,
video/Experiment/zh_sp01_Ti_Ro_4_NVocInAudio_GlobalThetaInVideo.avi,vocoded,plusVideo,sp01,Ti,Ro,4,0,1,flow/blocks/NVocInAudio_GlobalThetaInVideo_B.csv,,,,,,,,,,,,,,,,,0,0,0,0,0,13,13,11,-0.4185185185185185,-0.10694444444444444,1,0,0,5.707568799989531,call3,0.03888888888888889,-0.0875,1,0,0,6.383923900022637,colour3,0.3958333333333333,-0.3111111111111111,1,0,0,6.92022519998136,number4,True,True,True,11,1,2019_Nov_12_1405,MA_Theta_Exp,3.0.7,60.266922196246476,
video/Experiment/zh_sp07_Un_Ge_2_NVocInAudio_GlobalThetaInVideo.avi,vocoded,plusVideo,sp07,Un,Ge,2,0,1,flow/blocks/NVocInAudio_GlobalThetaInVideo_B.csv,,,,,,,,,,,,,,,,,0,0,0,0,0,14,14,17,-0.36666666666666664,-0.34305555555555556,1,0,0,5.740680999995675,call4,-0.01712962962962963,0.29583333333333334,1,0,0,6.52065700001549,colour1,0.45,0.08333333333333333,1,0,0,7.399014399998123,number2,True,True,True,11,1,2019_Nov_12_1405,MA_Theta_Exp,3.0.7,60.266922196246476,
video/Experiment/zh_sp07_Ti_Ge_3_NVocInAudio_GlobalThetaInVideo.avi,vocoded,plusVideo,sp07,Ti,Ge,3,0,1,flow/blocks/NVocInAudio_GlobalThetaInVideo_B.csv,,,,,,,,,,,,,,,,,0,0,0,0,0,15,15,2,-0.40694444444444444,-0.14166666666666666,1,0,0,4.775447499996517,call3,-0.04351851851851852,0.30972222222222223,1,0,0,5.58227350001107,colour1,0.38842592592592595,-0.11527777777777778,1,0,0,6.456814100005431,number3,True,True,True,11,1,2019_Nov_12_1405,MA_Theta_Exp,3.0.7,60.266922196246476,
video/Experiment/zh_sp07_Un_We_2_NVocInAudio_GlobalThetaInVideo.avi,vocoded,plusVideo,sp07,Un,We,2,0,1,flow/blocks/NVocInAudio_GlobalThetaInVideo_B.csv,,,,,,,,,,,,,,,,,0,0,0,0,0,16,16,29,-0.4046296296296296,-0.33611111111111114,1,0,0,4.999973099998897,call4,-0.011574074074074073,-0.30833333333333335,1,0,0,6.113727399992058,colour4,0.37453703703703706,0.05694444444444444,1,0,0,7.094440799992299,number2,True,True,True,11,1,2019_Nov_12_1405,MA_Theta_Exp,3.0.7,60.266922196246476,
video/Experiment/zh_sp01_Ti_Ge_2_NVocInAudio_GlobalThetaInVideo.avi,vocoded,plusVideo,sp01,Ti,Ge,2,0,1,flow/blocks/NVocInAudio_GlobalThetaInVideo_B.csv,,,,,,,,,,,,,,,,,0,0,0,0,0,17,17,1,-0.45,-0.13472222222222222,1,0,0,5.312641700002132,call3,-0.08055555555555556,0.275,1,0,0,6.035962299996754,colour1,0.36898148148148147,0.09444444444444444,1,0,0,6.6873506999982055,number2,True,True,True,11,1,2019_Nov_12_1405,MA_Theta_Exp,3.0.7,60.266922196246476,
video/Experiment/zh_sp01_Ti_We_2_NVocInAudio_GlobalThetaInVideo.avi,vocoded,plusVideo,sp01,Ti,We,2,0,1,flow/blocks/NVocInAudio_GlobalThetaInVideo_B.csv,,,,,,,,,,,,,,,,,0,0,0,0,0,18,18,13,-0.4013888888888889,-0.09305555555555556,1,0,0,5.330479399999604,call3,-0.03194444444444444,-0.31666666666666665,1,0,0,6.274225499975728,colour4,0.3731481481481482,0.08472222222222223,1,0,0,6.986945299984654,number2,True,True,True,11,1,2019_Nov_12_1405,MA_Theta_Exp,3.0.7,60.266922196246476,
video/Experiment/zh_sp01_Ti_Ro_3_NVocInAudio_GlobalThetaInVideo.avi,vocoded,plusVideo,sp01,Ti,Ro,3,0,1,flow/blocks/NVocInAudio_GlobalThetaInVideo_B.csv,,,,,,,,,,,,,,,,,0,0,0,0,0,19,19,10,-0.41388888888888886,-0.09027777777777778,1,0,0,5.110845199989853,call3,0.016203703703703703,-0.08333333333333333,1,0,0,5.697810899990145,colour3,0.35509259259259257,-0.10555555555555556,1,0,0,6.2609133000078145,number3,True,True,True,11,1,2019_Nov_12_1405,MA_Theta_Exp,3.0.7,60.266922196246476,
video/Experiment/zh_sp07_Ti_We_1_NVocInAudio_GlobalThetaInVideo.avi,vocoded,plusVideo,sp07,Ti,We,1,0,1,flow/blocks/NVocInAudio_GlobalThetaInVideo_B.csv,,,,,,,,,,,,,,,,,0,0,0,0,0,20,20,12,-0.4638888888888889,-0.09861111111111111,1,0,0,4.410223200015025,call3,-0.03518518518518519,-0.32083333333333336,1,0,0,5.099389500013785,colour4,0.4425925925925926,0.2986111111111111,1,0,0,5.972326899995096,number1,True,True,True,11,1,2019_Nov_12_1405,MA_Theta_Exp,3.0.7,60.266922196246476,
video/Experiment/zh_sp07_Un_Ro_1_NVocInAudio_GlobalThetaInVideo.avi,vocoded,plusVideo,sp07,Un,Ro,1,0,1,flow/blocks/NVocInAudio_GlobalThetaInVideo_B.csv,,,,,,,,,,,,,,,,,0,0,0,0,0,21,21,24,-0.37777777777777777,-0.3125,1,0,0,5.370678300008876,call4,-0.05185185185185185,-0.08888888888888889,1,0,0,5.91997220000485,colour3,0.38842592592592595,0.29305555555555557,1,0,0,6.694215299998177,number1,True,True,True,11,1,2019_Nov_12_1405,MA_Theta_Exp,3.0.7,60.266922196246476,
video/Experiment/zh_sp07_Ti_Ge_4_NVocInAudio_GlobalThetaInVideo.avi,vocoded,plusVideo,sp07,Ti,Ge,4,0,1,flow/blocks/NVocInAudio_GlobalThetaInVideo_B.csv,,,,,,,,,,,,,,,,,0,0,0,0,0,22,22,3,-0.44212962962962965,-0.10555555555555556,1,0,0,4.453729900007602,call3,-0.021296296296296296,0.24583333333333332,1,0,0,5.026661499985494,colour1,0.36064814814814816,-0.3263888888888889,1,0,0,5.734791700000642,number4,True,True,True,11,1,2019_Nov_12_1405,MA_Theta_Exp,3.0.7,60.266922196246476,
video/Experiment/zh_sp07_Un_Gr_4_NVocInAudio_GlobalThetaInVideo.avi,vocoded,plusVideo,sp07,Un,Gr,4,0,1,flow/blocks/NVocInAudio_GlobalThetaInVideo_B.csv,,,,,,,,,,,,,,,,,0,0,0,0,0,23,23,23,-0.3902777777777778,-0.3138888888888889,1,0,0,4.709947499999544,call4,-0.049074074074074076,0.04583333333333333,1,0,0,5.251969699980691,colour2,0.4023148148148148,-0.33194444444444443,1,0,0,5.9265357999829575,number4,True,True,True,11,1,2019_Nov_12_1405,MA_Theta_Exp,3.0.7,60.266922196246476,
video/Experiment/zh_sp01_Un_We_3_NVocInAudio_GlobalThetaInVideo.avi,vocoded,plusVideo,sp01,Un,We,3,0,1,flow/blocks/NVocInAudio_GlobalThetaInVideo_B.csv,,,,,,,,,,,,,,,,,0,0,0,0,0,24,24,30,-0.39861111111111114,-0.3055555555555556,1,0,0,5.462197899993043,call4,-0.001388888888888889,-0.32083333333333336,1,0,0,6.079257699981099,colour4,0.3662037037037037,-0.1388888888888889,1,0,0,6.625339099991834,number3,True,True,True,11,1,2019_Nov_12_1405,MA_Theta_Exp,3.0.7,60.266922196246476,
video/Experiment/zh_sp01_Ti_Ge_1_NVocInAudio_GlobalThetaInVideo.avi,vocoded,plusVideo,sp01,Ti,Ge,1,0,1,flow/blocks/NVocInAudio_GlobalThetaInVideo_B.csv,,,,,,,,,,,,,,,,,0,0,0,0,0,25,25,0,-0.37222222222222223,-0.06388888888888888,1,0,0,5.146889899973758,call3,-0.011111111111111112,0.31527777777777777,1,0,0,5.665364599990426,colour1,0.3800925925925926,0.2833333333333333,1,0,0,6.1904214000096545,number1,True,True,True,11,1,2019_Nov_12_1405,MA_Theta_Exp,3.0.7,60.266922196246476,
video/Experiment/zh_sp07_Un_Gr_2_NVocInAudio_GlobalThetaInVideo.avi,vocoded,plusVideo,sp07,Un,Gr,2,0,1,flow/blocks/NVocInAudio_GlobalThetaInVideo_B.csv,,,,,,,,,,,,,,,,,0,0,0,0,0,26,26,21,-0.39861111111111114,-0.33194444444444443,1,0,0,4.623024299973622,call4,-0.06435185185185185,0.10972222222222222,1,0,0,5.29844869999215,colour2,0.34953703703703703,0.11805555555555555,1,0,0,6.084865100012394,number2,True,True,True,11,1,2019_Nov_12_1405,MA_Theta_Exp,3.0.7,60.266922196246476,
video/Experiment/zh_sp01_Un_Ge_3_NVocInAudio_GlobalThetaInVideo.avi,vocoded,plusVideo,sp01,Un,Ge,3,0,1,flow/blocks/NVocInAudio_GlobalThetaInVideo_B.csv,,,,,,,,,,,,,,,,,0,0,0,0,0,27,27,18,-0.37222222222222223,-0.30694444444444446,1,0,0,4.866533699998399,call4,-0.032407407407407406,0.2875,1,0,0,5.64760270001716,colour1,0.36342592592592593,-0.09305555555555556,1,0,0,6.225306400010595,number3,True,True,True,11,1,2019_Nov_12_1405,MA_Theta_Exp,3.0.7,60.266922196246476,
video/Experiment/zh_sp07_Ti_Ro_2_NVocInAudio_GlobalThetaInVideo.avi,vocoded,plusVideo,sp07,Ti,Ro,2,0,1,flow/blocks/NVocInAudio_GlobalThetaInVideo_B.csv,,,,,,,,,,,,,,,,,0,0,0,0,0,28,28,9,-0.41805555555555557,-0.10694444444444444,1,0,0,4.412202599982265,call3,0.05925925925925926,-0.10277777777777777,1,0,0,4.93844500000705,colour3,0.4287037037037037,0.1,1,0,0,5.423004000011133,number2,True,True,True,11,1,2019_Nov_12_1405,MA_Theta_Exp,3.0.7,60.266922196246476,
video/Experiment/zh_sp07_Ti_We_4_NVocInAudio_GlobalThetaInVideo.avi,vocoded,plusVideo,sp07,Ti,We,4,0,1,flow/blocks/NVocInAudio_GlobalThetaInVideo_B.csv,,,,,,,,,,,,,,,,,0,0,0,0,0,29,29,15,-0.3726851851851852,-0.10833333333333334,1,0,0,5.052021000010427,call3,0.000925925925925926,-0.3527777777777778,1,0,0,5.964123300014762,colour4,0.4111111111111111,-0.30833333333333335,1,0,0,6.883105299988529,number4,True,True,True,11,1,2019_Nov_12_1405,MA_Theta_Exp,3.0.7,60.266922196246476,
video/Experiment/zh_sp01_Un_Gr_1_NVocInAudio_GlobalThetaInVideo.avi,vocoded,plusVideo,sp01,Un,Gr,1,0,1,flow/blocks/NVocInAudio_GlobalThetaInVideo_B.csv,,,,,,,,,,,,,,,,,0,0,0,0,0,30,30,20,-0.4013888888888889,-0.3236111111111111,1,0,0,5.020184799999697,call4,-0.050462962962962966,0.10972222222222222,1,0,0,5.786643600004027,colour2,0.3902777777777778,0.31527777777777777,1,0,0,6.522814299998572,number1,True,True,True,11,1,2019_Nov_12_1405,MA_Theta_Exp,3.0.7,60.266922196246476,
video/Experiment/zh_sp07_Ti_We_3_NVocInAudio_GlobalThetaInVideo.avi,vocoded,plusVideo,sp07,Ti,We,3,0,1,flow/blocks/NVocInAudio_GlobalThetaInVideo_B.csv,,,,,,,,,,,,,,,,,0,0,0,0,0,31,31,14,-0.3597222222222222,-0.07083333333333333,1,0,0,4.758348399976967,call3,0.027314814814814816,-0.34444444444444444,1,0,0,5.3533860000025015,colour4,0.4203703703703704,-0.12638888888888888,1,0,0,5.810843999992358,number3,True,True,True,11,1,2019_Nov_12_1405,MA_Theta_Exp,3.0.7,60.266922196246476,
video/Experiment/zh_sp01_Ti_We_1_NoThetaInAudio_NoVideo.avi,noTheta,noVideo,sp01,Ti,We,1,1,4,flow/blocks/NoThetaInAudio_NoVideo_B.csv,,,,,,,,,,,,,,,,,0,1,1,1,0,0,0,12,-0.39166666666666666,-0.08472222222222223,1,0,0,5.166970799997216,call3,0.059722222222222225,-0.30694444444444446,1,0,0,5.923374800011516,colour4,0.4083333333333333,0.2625,1,0,0,6.625214600004256,number1,True,True,True,11,1,2019_Nov_12_1405,MA_Theta_Exp,3.0.7,60.266922196246476,
video/Experiment/zh_sp07_Ti_We_2_NoThetaInAudio_NoVideo.avi,noTheta,noVideo,sp07,Ti,We,2,1,4,flow/blocks/NoThetaInAudio_NoVideo_B.csv,,,,,,,,,,,,,,,,,0,1,1,1,0,1,1,13,-0.4310185185185185,-0.06944444444444445,1,0,0,4.445971500012092,call3,-0.024074074074074074,-0.3416666666666667,1,0,0,5.043707700009691,colour4,0.4064814814814815,0.10694444444444444,1,0,0,5.578251800005091,number2,True,True,True,11,1,2019_Nov_12_1405,MA_Theta_Exp,3.0.7,60.266922196246476,
video/Experiment/zh_sp01_Ti_Ro_2_NoThetaInAudio_NoVideo.avi,noTheta,noVideo,sp01,Ti,Ro,2,1,4,flow/blocks/NoThetaInAudio_NoVideo_B.csv,,,,,,,,,,,,,,,,,0,1,1,1,0,2,2,9,-0.3972222222222222,-0.12083333333333333,1,0,0,5.031479900004342,call3,0.05925925925925926,-0.09583333333333334,1,0,0,5.545001099992078,colour3,0.4398148148148148,0.07361111111111111,1,0,0,6.010412900010124,number2,True,True,True,11,1,2019_Nov_12_1405,MA_Theta_Exp,3.0.7,60.266922196246476,
video/Experiment/zh_sp01_Un_Ge_1_NoThetaInAudio_NoVideo.avi,noTheta,noVideo,sp01,Un,Ge,1,1,4,flow/blocks/NoThetaInAudio_NoVideo_B.csv,,,,,,,,,,,,,,,,,0,1,1,1,0,3,3,16,-0.3962962962962963,-0.2902777777777778,1,0,0,5.190226200007601,call4,-0.02638888888888889,0.275,1,0,0,5.943356100004166,colour1,0.3537037037037037,0.30694444444444446,1,0,0,6.476188500004355,number1,True,True,True,11,1,2019_Nov_12_1405,MA_Theta_Exp,3.0.7,60.266922196246476,
video/Experiment/zh_sp01_Un_Ge_3_NoThetaInAudio_NoVideo.avi,noTheta,noVideo,sp01,Un,Ge,3,1,4,flow/blocks/NoThetaInAudio_NoVideo_B.csv,,,,,,,,,,,,,,,,,0,1,1,1,0,4,4,18,-0.40879629629629627,-0.31805555555555554,1,0,0,4.831458600005135,call4,-0.0032407407407407406,0.29305555555555557,1,0,0,5.539716799976304,colour1,0.33564814814814814,-0.10555555555555556,1,0,0,6.186923900007969,number3,True,True,True,11,1,2019_Nov_12_1405,MA_Theta_Exp,3.0.7,60.266922196246476,
video/Experiment/zh_sp07_Un_Gr_1_NoThetaInAudio_NoVideo.avi,noTheta,noVideo,sp07,Un,Gr,1,1,4,flow/blocks/NoThetaInAudio_NoVideo_B.csv,,,,,,,,,,,,,,,,,0,1,1,1,0,5,5,20,-0.37777777777777777,-0.30416666666666664,1,0,0,4.511110999999801,call4,-0.0824074074074074,0.06388888888888888,1,0,0,5.186730000015814,colour2,0.3527777777777778,0.2861111111111111,1,0,0,5.766022099996917,number1,True,True,True,11,1,2019_Nov_12_1405,MA_Theta_Exp,3.0.7,60.266922196246476,
video/Experiment/zh_sp07_Un_Gr_4_NoThetaInAudio_NoVideo.avi,noTheta,noVideo,sp07,Un,Gr,4,1,4,flow/blocks/NoThetaInAudio_NoVideo_B.csv,,,,,,,,,,,,,,,,,0,1,1,1,0,6,6,23,-0.42685185185185187,-0.3138888888888889,1,0,0,4.82923010000377,call4,-0.03657407407407407,0.09722222222222222,1,0,0,5.573232399998233,colour2,0.4009259259259259,-0.09722222222222222,1,0,0,6.1172220000007655,number3,True,True,False,11,1,2019_Nov_12_1405,MA_Theta_Exp,3.0.7,60.266922196246476,
video/Experiment/zh_sp07_Un_Ro_3_NoThetaInAudio_NoVideo.avi,noTheta,noVideo,sp07,Un,Ro,3,1,4,flow/blocks/NoThetaInAudio_NoVideo_B.csv,,,,,,,,,,,,,,,,,0,1,1,1,0,7,7,26,-0.35138888888888886,-0.30416666666666664,1,0,0,4.455752699985169,call4,0.0412037037037037,-0.1,1,0,0,4.994558800011873,colour3,0.4134259259259259,-0.10138888888888889,1,0,0,5.482274299982237,number3,True,True,True,11,1,2019_Nov_12_1405,MA_Theta_Exp,3.0.7,60.266922196246476,
video/Experiment/zh_sp07_Un_Ge_2_NoThetaInAudio_NoVideo.avi,noTheta,noVideo,sp07,Un,Ge,2,1,4,flow/blocks/NoThetaInAudio_NoVideo_B.csv,,,,,,,,,,,,,,,,,0,1,1,1,0,8,8,17,-0.3888888888888889,-0.2972222222222222,1,0,0,4.372753000003286,call4,-0.0875,-0.2722222222222222,1,0,0,4.866176400013501,colour4,0.35648148148148145,0.10416666666666667,1,0,0,5.530743299983442,number2,True,False,True,11,1,2019_Nov_12_1405,MA_Theta_Exp,3.0.7,60.266922196246476,
video/Experiment/zh_sp07_Ti_Ro_3_NoThetaInAudio_NoVideo.avi,noTheta,noVideo,sp07,Ti,Ro,3,1,4,flow/blocks/NoThetaInAudio_NoVideo_B.csv,,,,,,,,,,,,,,,,,0,1,1,1,0,9,9,10,-0.4393518518518518,-0.14166666666666666,1,0,0,4.760099500010256,call3,0.016203703703703703,-0.10972222222222222,1,0,0,5.27067930001067,colour3,0.3925925925925926,-0.12361111111111112,1,0,0,5.889752899995074,number3,True,True,True,11,1,2019_Nov_12_1405,MA_Theta_Exp,3.0.7,60.266922196246476,
video/Experiment/zh_sp01_Ti_We_3_NoThetaInAudio_NoVideo.avi,noTheta,noVideo,sp01,Ti,We,3,1,4,flow/blocks/NoThetaInAudio_NoVideo_B.csv,,,,,,,,,,,,,,,,,0,1,1,1,0,10,10,14,-0.4305555555555556,-0.10416666666666667,1,0,0,5.102954000001773,call3,0.003703703703703704,-0.2847222222222222,1,0,0,5.695566499984125,colour4,0.3763888888888889,-0.11944444444444445,1,0,0,6.178039499995066,number3,True,True,True,11,1,2019_Nov_12_1405,MA_Theta_Exp,3.0.7,60.266922196246476,
video/Experiment/zh_sp07_Un_We_2_NoThetaInAudio_NoVideo.avi,noTheta,noVideo,sp07,Un,We,2,1,4,flow/blocks/NoThetaInAudio_NoVideo_B.csv,,,,,,,,,,,,,,,,,0,1,1,1,0,11,11,29,-0.4351851851851852,-0.29583333333333334,1,0,0,4.6827353000117,call4,0.012037037037037037,-0.28055555555555556,1,0,0,5.236059000017121,colour4,0.32592592592592595,0.06527777777777778,1,0,0,5.893726399983279,number2,True,True,True,11,1,2019_Nov_12_1405,MA_Theta_Exp,3.0.7,60.266922196246476,
video/Experiment/zh_sp01_Un_We_4_NoThetaInAudio_NoVideo.avi,noTheta,noVideo,sp01,Un,We,4,1,4,flow/blocks/NoThetaInAudio_NoVideo_B.csv,,,,,,,,,,,,,,,,,0,1,1,1,0,12,12,31,-0.36574074074074076,-0.32916666666666666,1,0,0,5.022019900003215,call4,-0.01712962962962963,-0.30416666666666664,1,0,0,5.510356899991166,colour4,0.35509259259259257,-0.28194444444444444,1,0,0,5.965350099984789,number4,True,True,True,11,1,2019_Nov_12_1405,MA_Theta_Exp,3.0.7,60.266922196246476,
