videoFile,condition,video,speaker,callSign,colour,number,seq,id,block,exp.thisRepN,exp.thisTrialN,exp.thisN,exp.thisIndex,training.thisRepN,training.thisTrialN,training.thisN,training.thisIndex,firstHalf.thisRepN,firstHalf.thisTrialN,firstHalf.thisN,firstHalf.thisIndex,blocksA.thisRepN,blocksA.thisTrialN,blocksA.thisN,blocksA.thisIndex,secondHalf.thisRepN,secondHalf.thisTrialN,secondHalf.thisN,secondHalf.thisIndex,blocksB.thisRepN,blocksB.thisTrialN,blocksB.thisN,blocksB.thisIndex,mouseClickOnCall.x,mouseClickOnCall.y,mouseClickOnCall.leftButton,mouseClickOnCall.midButton,mouseClickOnCall.rightButton,mouseClickOnCall.time,mouseClickOnCall.clicked_name,mouseClickOnColour.x,mouseClickOnColour.y,mouseClickOnColour.leftButton,mouseClickOnColour.midButton,mouseClickOnColour.rightButton,mouseClickOnColour.time,mouseClickOnColour.clicked_name,mouseClickOnNumber.x,mouseClickOnNumber.y,mouseClickOnNumber.leftButton,mouseClickOnNumber.midButton,mouseClickOnNumber.rightButton,mouseClickOnNumber.time,mouseClickOnNumber.clicked_name,callSignCorrect,colourCorrect,numberCorrect,participant,order,date,expName,psychopyVersion,frameRate,
video/Training/zh_sp01_Ad_We_4_NVocInAudio_NoVideo.avi,vocoded,noVideo,sp01,Ad,We,4,,,,,,,,0,0,0,0,,,,,,,,,,,,,,,,,-0.41805555555555557,0.3,1,0,0,6.879313900019042,call1,-0.008796296296296297,-0.35555555555555557,1,0,0,8.749573100009002,colour4,0.38055555555555554,-0.2902777777777778,1,0,0,9.881296200008364,number4,True,True,True,12,2,2019_Nov_12_1604,MA_Theta_Exp,3.0.7,60.20835704635891,
video/Training/zh_sp07_Ad_Ge_3_NVocInAudio_NoVideo.avi,vocoded,noVideo,sp07,Ad,Ge,3,,,,,,,,0,1,1,1,,,,,,,,,,,,,,,,,-0.38935185185185184,0.2902777777777778,1,0,0,4.766954899998382,call1,-0.012962962962962963,0.2763888888888889,1,0,0,5.33052069999394,colour1,0.4125,-0.11527777777777778,1,0,0,6.180055700009689,number3,True,True,True,12,2,2019_Nov_12_1604,MA_Theta_Exp,3.0.7,60.20835704635891,
video/Training/zh_sp01_Dr_Ro_3_NVocInAudio_GlobalThetaInVideo.avi,vocoded,plusVideo,sp01,Dr,Ro,3,,,,,,,,0,2,2,2,,,,,,,,,,,,,,,,,-0.40694444444444444,0.13055555555555556,1,0,0,6.937917000002926,call2,-0.011574074074074073,0.11944444444444445,1,0,0,10.85048779999488,colour2,0.3731481481481482,-0.10138888888888889,1,0,0,11.539419999986421,number3,True,False,True,12,2,2019_Nov_12_1604,MA_Theta_Exp,3.0.7,60.20835704635891,
video/Training/zh_sp07_Dr_Gr_4_NVocInAudio_GlobalThetaInVideo.avi,vocoded,plusVideo,sp07,Dr,Gr,4,,,,,,,,0,3,3,3,,,,,,,,,,,,,,,,,-0.4041666666666667,0.14583333333333334,1,0,0,4.487617400009185,call2,0.014814814814814815,0.07916666666666666,1,0,0,5.03141220001271,colour2,0.37777777777777777,-0.30972222222222223,1,0,0,5.645766699977685,number4,True,True,True,12,2,2019_Nov_12_1604,MA_Theta_Exp,3.0.7,60.20835704635891,
video/Training/zh_sp01_Ti_Gr_2_NoThetaInAudio_NoVideo.avi,noTheta,noVideo,sp01,Ti,Gr,2,,,,,,,,0,4,4,4,,,,,,,,,,,,,,,,,0.337037037037037,0.11527777777777778,1,0,0,9.997441899991827,call3,,,,,,,,,,,,,,,True,NO_ANSW,NO_ANSW,12,2,2019_Nov_12_1604,MA_Theta_Exp,3.0.7,60.20835704635891,
video/Training/zh_sp07_Ti_Ro_1_NoThetaInAudio_NoVideo.avi,noTheta,noVideo,sp07,Ti,Ro,1,,,,,,,,0,5,5,5,,,,,,,,,,,,,,,,,-0.3763888888888889,0.13333333333333333,1,0,0,4.512650599994231,call2,0.03009259259259259,-0.18611111111111112,1,0,0,5.307950099988375,colour3,0.4083333333333333,0.23194444444444445,1,0,0,5.820925000007264,number1,False,True,True,12,2,2019_Nov_12_1604,MA_Theta_Exp,3.0.7,60.20835704635891,
video/Training/zh_sp01_Un_Ge_1_NoThetaInAudio_GlobalThetaInVideo.avi,noTheta,plusVideo,sp01,Un,Ge,1,,,,,,,,0,6,6,6,,,,,,,,,,,,,,,,,-0.42962962962962964,0.10972222222222222,1,0,0,5.644337799982168,call2,-0.01990740740740741,-0.09027777777777778,1,0,0,6.3455140000151005,colour3,0.34444444444444444,0.25277777777777777,1,0,0,6.823402300011367,number1,False,False,True,12,2,2019_Nov_12_1604,MA_Theta_Exp,3.0.7,60.20835704635891,
video/Training/zh_sp07_Un_We_2_NoThetaInAudio_GlobalThetaInVideo.avi,noTheta,plusVideo,sp07,Un,We,2,,,,,,,,0,7,7,7,,,,,,,,,,,,,,,,,-0.38935185185185184,-0.32083333333333336,1,0,0,4.7908060000045225,call4,0.07731481481481481,-0.19166666666666668,1,0,0,5.487759699986782,colour3,0.3111111111111111,0.04861111111111111,1,0,0,6.112304100010078,number2,True,False,True,12,2,2019_Nov_12_1604,MA_Theta_Exp,3.0.7,60.20835704635891,
video/Training/zh_sp01_Ad_Ge_1_GlobalTheta_NoVideo.avi,globalTheta,noVideo,sp01,Ad,Ge,1,,,,,,,,0,8,8,8,,,,,,,,,,,,,,,,,-0.39166666666666666,0.11944444444444445,1,0,0,6.235774700006004,call2,0.0023148148148148147,-0.1,1,0,0,7.449566600000253,colour3,0.4166666666666667,0.2875,1,0,0,7.929578299983405,number1,False,False,True,12,2,2019_Nov_12_1604,MA_Theta_Exp,3.0.7,60.20835704635891,
video/Training/zh_sp07_Ad_Ro_3_GlobalTheta_NoVideo.avi,globalTheta,noVideo,sp07,Ad,Ro,3,,,,,,,,0,9,9,9,,,,,,,,,,,,,,,,,-0.39166666666666666,-0.3138888888888889,1,0,0,5.5657231000077445,call4,0.03981481481481482,-0.30694444444444446,1,0,0,6.693399500014493,colour4,0.3509259259259259,-0.1486111111111111,1,0,0,7.315103800006909,number3,False,False,True,12,2,2019_Nov_12_1604,MA_Theta_Exp,3.0.7,60.20835704635891,
video/Experiment/zh_sp01_Ad_Ge_3_NoThetaInAudio_GlobalThetaInVideo.avi,noTheta,plusVideo,sp01,Ad,Ge,3,0,3,flow/blocks/NoThetaInAudio_GlobalThetaInVideo_A.csv,,,,,,,,,0,0,0,0,0,0,0,2,,,,,,,,,-0.3921296296296296,0.1388888888888889,1,0,0,7.612787499994738,call2,0.004166666666666667,0.2847222222222222,1,0,0,8.372930000012275,colour1,0.3819444444444444,-0.059722222222222225,1,0,0,9.016651999991154,number3,False,True,True,12,2,2019_Nov_12_1604,MA_Theta_Exp,3.0.7,60.20835704635891,
video/Experiment/zh_sp01_Ad_Gr_2_NoThetaInAudio_GlobalThetaInVideo.avi,noTheta,plusVideo,sp01,Ad,Gr,2,0,3,flow/blocks/NoThetaInAudio_GlobalThetaInVideo_A.csv,,,,,,,,,0,0,0,0,0,1,1,5,,,,,,,,,-0.39166666666666666,0.31527777777777777,1,0,0,5.186503499979153,call1,-0.04212962962962963,0.10833333333333334,1,0,0,5.825801400002092,colour2,0.4300925925925926,0.0625,1,0,0,6.3589836999890395,number2,True,True,True,12,2,2019_Nov_12_1604,MA_Theta_Exp,3.0.7,60.20835704635891,
video/Experiment/zh_sp01_Dr_We_4_NoThetaInAudio_GlobalThetaInVideo.avi,noTheta,plusVideo,sp01,Dr,We,4,0,3,flow/blocks/NoThetaInAudio_GlobalThetaInVideo_A.csv,,,,,,,,,0,0,0,0,0,2,2,31,,,,,,,,,-0.41574074074074074,-0.2972222222222222,1,0,0,6.838163500011433,call4,0.006944444444444444,0.325,1,0,0,8.073314900015248,colour1,0.4300925925925926,-0.3680555555555556,1,0,0,8.71815910001169,number4,False,False,True,12,2,2019_Nov_12_1604,MA_Theta_Exp,3.0.7,60.20835704635891,
video/Experiment/zh_sp07_Ad_Ge_2_NoThetaInAudio_GlobalThetaInVideo.avi,noTheta,plusVideo,sp07,Ad,Ge,2,0,3,flow/blocks/NoThetaInAudio_GlobalThetaInVideo_A.csv,,,,,,,,,0,0,0,0,0,3,3,1,,,,,,,,,-0.4,0.28194444444444444,1,0,0,4.70717209999566,call1,0.013888888888888888,0.11388888888888889,1,0,0,6.957781399978558,colour2,0.4078703703703704,0.1125,1,0,0,7.948751699994318,number2,True,False,True,12,2,2019_Nov_12_1604,MA_Theta_Exp,3.0.7,60.20835704635891,
video/Experiment/zh_sp07_Dr_Gr_1_NoThetaInAudio_GlobalThetaInVideo.avi,noTheta,plusVideo,sp07,Dr,Gr,1,0,3,flow/blocks/NoThetaInAudio_GlobalThetaInVideo_A.csv,,,,,,,,,0,0,0,0,0,4,4,20,,,,,,,,,-0.4236111111111111,0.10972222222222222,1,0,0,5.455947100010235,call2,0.001388888888888889,-0.29583333333333334,1,0,0,6.604854100005468,colour4,0.36898148148148147,0.32916666666666666,1,0,0,7.3995418999984395,number1,True,False,True,12,2,2019_Nov_12_1604,MA_Theta_Exp,3.0.7,60.20835704635891,
video/Experiment/zh_sp01_Dr_Gr_2_NoThetaInAudio_GlobalThetaInVideo.avi,noTheta,plusVideo,sp01,Dr,Gr,2,0,3,flow/blocks/NoThetaInAudio_GlobalThetaInVideo_A.csv,,,,,,,,,0,0,0,0,0,5,5,21,,,,,,,,,-0.4263888888888889,-0.09305555555555556,1,0,0,6.62828149998677,call3,-0.026851851851851852,-0.09722222222222222,1,0,0,7.6583664000208955,colour3,0.36064814814814816,0.05694444444444444,1,0,0,8.625724200013792,number2,False,False,True,12,2,2019_Nov_12_1604,MA_Theta_Exp,3.0.7,60.20835704635891,
video/Experiment/zh_sp01_Ad_Ge_4_NoThetaInAudio_GlobalThetaInVideo.avi,noTheta,plusVideo,sp01,Ad,Ge,4,0,3,flow/blocks/NoThetaInAudio_GlobalThetaInVideo_A.csv,,,,,,,,,0,0,0,0,0,6,6,3,,,,,,,,,-0.36435185185185187,0.2875,1,0,0,5.405748599994695,call1,0.017592592592592594,0.09583333333333334,1,0,0,6.174322500010021,colour2,0.39814814814814814,-0.3125,1,0,0,6.9498204000119586,number4,True,False,True,12,2,2019_Nov_12_1604,MA_Theta_Exp,3.0.7,60.20835704635891,
video/Experiment/zh_sp07_Ad_We_1_NoThetaInAudio_GlobalThetaInVideo.avi,noTheta,plusVideo,sp07,Ad,We,1,0,3,flow/blocks/NoThetaInAudio_GlobalThetaInVideo_A.csv,,,,,,,,,0,0,0,0,0,7,7,12,,,,,,,,,-0.41435185185185186,-0.10138888888888889,1,0,0,5.853052799997386,call3,0.01898148148148148,-0.29583333333333334,1,0,0,6.8492111999948975,colour4,0.3861111111111111,0.3138888888888889,1,0,0,7.797670999978436,number1,False,True,True,12,2,2019_Nov_12_1604,MA_Theta_Exp,3.0.7,60.20835704635891,
video/Experiment/zh_sp07_Ad_Gr_4_NoThetaInAudio_GlobalThetaInVideo.avi,noTheta,plusVideo,sp07,Ad,Gr,4,0,3,flow/blocks/NoThetaInAudio_GlobalThetaInVideo_A.csv,,,,,,,,,0,0,0,0,0,8,8,7,,,,,,,,,-0.3768518518518518,0.3236111111111111,1,0,0,4.456106300000101,call1,-0.02546296296296296,0.09722222222222222,1,0,0,5.0097929000039585,colour2,0.4027777777777778,-0.3388888888888889,1,0,0,5.763059099990642,number4,True,True,True,12,2,2019_Nov_12_1604,MA_Theta_Exp,3.0.7,60.20835704635891,
video/Experiment/zh_sp01_Dr_Gr_3_NoThetaInAudio_GlobalThetaInVideo.avi,noTheta,plusVideo,sp01,Dr,Gr,3,0,3,flow/blocks/NoThetaInAudio_GlobalThetaInVideo_A.csv,,,,,,,,,0,0,0,0,0,9,9,22,,,,,,,,,-0.41388888888888886,0.10555555555555556,1,0,0,5.972095000004629,call2,0.002777777777777778,0.1111111111111111,1,0,0,6.760204500023974,colour2,0.4287037037037037,-0.10416666666666667,1,0,0,7.380893299996387,number3,True,True,True,12,2,2019_Nov_12_1604,MA_Theta_Exp,3.0.7,60.20835704635891,
video/Experiment/zh_sp01_Dr_Ge_3_NoThetaInAudio_GlobalThetaInVideo.avi,noTheta,plusVideo,sp01,Dr,Ge,3,0,3,flow/blocks/NoThetaInAudio_GlobalThetaInVideo_A.csv,,,,,,,,,0,0,0,0,0,10,10,18,,,,,,,,,-0.42824074074074076,0.125,1,0,0,5.510926100017969,call2,-0.034722222222222224,0.13333333333333333,1,0,0,6.2913371000031475,colour2,0.38842592592592595,-0.10833333333333334,1,0,0,6.996952000015881,number3,True,False,True,12,2,2019_Nov_12_1604,MA_Theta_Exp,3.0.7,60.20835704635891,
video/Experiment/zh_sp01_Dr_Ge_2_NoThetaInAudio_GlobalThetaInVideo.avi,noTheta,plusVideo,sp01,Dr,Ge,2,0,3,flow/blocks/NoThetaInAudio_GlobalThetaInVideo_A.csv,,,,,,,,,0,0,0,0,0,11,11,17,,,,,,,,,-0.4046296296296296,0.30277777777777776,1,0,0,5.306062900024699,call1,-0.06018518518518518,0.29444444444444445,1,0,0,5.852343999984441,colour1,0.4300925925925926,0.10694444444444444,1,0,0,6.713949899974978,number2,False,True,True,12,2,2019_Nov_12_1604,MA_Theta_Exp,3.0.7,60.20835704635891,
video/Experiment/zh_sp07_Dr_We_2_NoThetaInAudio_GlobalThetaInVideo.avi,noTheta,plusVideo,sp07,Dr,We,2,0,3,flow/blocks/NoThetaInAudio_GlobalThetaInVideo_A.csv,,,,,,,,,0,0,0,0,0,12,12,29,,,,,,,,,-0.38101851851851853,-0.30277777777777776,1,0,0,7.640835700003663,call4,0.005555555555555556,-0.13055555555555556,1,0,0,8.930248500022572,colour3,0.4097222222222222,-0.31666666666666665,1,0,0,9.799129899998661,number4,False,False,False,12,2,2019_Nov_12_1604,MA_Theta_Exp,3.0.7,60.20835704635891,
video/Experiment/zh_sp01_Ad_Gr_3_NoThetaInAudio_GlobalThetaInVideo.avi,noTheta,plusVideo,sp01,Ad,Gr,3,0,3,flow/blocks/NoThetaInAudio_GlobalThetaInVideo_A.csv,,,,,,,,,0,0,0,0,0,13,13,6,,,,,,,,,-0.4046296296296296,0.28888888888888886,1,0,0,5.240926900005434,call1,0.014814814814814815,0.07083333333333333,1,0,0,5.7508880000095814,colour2,0.39444444444444443,-0.10138888888888889,1,0,0,6.5411727000027895,number3,True,True,True,12,2,2019_Nov_12_1604,MA_Theta_Exp,3.0.7,60.20835704635891,
video/Experiment/zh_sp07_Ad_We_4_NoThetaInAudio_GlobalThetaInVideo.avi,noTheta,plusVideo,sp07,Ad,We,4,0,3,flow/blocks/NoThetaInAudio_GlobalThetaInVideo_A.csv,,,,,,,,,0,0,0,0,0,14,14,15,,,,,,,,,-0.44212962962962965,0.3199074074074074,1,0,0,5.148802699986845,call1,-0.011574074074074073,0.11296296296296296,1,0,0,6.3953375999990385,colour2,0.39305555555555555,-0.30648148148148147,1,0,0,7.426079099997878,number4,True,False,True,12,2,2019_Nov_12_1604,MA_Theta_Exp,3.0.7,60.20835704635891,
video/Experiment/zh_sp07_Ad_We_3_NoThetaInAudio_GlobalThetaInVideo.avi,noTheta,plusVideo,sp07,Ad,We,3,0,3,flow/blocks/NoThetaInAudio_GlobalThetaInVideo_A.csv,,,,,,,,,0,0,0,0,0,15,15,14,,,,,,,,,-0.41435185185185186,0.13657407407407407,1,0,0,5.626389399985783,call2,0.0023148148148148147,0.09768518518518518,1,0,0,7.302788100001635,colour2,0.3814814814814815,-0.13148148148148148,1,0,0,7.936644299974432,number3,False,False,True,12,2,2019_Nov_12_1604,MA_Theta_Exp,3.0.7,60.20835704635891,
video/Experiment/zh_sp07_Dr_Ge_1_NoThetaInAudio_GlobalThetaInVideo.avi,noTheta,plusVideo,sp07,Dr,Ge,1,0,3,flow/blocks/NoThetaInAudio_GlobalThetaInVideo_A.csv,,,,,,,,,0,0,0,0,0,16,16,16,,,,,,,,,-0.40185185185185185,0.3226851851851852,1,0,0,5.763278700003866,call1,-0.02824074074074074,-0.3148148148148148,1,0,0,6.632877800002461,colour4,0.3925925925925926,0.32407407407407407,1,0,0,7.358860400010599,number1,False,False,True,12,2,2019_Nov_12_1604,MA_Theta_Exp,3.0.7,60.20835704635891,
video/Experiment/zh_sp07_Dr_Ro_4_NoThetaInAudio_GlobalThetaInVideo.avi,noTheta,plusVideo,sp07,Dr,Ro,4,0,3,flow/blocks/NoThetaInAudio_GlobalThetaInVideo_A.csv,,,,,,,,,0,0,0,0,0,17,17,27,,,,,,,,,-0.39861111111111114,0.11296296296296296,1,0,0,6.154051099991193,call2,-0.009722222222222222,0.0962962962962963,1,0,0,6.935749099997338,colour2,0.4125,-0.3175925925925926,1,0,0,7.708116699999664,number4,True,False,True,12,2,2019_Nov_12_1604,MA_Theta_Exp,3.0.7,60.20835704635891,
video/Experiment/zh_sp07_Dr_We_1_NoThetaInAudio_GlobalThetaInVideo.avi,noTheta,plusVideo,sp07,Dr,We,1,0,3,flow/blocks/NoThetaInAudio_GlobalThetaInVideo_A.csv,,,,,,,,,0,0,0,0,0,18,18,28,,,,,,,,,-0.41712962962962963,0.30462962962962964,1,0,0,7.207446699991124,call1,-0.034722222222222224,0.11296296296296296,1,0,0,8.795771700009936,colour2,0.38287037037037036,0.287962962962963,1,0,0,9.427453600015724,number1,False,False,True,12,2,2019_Nov_12_1604,MA_Theta_Exp,3.0.7,60.20835704635891,
video/Experiment/zh_sp01_Ad_Ro_4_NoThetaInAudio_GlobalThetaInVideo.avi,noTheta,plusVideo,sp01,Ad,Ro,4,0,3,flow/blocks/NoThetaInAudio_GlobalThetaInVideo_A.csv,,,,,,,,,0,0,0,0,0,19,19,11,,,,,,,,,-0.40324074074074073,0.33240740740740743,1,0,0,5.76105689999531,call1,-0.000462962962962963,-0.09398148148148149,1,0,0,7.482924600015394,colour3,0.38472222222222224,-0.3509259259259259,1,0,0,8.799009399983333,number4,True,True,True,12,2,2019_Nov_12_1604,MA_Theta_Exp,3.0.7,60.20835704635891,
video/Experiment/zh_sp01_Dr_We_3_NoThetaInAudio_GlobalThetaInVideo.avi,noTheta,plusVideo,sp01,Dr,We,3,0,3,flow/blocks/NoThetaInAudio_GlobalThetaInVideo_A.csv,,,,,,,,,0,0,0,0,0,20,20,30,,,,,,,,,-0.3888888888888889,0.1087962962962963,1,0,0,9.599323699978413,call2,-0.000462962962962963,0.0824074074074074,1,0,0,10.980661699984921,colour2,0.3800925925925926,-0.0912037037037037,1,0,0,11.822712799999863,number3,True,False,True,12,2,2019_Nov_12_1604,MA_Theta_Exp,3.0.7,60.20835704635891,
video/Experiment/zh_sp07_Ad_Ge_1_NoThetaInAudio_GlobalThetaInVideo.avi,noTheta,plusVideo,sp07,Ad,Ge,1,0,3,flow/blocks/NoThetaInAudio_GlobalThetaInVideo_A.csv,,,,,,,,,0,0,0,0,0,21,21,0,,,,,,,,,-0.42685185185185187,0.29212962962962963,1,0,0,6.477924300008453,call1,-0.022685185185185187,-0.29953703703703705,1,0,0,9.305305199988652,colour4,0.39305555555555555,0.29074074074074074,1,0,0,10.219127999997,number1,True,False,True,12,2,2019_Nov_12_1604,MA_Theta_Exp,3.0.7,60.20835704635891,
video/Experiment/zh_sp01_Dr_Ge_4_NoThetaInAudio_GlobalThetaInVideo.avi,noTheta,plusVideo,sp01,Dr,Ge,4,0,3,flow/blocks/NoThetaInAudio_GlobalThetaInVideo_A.csv,,,,,,,,,0,0,0,0,0,22,22,19,,,,,,,,,-0.46111111111111114,0.31666666666666665,1,0,0,5.303487600001972,call1,-0.016666666666666666,0.3125,1,0,0,6.068614799994975,colour1,0.387037037037037,-0.3194444444444444,1,0,0,6.893340100010391,number4,False,True,True,12,2,2019_Nov_12_1604,MA_Theta_Exp,3.0.7,60.20835704635891,
video/Experiment/zh_sp01_Dr_Ro_2_NoThetaInAudio_GlobalThetaInVideo.avi,noTheta,plusVideo,sp01,Dr,Ro,2,0,3,flow/blocks/NoThetaInAudio_GlobalThetaInVideo_A.csv,,,,,,,,,0,0,0,0,0,23,23,25,,,,,,,,,-0.44212962962962965,0.0837962962962963,1,0,0,6.323846799990861,call2,0.043055555555555555,0.31851851851851853,1,0,0,6.9678442000004,colour1,0.3972222222222222,0.08657407407407407,1,0,0,7.827132700011134,number2,True,False,True,12,2,2019_Nov_12_1604,MA_Theta_Exp,3.0.7,60.20835704635891,
video/Experiment/zh_sp01_Ad_Ro_2_NoThetaInAudio_GlobalThetaInVideo.avi,noTheta,plusVideo,sp01,Ad,Ro,2,0,3,flow/blocks/NoThetaInAudio_GlobalThetaInVideo_A.csv,,,,,,,,,0,0,0,0,0,24,24,9,,,,,,,,,-0.42916666666666664,0.3101851851851852,1,0,0,5.331870199996047,call1,-0.009722222222222222,-0.11898148148148148,1,0,0,5.898045200010529,colour3,0.37222222222222223,0.06435185185185185,1,0,0,6.662942199996905,number2,True,True,True,12,2,2019_Nov_12_1604,MA_Theta_Exp,3.0.7,60.20835704635891,
video/Experiment/zh_sp07_Ad_Ro_1_NoThetaInAudio_GlobalThetaInVideo.avi,noTheta,plusVideo,sp07,Ad,Ro,1,0,3,flow/blocks/NoThetaInAudio_GlobalThetaInVideo_A.csv,,,,,,,,,0,0,0,0,0,25,25,8,,,,,,,,,-0.39490740740740743,0.3199074074074074,1,0,0,4.651108400023077,call1,0.03425925925925926,0.33101851851851855,1,0,0,6.580991800001357,colour1,0.3625,0.3074074074074074,1,0,0,7.125360900012311,number1,True,False,True,12,2,2019_Nov_12_1604,MA_Theta_Exp,3.0.7,60.20835704635891,
video/Experiment/zh_sp07_Dr_Ro_3_NoThetaInAudio_GlobalThetaInVideo.avi,noTheta,plusVideo,sp07,Dr,Ro,3,0,3,flow/blocks/NoThetaInAudio_GlobalThetaInVideo_A.csv,,,,,,,,,0,0,0,0,0,26,26,26,,,,,,,,,-0.40694444444444444,0.3282407407407407,1,0,0,5.145339500013506,call1,-0.03796296296296296,-0.06481481481481481,1,0,0,6.098089500010246,colour3,0.4564814814814815,-0.31203703703703706,1,0,0,6.653017800010275,number4,False,True,False,12,2,2019_Nov_12_1604,MA_Theta_Exp,3.0.7,60.20835704635891,
video/Experiment/zh_sp01_Ad_Gr_1_NoThetaInAudio_GlobalThetaInVideo.avi,noTheta,plusVideo,sp01,Ad,Gr,1,0,3,flow/blocks/NoThetaInAudio_GlobalThetaInVideo_A.csv,,,,,,,,,0,0,0,0,0,27,27,4,,,,,,,,,-0.412962962962963,0.28935185185185186,1,0,0,6.442914400016889,call1,0.020833333333333332,0.09351851851851851,1,0,0,7.280554199998733,colour2,0.3939814814814815,0.3087962962962963,1,0,0,8.001228300010553,number1,True,True,True,12,2,2019_Nov_12_1604,MA_Theta_Exp,3.0.7,60.20835704635891,
video/Experiment/zh_sp07_Dr_Ro_1_NoThetaInAudio_GlobalThetaInVideo.avi,noTheta,plusVideo,sp07,Dr,Ro,1,0,3,flow/blocks/NoThetaInAudio_GlobalThetaInVideo_A.csv,,,,,,,,,0,0,0,0,0,28,28,24,,,,,,,,,-0.41805555555555557,0.31574074074074077,1,0,0,5.034604099986609,call1,-0.008796296296296297,-0.10092592592592593,1,0,0,5.853884099982679,colour3,0.39166666666666666,0.3282407407407407,1,0,0,6.742812500015134,number1,False,True,True,12,2,2019_Nov_12_1604,MA_Theta_Exp,3.0.7,60.20835704635891,
video/Experiment/zh_sp01_Ad_Ro_3_NoThetaInAudio_GlobalThetaInVideo.avi,noTheta,plusVideo,sp01,Ad,Ro,3,0,3,flow/blocks/NoThetaInAudio_GlobalThetaInVideo_A.csv,,,,,,,,,0,0,0,0,0,29,29,10,,,,,,,,,-0.38472222222222224,0.30324074074074076,1,0,0,8.24725459999172,call1,-0.010185185185185186,-0.1259259259259259,1,0,0,10.907141699979547,colour3,0.40925925925925927,-0.12175925925925926,1,0,0,11.695397400006186,number3,True,True,True,12,2,2019_Nov_12_1604,MA_Theta_Exp,3.0.7,60.20835704635891,
video/Experiment/zh_sp07_Dr_Gr_4_NoThetaInAudio_GlobalThetaInVideo.avi,noTheta,plusVideo,sp07,Dr,Gr,4,0,3,flow/blocks/NoThetaInAudio_GlobalThetaInVideo_A.csv,,,,,,,,,0,0,0,0,0,30,30,23,,,,,,,,,-0.41574074074074074,0.11712962962962963,1,0,0,7.758717399992747,call2,0.006944444444444444,-0.1162037037037037,1,0,0,9.989700700010872,colour3,0.42777777777777776,-0.29953703703703705,1,0,0,11.321740800020052,number4,True,False,True,12,2,2019_Nov_12_1604,MA_Theta_Exp,3.0.7,60.20835704635891,
video/Experiment/zh_sp07_Ad_We_2_NoThetaInAudio_GlobalThetaInVideo.avi,noTheta,plusVideo,sp07,Ad,We,2,0,3,flow/blocks/NoThetaInAudio_GlobalThetaInVideo_A.csv,,,,,,,,,0,0,0,0,0,31,31,13,,,,,,,,,-0.4152777777777778,0.28935185185185186,1,0,0,6.7724823000025935,call1,0.000925925925925926,0.0962962962962963,1,0,0,7.74221050000051,colour2,0.37083333333333335,0.10324074074074074,1,0,0,8.66402980001294,number2,True,False,True,12,2,2019_Nov_12_1604,MA_Theta_Exp,3.0.7,60.20835704635891,
video/Experiment/zh_sp07_Dr_Ge_2_GlobalTheta_NoVideo.avi,globalTheta,noVideo,sp07,Dr,Ge,2,1,5,flow/blocks/GlobalTheta_NoVideo_A.csv,,,,,,,,,0,1,1,1,0,0,0,17,,,,,,,,,-0.40185185185185185,0.3087962962962963,1,0,0,6.763500400003977,call1,-0.008796296296296297,0.11296296296296296,1,0,0,7.325893500004895,colour2,0.38425925925925924,0.10462962962962963,1,0,0,7.792970000009518,number2,False,False,True,12,2,2019_Nov_12_1604,MA_Theta_Exp,3.0.7,60.20835704635891,
video/Experiment/zh_sp07_Ad_Ge_4_GlobalTheta_NoVideo.avi,globalTheta,noVideo,sp07,Ad,Ge,4,1,5,flow/blocks/GlobalTheta_NoVideo_A.csv,,,,,,,,,0,1,1,1,0,1,1,3,,,,,,,,,-0.4,0.3226851851851852,1,0,0,4.581498899991857,call1,0.0412037037037037,0.32407407407407407,1,0,0,5.074765099998331,colour1,0.4064814814814815,-0.3287037037037037,1,0,0,5.826763599994592,number4,True,True,True,12,2,2019_Nov_12_1604,MA_Theta_Exp,3.0.7,60.20835704635891,
video/Experiment/zh_sp01_Dr_Gr_1_GlobalTheta_NoVideo.avi,globalTheta,noVideo,sp01,Dr,Gr,1,1,5,flow/blocks/GlobalTheta_NoVideo_A.csv,,,,,,,,,0,1,1,1,0,2,2,20,,,,,,,,,-0.42407407407407405,0.3199074074074074,1,0,0,6.95535010000458,call1,-0.01574074074074074,0.2962962962962963,1,0,0,7.965025799989235,colour1,0.41203703703703703,0.30324074074074076,1,0,0,9.02464429999236,number1,False,False,True,12,2,2019_Nov_12_1604,MA_Theta_Exp,3.0.7,60.20835704635891,
video/Experiment/zh_sp07_Dr_Gr_4_GlobalTheta_NoVideo.avi,globalTheta,noVideo,sp07,Dr,Gr,4,1,5,flow/blocks/GlobalTheta_NoVideo_A.csv,,,,,,,,,0,1,1,1,0,3,3,23,,,,,,,,,-0.41712962962962963,0.28379629629629627,1,0,0,8.068448500009254,call1,-0.019444444444444445,0.0837962962962963,1,0,0,9.79203910002252,colour2,0.42083333333333334,-0.0912037037037037,1,0,0,11.321031799976481,number3,False,True,False,12,2,2019_Nov_12_1604,MA_Theta_Exp,3.0.7,60.20835704635891,
video/Experiment/zh_sp07_Dr_Ge_1_GlobalTheta_NoVideo.avi,globalTheta,noVideo,sp07,Dr,Ge,1,1,5,flow/blocks/GlobalTheta_NoVideo_A.csv,,,,,,,,,0,1,1,1,0,4,4,16,,,,,,,,,-0.425462962962963,0.29212962962962963,1,0,0,7.033527199993841,call1,-0.026851851851851852,-0.053703703703703705,1,0,0,8.206420300004538,colour3,0.3925925925925926,0.3074074074074074,1,0,0,9.063650900003267,number1,False,False,True,12,2,2019_Nov_12_1604,MA_Theta_Exp,3.0.7,60.20835704635891,
video/Experiment/zh_sp07_Dr_We_3_GlobalTheta_NoVideo.avi,globalTheta,noVideo,sp07,Dr,We,3,1,5,flow/blocks/GlobalTheta_NoVideo_A.csv,,,,,,,,,0,1,1,1,0,5,5,30,,,,,,,,,-0.412962962962963,0.3143518518518518,1,0,0,5.44424519999302,call1,-0.04351851851851852,-0.29953703703703705,1,0,0,6.196968399977777,colour4,0.39166666666666666,-0.11342592592592593,1,0,0,6.970444000005955,number3,False,True,True,12,2,2019_Nov_12_1604,MA_Theta_Exp,3.0.7,60.20835704635891,
video/Experiment/zh_sp07_Ad_Ro_1_GlobalTheta_NoVideo.avi,globalTheta,noVideo,sp07,Ad,Ro,1,1,5,flow/blocks/GlobalTheta_NoVideo_A.csv,,,,,,,,,0,1,1,1,0,6,6,8,,,,,,,,,-0.37916666666666665,0.26435185185185184,1,0,0,6.792630300013116,call1,-0.010185185185185186,0.06712962962962964,1,0,0,7.616832200001227,colour2,0.40925925925925927,0.2490740740740741,1,0,0,8.268842900026357,number1,True,False,True,12,2,2019_Nov_12_1604,MA_Theta_Exp,3.0.7,60.20835704635891,
video/Experiment/zh_sp07_Dr_Ro_4_GlobalTheta_NoVideo.avi,globalTheta,noVideo,sp07,Dr,Ro,4,1,5,flow/blocks/GlobalTheta_NoVideo_A.csv,,,,,,,,,0,1,1,1,0,7,7,27,,,,,,,,,-0.40555555555555556,0.300462962962963,1,0,0,4.678156899986789,call1,-0.031018518518518518,-0.09814814814814815,1,0,0,5.359911400009878,colour3,0.44537037037037036,-0.34675925925925927,1,0,0,5.891080500005046,number4,False,True,True,12,2,2019_Nov_12_1604,MA_Theta_Exp,3.0.7,60.20835704635891,
video/Experiment/zh_sp01_Dr_We_2_GlobalTheta_NoVideo.avi,globalTheta,noVideo,sp01,Dr,We,2,1,5,flow/blocks/GlobalTheta_NoVideo_A.csv,,,,,,,,,0,1,1,1,0,8,8,29,,,,,,,,,-0.37916666666666665,0.11990740740740741,1,0,0,5.453615999984322,call2,0.025925925925925925,-0.08425925925925926,1,0,0,6.043535899982089,colour3,0.3800925925925926,0.09490740740740741,1,0,0,6.749261199991452,number2,True,False,True,12,2,2019_Nov_12_1604,MA_Theta_Exp,3.0.7,60.20835704635891,
video/Experiment/zh_sp07_Ad_Gr_3_GlobalTheta_NoVideo.avi,globalTheta,noVideo,sp07,Ad,Gr,3,1,5,flow/blocks/GlobalTheta_NoVideo_A.csv,,,,,,,,,0,1,1,1,0,9,9,6,,,,,,,,,-0.3824074074074074,0.29907407407407405,1,0,0,4.577193099976284,call1,0.002777777777777778,0.06157407407407407,1,0,0,5.121977100003278,colour2,0.39305555555555555,-0.3162037037037037,1,0,0,6.050388700008625,number4,True,True,False,12,2,2019_Nov_12_1604,MA_Theta_Exp,3.0.7,60.20835704635891,
video/Experiment/zh_sp07_Ad_Gr_2_GlobalTheta_NoVideo.avi,globalTheta,noVideo,sp07,Ad,Gr,2,1,5,flow/blocks/GlobalTheta_NoVideo_A.csv,,,,,,,,,0,1,1,1,0,10,10,5,,,,,,,,,-0.45694444444444443,0.3226851851851852,1,0,0,4.798209799977485,call1,-0.049074074074074076,0.11435185185185186,1,0,0,5.358334299991839,colour2,0.4013888888888889,0.10046296296296296,1,0,0,6.050793000002159,number2,True,True,True,12,2,2019_Nov_12_1604,MA_Theta_Exp,3.0.7,60.20835704635891,
video/Experiment/zh_sp07_Ad_Ro_3_GlobalTheta_NoVideo.avi,globalTheta,noVideo,sp07,Ad,Ro,3,1,5,flow/blocks/GlobalTheta_NoVideo_A.csv,,,,,,,,,0,1,1,1,0,11,11,10,,,,,,,,,-0.4324074074074074,0.3060185185185185,1,0,0,5.416036400012672,call1,0.00787037037037037,0.0712962962962963,1,0,0,8.670976000023074,colour2,0.4013888888888889,-0.09953703703703703,1,0,0,9.349713400006294,number3,True,False,True,12,2,2019_Nov_12_1604,MA_Theta_Exp,3.0.7,60.20835704635891,
video/Experiment/zh_sp01_Dr_Ro_1_GlobalTheta_NoVideo.avi,globalTheta,noVideo,sp01,Dr,Ro,1,1,5,flow/blocks/GlobalTheta_NoVideo_A.csv,,,,,,,,,0,1,1,1,0,12,12,24,,,,,,,,,-0.33611111111111114,0.2712962962962963,1,0,0,6.474147400003858,call1,0.02361111111111111,-0.08981481481481482,1,0,0,7.081359599978896,colour3,0.37453703703703706,0.2587962962962963,1,0,0,7.795776699989801,number1,False,True,True,12,2,2019_Nov_12_1604,MA_Theta_Exp,3.0.7,60.20835704635891,
video/Experiment/zh_sp01_Ad_Ge_2_GlobalTheta_NoVideo.avi,globalTheta,noVideo,sp01,Ad,Ge,2,1,5,flow/blocks/GlobalTheta_NoVideo_A.csv,,,,,,,,,0,1,1,1,0,13,13,1,,,,,,,,,-0.42268518518518516,0.2865740740740741,1,0,0,4.9301134000124875,call1,-0.004629629629629629,0.27685185185185185,1,0,0,5.511579600017285,colour1,0.4,0.08935185185185185,1,0,0,6.199973199982196,number2,True,True,True,12,2,2019_Nov_12_1604,MA_Theta_Exp,3.0.7,60.20835704635891,
video/Experiment/zh_sp01_Dr_Ge_3_GlobalTheta_NoVideo.avi,globalTheta,noVideo,sp01,Dr,Ge,3,1,5,flow/blocks/GlobalTheta_NoVideo_A.csv,,,,,,,,,0,1,1,1,0,14,14,18,,,,,,,,,-0.39861111111111114,0.10324074074074074,1,0,0,6.162520300014876,call2,-0.019444444444444445,-0.1162037037037037,1,0,0,10.535289799998282,colour3,0.4078703703703704,-0.1037037037037037,1,0,0,11.46988460002467,number3,True,False,True,12,2,2019_Nov_12_1604,MA_Theta_Exp,3.0.7,60.20835704635891,
video/Experiment/zh_sp07_Ad_We_1_GlobalTheta_NoVideo.avi,globalTheta,noVideo,sp07,Ad,We,1,1,5,flow/blocks/GlobalTheta_NoVideo_A.csv,,,,,,,,,0,1,1,1,0,15,15,12,,,,,,,,,-0.4388888888888889,0.37407407407407406,1,0,0,7.0853274000110105,call1,-0.024074074074074074,-0.11898148148148148,1,0,0,8.116687600006117,colour3,0.399537037037037,0.2810185185185185,1,0,0,8.832431299990276,number1,True,False,True,12,2,2019_Nov_12_1604,MA_Theta_Exp,3.0.7,60.20835704635891,
video/Experiment/zh_sp07_Ad_Gr_4_GlobalTheta_NoVideo.avi,globalTheta,noVideo,sp07,Ad,Gr,4,1,5,flow/blocks/GlobalTheta_NoVideo_A.csv,,,,,,,,,0,1,1,1,0,16,16,7,,,,,,,,,-0.41712962962962963,0.29907407407407405,1,0,0,4.49194800000987,call1,-0.004629629629629629,0.12268518518518519,1,0,0,4.946389399992768,colour2,0.36064814814814816,-0.2898148148148148,1,0,0,5.547730199992657,number4,True,True,True,12,2,2019_Nov_12_1604,MA_Theta_Exp,3.0.7,60.20835704635891,
video/Experiment/zh_sp07_Dr_Ge_4_GlobalTheta_NoVideo.avi,globalTheta,noVideo,sp07,Dr,Ge,4,1,5,flow/blocks/GlobalTheta_NoVideo_A.csv,,,,,,,,,0,1,1,1,0,17,17,19,,,,,,,,,-0.39305555555555555,0.1310185185185185,1,0,0,7.410709099989617,call2,-0.025,0.11018518518518519,1,0,0,8.352076599985594,colour2,0.40694444444444444,-0.33425925925925926,1,0,0,9.353016300010495,number4,True,False,True,12,2,2019_Nov_12_1604,MA_Theta_Exp,3.0.7,60.20835704635891,
video/Experiment/zh_sp07_Dr_We_4_GlobalTheta_NoVideo.avi,globalTheta,noVideo,sp07,Dr,We,4,1,5,flow/blocks/GlobalTheta_NoVideo_A.csv,,,,,,,,,0,1,1,1,0,18,18,31,,,,,,,,,-0.42407407407407405,0.32685185185185184,1,0,0,4.264711700001499,call1,-0.018518518518518517,-0.29398148148148145,1,0,0,4.9071868999744765,colour4,0.3925925925925926,-0.30787037037037035,1,0,0,5.837452899984783,number4,False,True,True,12,2,2019_Nov_12_1604,MA_Theta_Exp,3.0.7,60.20835704635891,
video/Experiment/zh_sp07_Ad_We_4_GlobalTheta_NoVideo.avi,globalTheta,noVideo,sp07,Ad,We,4,1,5,flow/blocks/GlobalTheta_NoVideo_A.csv,,,,,,,,,0,1,1,1,0,19,19,15,,,,,,,,,-0.4263888888888889,0.3087962962962963,1,0,0,5.072954800009029,call1,-0.004629629629629629,-0.33564814814814814,1,0,0,5.853206900006626,colour4,0.3972222222222222,-0.1050925925925926,1,0,0,6.647478300001239,number3,True,True,False,12,2,2019_Nov_12_1604,MA_Theta_Exp,3.0.7,60.20835704635891,
video/Experiment/zh_sp01_Ad_Ge_1_GlobalTheta_NoVideo.avi,globalTheta,noVideo,sp01,Ad,Ge,1,1,5,flow/blocks/GlobalTheta_NoVideo_A.csv,,,,,,,,,0,1,1,1,0,20,20,0,,,,,,,,,-0.4587962962962963,0.28935185185185186,1,0,0,5.23152959998697,call1,-0.010185185185185186,0.2949074074074074,1,0,0,5.701990200002911,colour1,0.4217592592592593,0.300462962962963,1,0,0,6.830672400014009,number1,True,True,True,12,2,2019_Nov_12_1604,MA_Theta_Exp,3.0.7,60.20835704635891,
video/Experiment/zh_sp01_Ad_We_3_GlobalTheta_NoVideo.avi,globalTheta,noVideo,sp01,Ad,We,3,1,5,flow/blocks/GlobalTheta_NoVideo_A.csv,,,,,,,,,0,1,1,1,0,21,21,14,,,,,,,,,-0.44583333333333336,0.35185185185185186,1,0,0,4.919023099995684,call1,0.03981481481481482,-0.3453703703703704,1,0,0,5.619062299985671,colour4,0.4162037037037037,-0.14675925925925926,1,0,0,6.171833300002618,number3,True,True,True,12,2,2019_Nov_12_1604,MA_Theta_Exp,3.0.7,60.20835704635891,
video/Experiment/zh_sp01_Dr_Ro_3_GlobalTheta_NoVideo.avi,globalTheta,noVideo,sp01,Dr,Ro,3,1,5,flow/blocks/GlobalTheta_NoVideo_A.csv,,,,,,,,,0,1,1,1,0,22,22,26,,,,,,,,,-0.3962962962962963,0.2518518518518518,1,0,0,9.394783600000665,call1,0.006944444444444444,0.09907407407407408,1,0,0,10.042604299989762,colour2,0.36944444444444446,-0.11064814814814815,1,0,0,10.768944099982036,number3,False,False,True,12,2,2019_Nov_12_1604,MA_Theta_Exp,3.0.7,60.20835704635891,
video/Experiment/zh_sp01_Dr_Gr_3_GlobalTheta_NoVideo.avi,globalTheta,noVideo,sp01,Dr,Gr,3,1,5,flow/blocks/GlobalTheta_NoVideo_A.csv,,,,,,,,,0,1,1,1,0,23,23,22,,,,,,,,,-0.4236111111111111,0.3101851851851852,1,0,0,8.575326400023187,call1,0.025,-0.11481481481481481,1,0,0,9.468009399977745,colour3,0.41898148148148145,-0.11898148148148148,1,0,0,10.554827099986142,number3,False,False,True,12,2,2019_Nov_12_1604,MA_Theta_Exp,3.0.7,60.20835704635891,
video/Experiment/zh_sp01_Ad_Gr_1_GlobalTheta_NoVideo.avi,globalTheta,noVideo,sp01,Ad,Gr,1,1,5,flow/blocks/GlobalTheta_NoVideo_A.csv,,,,,,,,,0,1,1,1,0,24,24,4,,,,,,,,,-0.425,0.31157407407407406,1,0,0,6.4044023000169545,call1,0.022222222222222223,0.11712962962962963,1,0,0,7.320612500014249,colour2,0.3939814814814815,0.2935185185185185,1,0,0,8.19628720000037,number1,True,True,True,12,2,2019_Nov_12_1604,MA_Theta_Exp,3.0.7,60.20835704635891,
video/Experiment/zh_sp01_Ad_Ro_4_GlobalTheta_NoVideo.avi,globalTheta,noVideo,sp01,Ad,Ro,4,1,5,flow/blocks/GlobalTheta_NoVideo_A.csv,,,,,,,,,0,1,1,1,0,25,25,11,,,,,,,,,-0.3837962962962963,0.26157407407407407,1,0,0,8.772687799995765,call1,-0.056018518518518516,-0.30925925925925923,1,0,0,9.63494289998198,colour4,0.3972222222222222,-0.30648148148148147,1,0,0,10.761951099993894,number4,True,False,True,12,2,2019_Nov_12_1604,MA_Theta_Exp,3.0.7,60.20835704635891,
video/Experiment/zh_sp01_Dr_Ro_2_GlobalTheta_NoVideo.avi,globalTheta,noVideo,sp01,Dr,Ro,2,1,5,flow/blocks/GlobalTheta_NoVideo_A.csv,,,,,,,,,0,1,1,1,0,26,26,25,,,,,,,,,-0.40694444444444444,0.11712962962962963,1,0,0,5.298317299981136,call2,-0.03796296296296296,0.05740740740740741,1,0,0,5.883682499988936,colour2,0.462037037037037,0.08935185185185185,1,0,0,6.360665499989409,number2,True,False,True,12,2,2019_Nov_12_1604,MA_Theta_Exp,3.0.7,60.20835704635891,
video/Experiment/zh_sp01_Dr_Gr_2_GlobalTheta_NoVideo.avi,globalTheta,noVideo,sp01,Dr,Gr,2,1,5,flow/blocks/GlobalTheta_NoVideo_A.csv,,,,,,,,,0,1,1,1,0,27,27,21,,,,,,,,,-0.41574074074074074,-0.11898148148148148,1,0,0,6.393326699995669,call3,-0.014351851851851852,0.09351851851851851,1,0,0,7.032110400003148,colour2,0.4162037037037037,0.08657407407407407,1,0,0,7.606042800005525,number2,False,True,True,12,2,2019_Nov_12_1604,MA_Theta_Exp,3.0.7,60.20835704635891,
video/Experiment/zh_sp01_Dr_We_1_GlobalTheta_NoVideo.avi,globalTheta,noVideo,sp01,Dr,We,1,1,5,flow/blocks/GlobalTheta_NoVideo_A.csv,,,,,,,,,0,1,1,1,0,28,28,28,,,,,,,,,-0.4013888888888889,0.13518518518518519,1,0,0,7.828801900002873,call2,0.016203703703703703,-0.29953703703703705,1,0,0,8.48506430000998,colour4,0.44537037037037036,0.28379629629629627,1,0,0,9.234466400026577,number1,True,True,True,12,2,2019_Nov_12_1604,MA_Theta_Exp,3.0.7,60.20835704635891,
video/Experiment/zh_sp01_Ad_Ge_3_GlobalTheta_NoVideo.avi,globalTheta,noVideo,sp01,Ad,Ge,3,1,5,flow/blocks/GlobalTheta_NoVideo_A.csv,,,,,,,,,0,1,1,1,0,29,29,2,,,,,,,,,-0.36435185185185187,0.2587962962962963,1,0,0,4.587079600023571,call1,-0.031018518518518518,0.29074074074074074,1,0,0,5.0247507999883965,colour1,0.399537037037037,-0.09537037037037037,1,0,0,5.982746299996506,number3,True,True,True,12,2,2019_Nov_12_1604,MA_Theta_Exp,3.0.7,60.20835704635891,
video/Experiment/zh_sp07_Ad_Ro_2_GlobalTheta_NoVideo.avi,globalTheta,noVideo,sp07,Ad,Ro,2,1,5,flow/blocks/GlobalTheta_NoVideo_A.csv,,,,,,,,,0,1,1,1,0,30,30,9,,,,,,,,,-0.3958333333333333,0.3296296296296296,1,0,0,4.476418299978832,call1,-0.033796296296296297,0.29907407407407405,1,0,0,6.270815799973207,colour1,0.4125,0.11574074074074074,1,0,0,6.929462800006149,number2,True,False,True,12,2,2019_Nov_12_1604,MA_Theta_Exp,3.0.7,60.20835704635891,
video/Experiment/zh_sp01_Ad_We_2_GlobalTheta_NoVideo.avi,globalTheta,noVideo,sp01,Ad,We,2,1,5,flow/blocks/GlobalTheta_NoVideo_A.csv,,,,,,,,,0,1,1,1,0,31,31,13,,,,,,,,,-0.42777777777777776,0.31574074074074077,1,0,0,6.5242996999877505,call1,0.020370370370370372,-0.1439814814814815,1,0,0,7.608366500004195,colour3,0.4125,0.08518518518518518,1,0,0,8.593981099984376,number2,True,False,True,12,2,2019_Nov_12_1604,MA_Theta_Exp,3.0.7,60.20835704635891,
video/Experiment/zh_sp07_Ad_Ro_1_NVocInAudio_GlobalThetaInVideo.avi,vocoded,plusVideo,sp07,Ad,Ro,1,2,1,flow/blocks/NVocInAudio_GlobalThetaInVideo_A.csv,,,,,,,,,0,2,2,2,0,0,0,8,,,,,,,,,-0.43472222222222223,0.2824074074074074,1,0,0,4.580471499997657,call1,0.025925925925925925,-0.11342592592592593,1,0,0,5.3224496000038926,colour3,0.3925925925925926,0.30324074074074076,1,0,0,6.206818499980727,number1,True,True,True,12,2,2019_Nov_12_1604,MA_Theta_Exp,3.0.7,60.20835704635891,
video/Experiment/zh_sp07_Ad_Gr_1_NVocInAudio_GlobalThetaInVideo.avi,vocoded,plusVideo,sp07,Ad,Gr,1,2,1,flow/blocks/NVocInAudio_GlobalThetaInVideo_A.csv,,,,,,,,,0,2,2,2,0,1,1,4,,,,,,,,,-0.40185185185185185,0.27546296296296297,1,0,0,4.910320300026797,call1,-0.012962962962962963,0.06574074074074074,1,0,0,5.4039633000211325,colour2,0.3523148148148148,0.25324074074074077,1,0,0,5.938598599983379,number1,True,True,True,12,2,2019_Nov_12_1604,MA_Theta_Exp,3.0.7,60.20835704635891,
video/Experiment/zh_sp07_Dr_Ro_1_NVocInAudio_GlobalThetaInVideo.avi,vocoded,plusVideo,sp07,Dr,Ro,1,2,1,flow/blocks/NVocInAudio_GlobalThetaInVideo_A.csv,,,,,,,,,0,2,2,2,0,2,2,24,,,,,,,,,-0.38796296296296295,0.0712962962962963,1,0,0,4.558724900009111,call2,0.03287037037037037,0.09768518518518518,1,0,0,5.201993599999696,colour2,0.3819444444444444,0.31157407407407406,1,0,0,5.975231599994004,number1,True,False,True,12,2,2019_Nov_12_1604,MA_Theta_Exp,3.0.7,60.20835704635891,
video/Experiment/zh_sp01_Dr_Ro_2_NVocInAudio_GlobalThetaInVideo.avi,vocoded,plusVideo,sp01,Dr,Ro,2,2,1,flow/blocks/NVocInAudio_GlobalThetaInVideo_A.csv,,,,,,,,,0,2,2,2,0,3,3,25,,,,,,,,,-0.3962962962962963,0.10740740740740741,1,0,0,5.975748900003964,call2,0.027777777777777776,-0.11898148148148148,1,0,0,8.567236300004879,colour3,0.4078703703703704,0.10185185185185185,1,0,0,9.383844900003169,number2,True,True,True,12,2,2019_Nov_12_1604,MA_Theta_Exp,3.0.7,60.20835704635891,
video/Experiment/zh_sp01_Dr_Gr_2_NVocInAudio_GlobalThetaInVideo.avi,vocoded,plusVideo,sp01,Dr,Gr,2,2,1,flow/blocks/NVocInAudio_GlobalThetaInVideo_A.csv,,,,,,,,,0,2,2,2,0,4,4,21,,,,,,,,,-0.41574074074074074,0.11296296296296296,1,0,0,5.33451069999137,call2,0.009259259259259259,0.11990740740740741,1,0,0,6.237574600003427,colour2,0.387037037037037,0.07546296296296297,1,0,0,7.258244900003774,number2,True,True,True,12,2,2019_Nov_12_1604,MA_Theta_Exp,3.0.7,60.20835704635891,
video/Experiment/zh_sp01_Ad_We_4_NVocInAudio_GlobalThetaInVideo.avi,vocoded,plusVideo,sp01,Ad,We,4,2,1,flow/blocks/NVocInAudio_GlobalThetaInVideo_A.csv,,,,,,,,,0,2,2,2,0,5,5,15,,,,,,,,,-0.40694444444444444,0.3226851851851852,1,0,0,5.222440200013807,call1,-0.0060185185185185185,-0.3023148148148148,1,0,0,5.932265300012659,colour4,0.38425925925925924,-0.32175925925925924,1,0,0,6.646842199988896,number4,True,True,True,12,2,2019_Nov_12_1604,MA_Theta_Exp,3.0.7,60.20835704635891,
video/Experiment/zh_sp01_Ad_We_3_NVocInAudio_GlobalThetaInVideo.avi,vocoded,plusVideo,sp01,Ad,We,3,2,1,flow/blocks/NVocInAudio_GlobalThetaInVideo_A.csv,,,,,,,,,0,2,2,2,0,6,6,14,,,,,,,,,-0.3490740740740741,0.300462962962963,1,0,0,5.204796800011536,call1,-0.026851851851851852,-0.3106481481481482,1,0,0,6.552687599993078,colour4,0.40925925925925927,-0.10787037037037037,1,0,0,7.563882799993735,number3,True,True,True,12,2,2019_Nov_12_1604,MA_Theta_Exp,3.0.7,60.20835704635891,
video/Experiment/zh_sp07_Ad_Ro_4_NVocInAudio_GlobalThetaInVideo.avi,vocoded,plusVideo,sp07,Ad,Ro,4,2,1,flow/blocks/NVocInAudio_GlobalThetaInVideo_A.csv,,,,,,,,,0,2,2,2,0,7,7,11,,,,,,,,,-0.42777777777777776,0.2865740740740741,1,0,0,4.698070099984761,call1,0.012037037037037037,-0.13703703703703704,1,0,0,5.333195499988506,colour3,0.4,-0.32175925925925924,1,0,0,6.054532400012249,number4,True,True,True,12,2,2019_Nov_12_1604,MA_Theta_Exp,3.0.7,60.20835704635891,
video/Experiment/zh_sp07_Ad_Ro_3_NVocInAudio_GlobalThetaInVideo.avi,vocoded,plusVideo,sp07,Ad,Ro,3,2,1,flow/blocks/NVocInAudio_GlobalThetaInVideo_A.csv,,,,,,,,,0,2,2,2,0,8,8,10,,,,,,,,,-0.4222222222222222,0.28935185185185186,1,0,0,4.630740399996284,call1,-0.01574074074074074,-0.09814814814814815,1,0,0,5.428548700001556,colour3,0.3925925925925926,-0.11064814814814815,1,0,0,5.987086499982979,number3,True,True,True,12,2,2019_Nov_12_1604,MA_Theta_Exp,3.0.7,60.20835704635891,
video/Experiment/zh_sp01_Ad_Ge_2_NVocInAudio_GlobalThetaInVideo.avi,vocoded,plusVideo,sp01,Ad,Ge,2,2,1,flow/blocks/NVocInAudio_GlobalThetaInVideo_A.csv,,,,,,,,,0,2,2,2,0,9,9,1,,,,,,,,,-0.3819444444444444,0.29907407407407405,1,0,0,5.061499899980845,call1,-0.000462962962962963,0.3060185185185185,1,0,0,5.723816299985629,colour1,0.39305555555555555,0.10185185185185185,1,0,0,6.595426299987594,number2,True,True,True,12,2,2019_Nov_12_1604,MA_Theta_Exp,3.0.7,60.20835704635891,
video/Experiment/zh_sp01_Dr_Ge_1_NVocInAudio_GlobalThetaInVideo.avi,vocoded,plusVideo,sp01,Dr,Ge,1,2,1,flow/blocks/NVocInAudio_GlobalThetaInVideo_A.csv,,,,,,,,,0,2,2,2,0,10,10,16,,,,,,,,,-0.40694444444444444,0.11574074074074074,1,0,0,5.23014410000178,call2,-0.011574074074074073,0.2587962962962963,1,0,0,5.857757100020535,colour1,0.4083333333333333,0.26851851851851855,1,0,0,6.584072199999355,number1,True,True,True,12,2,2019_Nov_12_1604,MA_Theta_Exp,3.0.7,60.20835704635891,
video/Experiment/zh_sp07_Ad_Ro_2_NVocInAudio_GlobalThetaInVideo.avi,vocoded,plusVideo,sp07,Ad,Ro,2,2,1,flow/blocks/NVocInAudio_GlobalThetaInVideo_A.csv,,,,,,,,,0,2,2,2,0,11,11,9,,,,,,,,,-0.4486111111111111,0.3074074074074074,1,0,0,4.544056200014893,call1,-0.014351851851851852,-0.1287037037037037,1,0,0,5.212677299976349,colour3,0.4023148148148148,0.11157407407407408,1,0,0,5.823539200006053,number2,True,True,True,12,2,2019_Nov_12_1604,MA_Theta_Exp,3.0.7,60.20835704635891,
video/Experiment/zh_sp07_Dr_Ge_3_NVocInAudio_GlobalThetaInVideo.avi,vocoded,plusVideo,sp07,Dr,Ge,3,2,1,flow/blocks/NVocInAudio_GlobalThetaInVideo_A.csv,,,,,,,,,0,2,2,2,0,12,12,18,,,,,,,,,-0.36018518518518516,0.11851851851851852,1,0,0,4.317839199997252,call2,-0.021296296296296296,0.2810185185185185,1,0,0,4.870045100018615,colour1,0.39814814814814814,-0.10925925925925926,1,0,0,5.780136399989715,number3,True,True,True,12,2,2019_Nov_12_1604,MA_Theta_Exp,3.0.7,60.20835704635891,
video/Experiment/zh_sp07_Dr_Ro_4_NVocInAudio_GlobalThetaInVideo.avi,vocoded,plusVideo,sp07,Dr,Ro,4,2,1,flow/blocks/NVocInAudio_GlobalThetaInVideo_A.csv,,,,,,,,,0,2,2,2,0,13,13,27,,,,,,,,,-0.37777777777777777,0.11157407407407408,1,0,0,4.739344699977664,call2,0.041666666666666664,-0.1300925925925926,1,0,0,6.1673086999799125,colour3,0.4203703703703704,-0.3189814814814815,1,0,0,6.913941000006162,number4,True,True,True,12,2,2019_Nov_12_1604,MA_Theta_Exp,3.0.7,60.20835704635891,
video/Experiment/zh_sp01_Ad_Gr_4_NVocInAudio_GlobalThetaInVideo.avi,vocoded,plusVideo,sp01,Ad,Gr,4,2,1,flow/blocks/NVocInAudio_GlobalThetaInVideo_A.csv,,,,,,,,,0,2,2,2,0,14,14,7,,,,,,,,,-0.4115740740740741,0.29074074074074074,1,0,0,5.946914400003152,call1,0.05138888888888889,0.09351851851851851,1,0,0,6.593644099979429,colour2,0.41898148148148145,-0.2898148148148148,1,0,0,7.131322200002614,number4,True,True,True,12,2,2019_Nov_12_1604,MA_Theta_Exp,3.0.7,60.20835704635891,
video/Experiment/zh_sp01_Dr_We_4_NVocInAudio_GlobalThetaInVideo.avi,vocoded,plusVideo,sp01,Dr,We,4,2,1,flow/blocks/NVocInAudio_GlobalThetaInVideo_A.csv,,,,,,,,,0,2,2,2,0,15,15,31,,,,,,,,,-0.40555555555555556,0.11712962962962963,1,0,0,5.137726699991617,call2,0.027777777777777776,-0.32592592592592595,1,0,0,6.401780799991684,colour4,0.39537037037037037,-0.3314814814814815,1,0,0,7.143336699984502,number4,True,True,True,12,2,2019_Nov_12_1604,MA_Theta_Exp,3.0.7,60.20835704635891,
video/Experiment/zh_sp01_Dr_We_2_NVocInAudio_GlobalThetaInVideo.avi,vocoded,plusVideo,sp01,Dr,We,2,2,1,flow/blocks/NVocInAudio_GlobalThetaInVideo_A.csv,,,,,,,,,0,2,2,2,0,16,16,29,,,,,,,,,-0.3902777777777778,0.09490740740740741,1,0,0,5.23684030000004,call2,-0.06296296296296296,-0.34675925925925927,1,0,0,5.863236200006213,colour4,0.3787037037037037,0.11574074074074074,1,0,0,6.653102399985073,number2,True,True,True,12,2,2019_Nov_12_1604,MA_Theta_Exp,3.0.7,60.20835704635891,
video/Experiment/zh_sp01_Dr_Ro_3_NVocInAudio_GlobalThetaInVideo.avi,vocoded,plusVideo,sp01,Dr,Ro,3,2,1,flow/blocks/NVocInAudio_GlobalThetaInVideo_A.csv,,,,,,,,,0,2,2,2,0,17,17,26,,,,,,,,,-0.4013888888888889,0.11296296296296296,1,0,0,4.967076900007669,call2,0.013425925925925926,-0.15925925925925927,1,0,0,5.524326099985046,colour3,0.387037037037037,-0.11481481481481481,1,0,0,6.113168100011535,number3,True,True,True,12,2,2019_Nov_12_1604,MA_Theta_Exp,3.0.7,60.20835704635891,
video/Experiment/zh_sp07_Ad_Ge_1_NVocInAudio_GlobalThetaInVideo.avi,vocoded,plusVideo,sp07,Ad,Ge,1,2,1,flow/blocks/NVocInAudio_GlobalThetaInVideo_A.csv,,,,,,,,,0,2,2,2,0,18,18,0,,,,,,,,,-0.3736111111111111,0.09490740740740741,1,0,0,4.717471099982504,call2,-0.01990740740740741,0.2601851851851852,1,0,0,5.293540799990296,colour1,0.37037037037037035,0.3435185185185185,1,0,0,5.673356699990109,number1,False,True,True,12,2,2019_Nov_12_1604,MA_Theta_Exp,3.0.7,60.20835704635891,
video/Experiment/zh_sp01_Ad_We_2_NVocInAudio_GlobalThetaInVideo.avi,vocoded,plusVideo,sp01,Ad,We,2,2,1,flow/blocks/NVocInAudio_GlobalThetaInVideo_A.csv,,,,,,,,,0,2,2,2,0,19,19,13,,,,,,,,,-0.42916666666666664,0.31157407407407406,1,0,0,5.012350000004517,call1,0.025925925925925925,-0.06342592592592593,1,0,0,7.917768899991643,colour3,0.4162037037037037,0.1310185185185185,1,0,0,8.451769300008891,number2,True,False,True,12,2,2019_Nov_12_1604,MA_Theta_Exp,3.0.7,60.20835704635891,
video/Experiment/zh_sp07_Ad_Ge_3_NVocInAudio_GlobalThetaInVideo.avi,vocoded,plusVideo,sp07,Ad,Ge,3,2,1,flow/blocks/NVocInAudio_GlobalThetaInVideo_A.csv,,,,,,,,,0,2,2,2,0,20,20,2,,,,,,,,,-0.39305555555555555,0.29768518518518516,1,0,0,4.689589999994496,call1,-0.012962962962962963,0.30462962962962964,1,0,0,5.307063400017796,colour1,0.39861111111111114,-0.10231481481481482,1,0,0,6.106760299997404,number3,True,True,True,12,2,2019_Nov_12_1604,MA_Theta_Exp,3.0.7,60.20835704635891,
video/Experiment/zh_sp01_Dr_Gr_4_NVocInAudio_GlobalThetaInVideo.avi,vocoded,plusVideo,sp01,Dr,Gr,4,2,1,flow/blocks/NVocInAudio_GlobalThetaInVideo_A.csv,,,,,,,,,0,2,2,2,0,21,21,23,,,,,,,,,-0.3472222222222222,0.10601851851851851,1,0,0,5.397655599983409,call2,0.027777777777777776,0.09490740740740741,1,0,0,6.170514199999161,colour2,0.45555555555555555,-0.3175925925925926,1,0,0,6.858337199984817,number4,True,True,True,12,2,2019_Nov_12_1604,MA_Theta_Exp,3.0.7,60.20835704635891,
video/Experiment/zh_sp07_Dr_We_1_NVocInAudio_GlobalThetaInVideo.avi,vocoded,plusVideo,sp07,Dr,We,1,2,1,flow/blocks/NVocInAudio_GlobalThetaInVideo_A.csv,,,,,,,,,0,2,2,2,0,22,22,28,,,,,,,,,-0.43472222222222223,0.14074074074074075,1,0,0,4.768868800019845,call2,-0.001851851851851852,-0.33287037037037037,1,0,0,5.461455700016813,colour4,0.3814814814814815,0.2587962962962963,1,0,0,6.3789848999876995,number1,True,True,True,12,2,2019_Nov_12_1604,MA_Theta_Exp,3.0.7,60.20835704635891,
video/Experiment/zh_sp07_Dr_Gr_3_NVocInAudio_GlobalThetaInVideo.avi,vocoded,plusVideo,sp07,Dr,Gr,3,2,1,flow/blocks/NVocInAudio_GlobalThetaInVideo_A.csv,,,,,,,,,0,2,2,2,0,23,23,22,,,,,,,,,-0.38796296296296295,0.10601851851851851,1,0,0,4.963495600008173,call2,0.010648148148148148,0.09351851851851851,1,0,0,5.366386700014118,colour2,0.425,-0.09398148148148149,1,0,0,6.013525600021239,number3,True,True,True,12,2,2019_Nov_12_1604,MA_Theta_Exp,3.0.7,60.20835704635891,
video/Experiment/zh_sp01_Ad_Gr_2_NVocInAudio_GlobalThetaInVideo.avi,vocoded,plusVideo,sp01,Ad,Gr,2,2,1,flow/blocks/NVocInAudio_GlobalThetaInVideo_A.csv,,,,,,,,,0,2,2,2,0,24,24,5,,,,,,,,,-0.41435185185185186,0.300462962962963,1,0,0,5.321704800007865,call1,-0.007407407407407408,0.10046296296296296,1,0,0,5.818397600000026,colour2,0.4097222222222222,0.11574074074074074,1,0,0,6.393197600002168,number2,True,True,True,12,2,2019_Nov_12_1604,MA_Theta_Exp,3.0.7,60.20835704635891,
video/Experiment/zh_sp01_Ad_Ge_4_NVocInAudio_GlobalThetaInVideo.avi,vocoded,plusVideo,sp01,Ad,Ge,4,2,1,flow/blocks/NVocInAudio_GlobalThetaInVideo_A.csv,,,,,,,,,0,2,2,2,0,25,25,3,,,,,,,,,-0.41388888888888886,0.29074074074074074,1,0,0,5.827009100001305,call1,-0.004629629629629629,0.27824074074074073,1,0,0,7.111526599997887,colour1,0.38425925925925924,-0.29259259259259257,1,0,0,7.872547599981772,number4,True,True,True,12,2,2019_Nov_12_1604,MA_Theta_Exp,3.0.7,60.20835704635891,
video/Experiment/zh_sp01_Dr_Ge_2_NVocInAudio_GlobalThetaInVideo.avi,vocoded,plusVideo,sp01,Dr,Ge,2,2,1,flow/blocks/NVocInAudio_GlobalThetaInVideo_A.csv,,,,,,,,,0,2,2,2,0,26,26,17,,,,,,,,,-0.36944444444444446,0.0962962962962963,1,0,0,4.994658100011293,call2,-0.04490740740740741,0.2671296296296296,1,0,0,5.422927300009178,colour1,0.48703703703703705,0.07407407407407407,1,0,0,5.822827899974072,number2,True,True,True,12,2,2019_Nov_12_1604,MA_Theta_Exp,3.0.7,60.20835704635891,
video/Experiment/zh_sp07_Dr_We_3_NVocInAudio_GlobalThetaInVideo.avi,vocoded,plusVideo,sp07,Dr,We,3,2,1,flow/blocks/NVocInAudio_GlobalThetaInVideo_A.csv,,,,,,,,,0,2,2,2,0,27,27,30,,,,,,,,,-0.44166666666666665,0.10462962962962963,1,0,0,4.546094199991785,call2,0.0375,-0.3106481481481482,1,0,0,5.901764199981699,colour4,0.41064814814814815,-0.12175925925925926,1,0,0,6.413604200002737,number3,True,True,True,12,2,2019_Nov_12_1604,MA_Theta_Exp,3.0.7,60.20835704635891,
video/Experiment/zh_sp07_Ad_We_1_NVocInAudio_GlobalThetaInVideo.avi,vocoded,plusVideo,sp07,Ad,We,1,2,1,flow/blocks/NVocInAudio_GlobalThetaInVideo_A.csv,,,,,,,,,0,2,2,2,0,28,28,12,,,,,,,,,-0.37222222222222223,0.11712962962962963,1,0,0,4.489103400002932,call2,0.060648148148148145,-0.32037037037037036,1,0,0,5.100796599988826,colour4,0.399537037037037,0.2851851851851852,1,0,0,5.914604799996596,number1,False,True,True,12,2,2019_Nov_12_1604,MA_Theta_Exp,3.0.7,60.20835704635891,
video/Experiment/zh_sp01_Dr_Gr_1_NVocInAudio_GlobalThetaInVideo.avi,vocoded,plusVideo,sp01,Dr,Gr,1,2,1,flow/blocks/NVocInAudio_GlobalThetaInVideo_A.csv,,,,,,,,,0,2,2,2,0,29,29,20,,,,,,,,,-0.39351851851851855,0.11018518518518519,1,0,0,5.397751099982997,call2,0.016203703703703703,0.07407407407407407,1,0,0,6.0942811999993864,colour2,0.375,0.31574074074074077,1,0,0,6.935282099992037,number1,True,True,True,12,2,2019_Nov_12_1604,MA_Theta_Exp,3.0.7,60.20835704635891,
video/Experiment/zh_sp07_Dr_Ge_4_NVocInAudio_GlobalThetaInVideo.avi,vocoded,plusVideo,sp07,Dr,Ge,4,2,1,flow/blocks/NVocInAudio_GlobalThetaInVideo_A.csv,,,,,,,,,0,2,2,2,0,30,30,19,,,,,,,,,-0.3888888888888889,0.10046296296296296,1,0,0,5.054435099998955,call2,-0.014351851851851852,0.2810185185185185,1,0,0,5.664843799982918,colour1,0.3912037037037037,-0.30787037037037035,1,0,0,6.404402299987851,number4,True,True,True,12,2,2019_Nov_12_1604,MA_Theta_Exp,3.0.7,60.20835704635891,
video/Experiment/zh_sp07_Ad_Gr_3_NVocInAudio_GlobalThetaInVideo.avi,vocoded,plusVideo,sp07,Ad,Gr,3,2,1,flow/blocks/NVocInAudio_GlobalThetaInVideo_A.csv,,,,,,,,,0,2,2,2,0,31,31,6,,,,,,,,,-0.4236111111111111,0.28379629629629627,1,0,0,4.9110556000086945,call1,0.020370370370370372,0.0824074074074074,1,0,0,5.4353605000069365,colour2,0.37453703703703706,-0.08842592592592592,1,0,0,6.115384400007315,number3,True,True,True,12,2,2019_Nov_12_1604,MA_Theta_Exp,3.0.7,60.20835704635891,
video/Experiment/zh_sp07_Dr_Gr_2_NoThetaInAudio_NoVideo.avi,noTheta,noVideo,sp07,Dr,Gr,2,3,4,flow/blocks/NoThetaInAudio_NoVideo_A.csv,,,,,,,,,0,3,3,3,0,0,0,21,,,,,,,,,-0.3837962962962963,0.25833333333333336,1,0,0,5.817065300012473,call1,-0.019444444444444445,0.09305555555555556,1,0,0,6.334447700006422,colour2,0.4009259259259259,0.09583333333333334,1,0,0,6.881466399994679,number2,False,True,True,12,2,2019_Nov_12_1604,MA_Theta_Exp,3.0.7,60.20835704635891,
video/Experiment/zh_sp07_Ad_Gr_2_NoThetaInAudio_NoVideo.avi,noTheta,noVideo,sp07,Ad,Gr,2,3,4,flow/blocks/NoThetaInAudio_NoVideo_A.csv,,,,,,,,,0,3,3,3,0,1,1,5,,,,,,,,,-0.36666666666666664,0.3277777777777778,1,0,0,4.5456819999963045,call1,-0.004629629629629629,0.12222222222222222,1,0,0,5.036449300008826,colour2,0.3902777777777778,0.06944444444444445,1,0,0,5.5226902999856975,number2,True,True,True,12,2,2019_Nov_12_1604,MA_Theta_Exp,3.0.7,60.20835704635891,
video/Experiment/zh_sp01_Ad_Ro_4_NoThetaInAudio_NoVideo.avi,noTheta,noVideo,sp01,Ad,Ro,4,3,4,flow/blocks/NoThetaInAudio_NoVideo_A.csv,,,,,,,,,0,3,3,3,0,2,2,11,,,,,,,,,-0.4013888888888889,0.3333333333333333,1,0,0,5.470819300011499,call1,-0.011574074074074073,-0.11527777777777778,1,0,0,6.065567400015425,colour3,0.4203703703703704,-0.33611111111111114,1,0,0,6.698344800010091,number4,True,True,True,12,2,2019_Nov_12_1604,MA_Theta_Exp,3.0.7,60.20835704635891,
video/Experiment/zh_sp07_Ad_Ge_2_NoThetaInAudio_NoVideo.avi,noTheta,noVideo,sp07,Ad,Ge,2,3,4,flow/blocks/NoThetaInAudio_NoVideo_A.csv,,,,,,,,,0,3,3,3,0,3,3,1,,,,,,,,,-0.4125,0.29305555555555557,1,0,0,4.666789800015977,call1,-0.02962962962962963,0.30277777777777776,1,0,0,5.198296399990795,colour1,0.39444444444444443,0.08472222222222223,1,0,0,5.873596399993403,number2,True,True,True,12,2,2019_Nov_12_1604,MA_Theta_Exp,3.0.7,60.20835704635891,
video/Experiment/zh_sp07_Dr_Gr_3_NoThetaInAudio_NoVideo.avi,noTheta,noVideo,sp07,Dr,Gr,3,3,4,flow/blocks/NoThetaInAudio_NoVideo_A.csv,,,,,,,,,0,3,3,3,0,4,4,22,,,,,,,,,-0.4199074074074074,0.10833333333333334,1,0,0,4.430697200004943,call2,-0.0032407407407407406,0.09583333333333334,1,0,0,4.962560699990718,colour2,0.41898148148148145,-0.12222222222222222,1,0,0,5.60396770000807,number3,True,True,True,12,2,2019_Nov_12_1604,MA_Theta_Exp,3.0.7,60.20835704635891,
video/Experiment/zh_sp07_Ad_Ro_2_NoThetaInAudio_NoVideo.avi,noTheta,noVideo,sp07,Ad,Ro,2,3,4,flow/blocks/NoThetaInAudio_NoVideo_A.csv,,,,,,,,,0,3,3,3,0,5,5,9,,,,,,,,,-0.44583333333333336,0.30694444444444446,1,0,0,4.249287899991032,call1,-0.03657407407407407,-0.12777777777777777,1,0,0,4.874615899985656,colour3,0.41898148148148145,0.10138888888888889,1,0,0,5.394987599982414,number2,True,True,True,12,2,2019_Nov_12_1604,MA_Theta_Exp,3.0.7,60.20835704635891,
video/Experiment/zh_sp01_Dr_We_2_NoThetaInAudio_NoVideo.avi,noTheta,noVideo,sp01,Dr,We,2,3,4,flow/blocks/NoThetaInAudio_NoVideo_A.csv,,,,,,,,,0,3,3,3,0,6,6,29,,,,,,,,,-0.4185185185185185,0.3375,1,0,0,5.778643199999351,call1,-0.000462962962962963,-0.31805555555555554,1,0,0,6.5267429999948945,colour4,0.38425925925925924,0.12638888888888888,1,0,0,7.492919100011932,number2,False,True,True,12,2,2019_Nov_12_1604,MA_Theta_Exp,3.0.7,60.20835704635891,
video/Experiment/zh_sp01_Dr_We_1_NoThetaInAudio_NoVideo.avi,noTheta,noVideo,sp01,Dr,We,1,3,4,flow/blocks/NoThetaInAudio_NoVideo_A.csv,,,,,,,,,0,3,3,3,0,7,7,28,,,,,,,,,-0.4449074074074074,0.3125,1,0,0,5.321145599998999,call1,-0.0032407407407407406,-0.28888888888888886,1,0,0,6.030078100011451,colour4,0.3763888888888889,0.2861111111111111,1,0,0,6.795850399998017,number1,False,True,True,12,2,2019_Nov_12_1604,MA_Theta_Exp,3.0.7,60.20835704635891,
video/Experiment/zh_sp01_Ad_Gr_3_NoThetaInAudio_NoVideo.avi,noTheta,noVideo,sp01,Ad,Gr,3,3,4,flow/blocks/NoThetaInAudio_NoVideo_A.csv,,,,,,,,,0,3,3,3,0,8,8,6,,,,,,,,,-0.3490740740740741,0.2875,1,0,0,5.074225899996236,call1,-0.020833333333333332,0.07222222222222222,1,0,0,5.636606199987,colour2,0.4023148148148148,-0.1388888888888889,1,0,0,6.130400399997598,number3,True,True,True,12,2,2019_Nov_12_1604,MA_Theta_Exp,3.0.7,60.20835704635891,
video/Experiment/zh_sp07_Dr_Ge_4_NoThetaInAudio_NoVideo.avi,noTheta,noVideo,sp07,Dr,Ge,4,3,4,flow/blocks/NoThetaInAudio_NoVideo_A.csv,,,,,,,,,0,3,3,3,0,9,9,19,,,,,,,,,-0.4101851851851852,0.1125,1,0,0,5.882564800005639,call2,0.009722222222222222,0.3125,1,0,0,8.733482399984496,colour1,0.4013888888888889,-0.2777777777777778,1,0,0,9.753750800009584,number4,True,True,True,12,2,2019_Nov_12_1604,MA_Theta_Exp,3.0.7,60.20835704635891,
video/Experiment/zh_sp07_Dr_Ge_1_NoThetaInAudio_NoVideo.avi,noTheta,noVideo,sp07,Dr,Ge,1,3,4,flow/blocks/NoThetaInAudio_NoVideo_A.csv,,,,,,,,,0,3,3,3,0,10,10,16,,,,,,,,,-0.4185185185185185,0.3,1,0,0,4.75428729999112,call1,-0.011574074074074073,0.2875,1,0,0,5.251252499991097,colour1,0.39814814814814814,0.28194444444444444,1,0,0,5.836512900015805,number1,False,True,True,12,2,2019_Nov_12_1604,MA_Theta_Exp,3.0.7,60.20835704635891,
video/Experiment/zh_sp01_Dr_Gr_4_NoThetaInAudio_NoVideo.avi,noTheta,noVideo,sp01,Dr,Gr,4,3,4,flow/blocks/NoThetaInAudio_NoVideo_A.csv,,,,,,,,,0,3,3,3,0,11,11,23,,,,,,,,,-0.44212962962962965,0.10555555555555556,1,0,0,5.273426399973687,call2,0.00787037037037037,0.14166666666666666,1,0,0,6.975977900001453,colour2,0.38842592592592595,-0.28055555555555556,1,0,0,7.823519600002328,number4,True,True,True,12,2,2019_Nov_12_1604,MA_Theta_Exp,3.0.7,60.20835704635891,
video/Experiment/zh_sp07_Ad_Ge_4_NoThetaInAudio_NoVideo.avi,noTheta,noVideo,sp07,Ad,Ge,4,3,4,flow/blocks/NoThetaInAudio_NoVideo_A.csv,,,,,,,,,0,3,3,3,0,12,12,3,,,,,,,,,-0.44722222222222224,0.3277777777777778,1,0,0,4.996211099991342,call1,-0.02546296296296296,0.29305555555555557,1,0,0,5.559729999979027,colour1,0.44675925925925924,-0.32916666666666666,1,0,0,6.17098750002333,number4,True,True,True,12,2,2019_Nov_12_1604,MA_Theta_Exp,3.0.7,60.20835704635891,
video/Experiment/zh_sp07_Ad_Gr_1_NoThetaInAudio_NoVideo.avi,noTheta,noVideo,sp07,Ad,Gr,1,3,4,flow/blocks/NoThetaInAudio_NoVideo_A.csv,,,,,,,,,0,3,3,3,0,13,13,4,,,,,,,,,-0.43472222222222223,0.32222222222222224,1,0,0,4.502405899984296,call1,0.0412037037037037,0.08194444444444444,1,0,0,5.036078900011489,colour2,0.4222222222222222,0.30416666666666664,1,0,0,5.652335899998434,number1,True,True,True,12,2,2019_Nov_12_1604,MA_Theta_Exp,3.0.7,60.20835704635891,
video/Experiment/zh_sp01_Ad_We_2_NoThetaInAudio_NoVideo.avi,noTheta,noVideo,sp01,Ad,We,2,3,4,flow/blocks/NoThetaInAudio_NoVideo_A.csv,,,,,,,,,0,3,3,3,0,14,14,13,,,,,,,,,-0.3851851851851852,0.2611111111111111,1,0,0,6.044276800006628,call1,0.019444444444444445,-0.2875,1,0,0,6.887515099981101,colour4,0.4064814814814815,0.11805555555555555,1,0,0,7.678025700006401,number2,True,True,True,12,2,2019_Nov_12_1604,MA_Theta_Exp,3.0.7,60.20835704635891,
video/Experiment/zh_sp07_Dr_Ge_2_NoThetaInAudio_NoVideo.avi,noTheta,noVideo,sp07,Dr,Ge,2,3,4,flow/blocks/NoThetaInAudio_NoVideo_A.csv,,,,,,,,,0,3,3,3,0,15,15,17,,,,,,,,,-0.38657407407407407,0.2986111111111111,1,0,0,5.831773000012618,call1,0.08009259259259259,0.29305555555555557,1,0,0,6.4293099000060465,colour1,0.41805555555555557,0.08333333333333333,1,0,0,7.207913299993379,number2,False,True,True,12,2,2019_Nov_12_1604,MA_Theta_Exp,3.0.7,60.20835704635891,
video/Experiment/zh_sp01_Ad_Ge_3_NoThetaInAudio_NoVideo.avi,noTheta,noVideo,sp01,Ad,Ge,3,3,4,flow/blocks/NoThetaInAudio_NoVideo_A.csv,,,,,,,,,0,3,3,3,0,16,16,2,,,,,,,,,-0.4583333333333333,0.33055555555555555,1,0,0,4.98332370002754,call1,0.009259259259259259,0.30277777777777776,1,0,0,5.471525599976303,colour1,0.37083333333333335,-0.10694444444444444,1,0,0,6.263205099996412,number3,True,True,True,12,2,2019_Nov_12_1604,MA_Theta_Exp,3.0.7,60.20835704635891,
video/Experiment/zh_sp07_Dr_Ro_1_NoThetaInAudio_NoVideo.avi,noTheta,noVideo,sp07,Dr,Ro,1,3,4,flow/blocks/NoThetaInAudio_NoVideo_A.csv,,,,,,,,,0,3,3,3,0,17,17,24,,,,,,,,,-0.42685185185185187,0.10277777777777777,1,0,0,4.363832000002731,call2,0.03009259259259259,-0.12916666666666668,1,0,0,5.0382782999949995,colour3,0.43472222222222223,0.2916666666666667,1,0,0,5.6524274999974295,number1,True,True,True,12,2,2019_Nov_12_1604,MA_Theta_Exp,3.0.7,60.20835704635891,
video/Experiment/zh_sp01_Dr_Ro_4_NoThetaInAudio_NoVideo.avi,noTheta,noVideo,sp01,Dr,Ro,4,3,4,flow/blocks/NoThetaInAudio_NoVideo_A.csv,,,,,,,,,0,3,3,3,0,18,18,27,,,,,,,,,-0.3990740740740741,0.11944444444444445,1,0,0,4.95948310001404,call2,0.03287037037037037,-0.15694444444444444,1,0,0,5.562189199990826,colour3,0.43703703703703706,-0.31527777777777777,1,0,0,6.128655800013803,number4,True,True,True,12,2,2019_Nov_12_1604,MA_Theta_Exp,3.0.7,60.20835704635891,
video/Experiment/zh_sp01_Ad_We_1_NoThetaInAudio_NoVideo.avi,noTheta,noVideo,sp01,Ad,We,1,3,4,flow/blocks/NoThetaInAudio_NoVideo_A.csv,,,,,,,,,0,3,3,3,0,19,19,12,,,,,,,,,-0.4393518518518518,0.29583333333333334,1,0,0,5.073219199985033,call1,-0.021296296296296296,-0.32083333333333336,1,0,0,5.833034799987217,colour4,0.3925925925925926,0.3375,1,0,0,6.53507919999538,number1,True,True,True,12,2,2019_Nov_12_1604,MA_Theta_Exp,3.0.7,60.20835704635891,
video/Experiment/zh_sp01_Dr_Ro_2_NoThetaInAudio_NoVideo.avi,noTheta,noVideo,sp01,Dr,Ro,2,3,4,flow/blocks/NoThetaInAudio_NoVideo_A.csv,,,,,,,,,0,3,3,3,0,20,20,25,,,,,,,,,-0.40046296296296297,0.1361111111111111,1,0,0,5.223566900007427,call2,0.006481481481481481,-0.16111111111111112,1,0,0,5.738442500005476,colour3,0.38564814814814813,0.1111111111111111,1,0,0,6.254585499991663,number2,True,True,True,12,2,2019_Nov_12_1604,MA_Theta_Exp,3.0.7,60.20835704635891,
video/Experiment/zh_sp01_Ad_Ro_3_NoThetaInAudio_NoVideo.avi,noTheta,noVideo,sp01,Ad,Ro,3,3,4,flow/blocks/NoThetaInAudio_NoVideo_A.csv,,,,,,,,,0,3,3,3,0,21,21,10,,,,,,,,,-0.36527777777777776,0.29583333333333334,1,0,0,5.372722000000067,call1,0.03009259259259259,-0.10694444444444444,1,0,0,5.910819499986246,colour3,0.36342592592592593,-0.14027777777777778,1,0,0,6.48295869998401,number3,True,True,True,12,2,2019_Nov_12_1604,MA_Theta_Exp,3.0.7,60.20835704635891,
video/Experiment/zh_sp07_Ad_Ge_1_NoThetaInAudio_NoVideo.avi,noTheta,noVideo,sp07,Ad,Ge,1,3,4,flow/blocks/NoThetaInAudio_NoVideo_A.csv,,,,,,,,,0,3,3,3,0,22,22,0,,,,,,,,,-0.40694444444444444,0.3236111111111111,1,0,0,4.48211879999144,call1,0.012037037037037037,-0.14027777777777778,1,0,0,5.010221900010947,colour3,0.399537037037037,0.2861111111111111,1,0,0,5.779171599977417,number1,True,False,True,12,2,2019_Nov_12_1604,MA_Theta_Exp,3.0.7,60.20835704635891,
video/Experiment/zh_sp01_Dr_Ro_3_NoThetaInAudio_NoVideo.avi,noTheta,noVideo,sp01,Dr,Ro,3,3,4,flow/blocks/NoThetaInAudio_NoVideo_A.csv,,,,,,,,,0,3,3,3,0,23,23,26,,,,,,,,,-0.4305555555555556,0.2861111111111111,1,0,0,5.280291400005808,call1,0.003703703703703704,-0.1125,1,0,0,5.963547599996673,colour3,0.4550925925925926,-0.16944444444444445,1,0,0,6.525855699990643,number3,False,True,True,12,2,2019_Nov_12_1604,MA_Theta_Exp,3.0.7,60.20835704635891,
video/Experiment/zh_sp01_Ad_We_4_NoThetaInAudio_NoVideo.avi,noTheta,noVideo,sp01,Ad,We,4,3,4,flow/blocks/NoThetaInAudio_NoVideo_A.csv,,,,,,,,,0,3,3,3,0,24,24,15,,,,,,,,,-0.3680555555555556,0.3486111111111111,1,0,0,5.865716500004055,call1,0.037037037037037035,-0.08333333333333333,1,0,0,7.6037950000027195,colour3,0.4009259259259259,-0.2972222222222222,1,0,0,8.63106099999277,number4,True,False,True,12,2,2019_Nov_12_1604,MA_Theta_Exp,3.0.7,60.20835704635891,
video/Experiment/zh_sp07_Dr_Gr_1_NoThetaInAudio_NoVideo.avi,noTheta,noVideo,sp07,Dr,Gr,1,3,4,flow/blocks/NoThetaInAudio_NoVideo_A.csv,,,,,,,,,0,3,3,3,0,25,25,20,,,,,,,,,-0.4375,0.1763888888888889,1,0,0,4.356715800007805,call2,-0.014351851851851852,0.06527777777777778,1,0,0,4.965355099993758,colour2,0.3189814814814815,0.25972222222222224,1,0,0,5.626053799991496,number1,True,True,True,12,2,2019_Nov_12_1604,MA_Theta_Exp,3.0.7,60.20835704635891,
video/Experiment/zh_sp01_Dr_Ge_3_NoThetaInAudio_NoVideo.avi,noTheta,noVideo,sp01,Dr,Ge,3,3,4,flow/blocks/NoThetaInAudio_NoVideo_A.csv,,,,,,,,,0,3,3,3,0,26,26,18,,,,,,,,,-0.3597222222222222,0.08194444444444444,1,0,0,5.306803899991792,call2,0.038425925925925926,0.2833333333333333,1,0,0,5.853585400007432,colour1,0.38564814814814813,-0.125,1,0,0,6.392169200000353,number3,True,True,True,12,2,2019_Nov_12_1604,MA_Theta_Exp,3.0.7,60.20835704635891,
video/Experiment/zh_sp01_Dr_We_3_NoThetaInAudio_NoVideo.avi,noTheta,noVideo,sp01,Dr,We,3,3,4,flow/blocks/NoThetaInAudio_NoVideo_A.csv,,,,,,,,,0,3,3,3,0,27,27,30,,,,,,,,,-0.44722222222222224,0.11527777777777778,1,0,0,5.226235299982363,call2,0.041666666666666664,-0.32222222222222224,1,0,0,5.923439999984112,colour4,0.4125,-0.10833333333333334,1,0,0,6.64569649999612,number3,True,True,True,12,2,2019_Nov_12_1604,MA_Theta_Exp,3.0.7,60.20835704635891,
video/Experiment/zh_sp07_Dr_We_4_NoThetaInAudio_NoVideo.avi,noTheta,noVideo,sp07,Dr,We,4,3,4,flow/blocks/NoThetaInAudio_NoVideo_A.csv,,,,,,,,,0,3,3,3,0,28,28,31,,,,,,,,,-0.41944444444444445,0.14722222222222223,1,0,0,4.551709499995923,call2,-0.0032407407407407406,-0.31527777777777777,1,0,0,5.2012707000249065,colour4,0.425,-0.31527777777777777,1,0,0,5.948303699988173,number4,True,True,True,12,2,2019_Nov_12_1604,MA_Theta_Exp,3.0.7,60.20835704635891,
video/Experiment/zh_sp07_Ad_Ro_1_NoThetaInAudio_NoVideo.avi,noTheta,noVideo,sp07,Ad,Ro,1,3,4,flow/blocks/NoThetaInAudio_NoVideo_A.csv,,,,,,,,,0,3,3,3,0,29,29,8,,,,,,,,,-0.4476851851851852,0.2972222222222222,1,0,0,4.285348999983398,call1,-0.046296296296296294,-0.12916666666666668,1,0,0,4.883767099992838,colour3,0.3648148148148148,0.24861111111111112,1,0,0,5.645726699993247,number1,True,True,True,12,2,2019_Nov_12_1604,MA_Theta_Exp,3.0.7,60.20835704635891,
video/Experiment/zh_sp07_Ad_Gr_4_NoThetaInAudio_NoVideo.avi,noTheta,noVideo,sp07,Ad,Gr,4,3,4,flow/blocks/NoThetaInAudio_NoVideo_A.csv,,,,,,,,,0,3,3,3,0,30,30,7,,,,,,,,,-0.40694444444444444,0.3013888888888889,1,0,0,4.393067700002575,call1,0.020833333333333332,0.09305555555555556,1,0,0,4.9314560999919195,colour2,0.4537037037037037,-0.31527777777777777,1,0,0,5.70961650001118,number4,True,True,True,12,2,2019_Nov_12_1604,MA_Theta_Exp,3.0.7,60.20835704635891,
video/Experiment/zh_sp01_Ad_We_3_NoThetaInAudio_NoVideo.avi,noTheta,noVideo,sp01,Ad,We,3,3,4,flow/blocks/NoThetaInAudio_NoVideo_A.csv,,,,,,,,,0,3,3,3,0,31,31,14,,,,,,,,,-0.42824074074074076,0.30833333333333335,1,0,0,5.683187899994664,call1,0.006481481481481481,0.06944444444444445,1,0,0,6.775670600007288,colour2,0.36898148148148147,-0.1125,1,0,0,7.310701400012476,number3,True,False,True,12,2,2019_Nov_12_1604,MA_Theta_Exp,3.0.7,60.20835704635891,
video/Experiment/zh_sp01_Ad_Gr_2_NVocInAudio_NoVideo.avi,vocoded,noVideo,sp01,Ad,Gr,2,4,2,flow/blocks/NVocInAudio_NoVideo_A.csv,,,,,,,,,0,4,4,4,0,0,0,5,,,,,,,,,-0.4212962962962963,0.3,1,0,0,5.906370300013805,call1,0.024537037037037038,0.07083333333333333,1,0,0,6.942723300016951,colour2,0.39675925925925926,0.10555555555555556,1,0,0,7.53115439999965,number2,True,True,True,12,2,2019_Nov_12_1604,MA_Theta_Exp,3.0.7,60.20835704635891,
video/Experiment/zh_sp07_Dr_Ge_4_NVocInAudio_NoVideo.avi,vocoded,noVideo,sp07,Dr,Ge,4,4,2,flow/blocks/NVocInAudio_NoVideo_A.csv,,,,,,,,,0,4,4,4,0,1,1,19,,,,,,,,,-0.38796296296296295,0.09722222222222222,1,0,0,4.957840799994301,call2,-0.026851851851851852,0.2875,1,0,0,5.550533300003735,colour1,0.35648148148148145,-0.27361111111111114,1,0,0,6.570558300008997,number4,True,True,True,12,2,2019_Nov_12_1604,MA_Theta_Exp,3.0.7,60.20835704635891,
video/Experiment/zh_sp07_Dr_Gr_3_NVocInAudio_NoVideo.avi,vocoded,noVideo,sp07,Dr,Gr,3,4,2,flow/blocks/NVocInAudio_NoVideo_A.csv,,,,,,,,,0,4,4,4,0,2,2,22,,,,,,,,,-0.4393518518518518,0.1361111111111111,1,0,0,4.6054930000100285,call2,-0.0032407407407407406,0.07222222222222222,1,0,0,5.354465499985963,colour2,0.3912037037037037,-0.10555555555555556,1,0,0,5.889170899987221,number3,True,True,True,12,2,2019_Nov_12_1604,MA_Theta_Exp,3.0.7,60.20835704635891,
video/Experiment/zh_sp07_Ad_Ro_1_NVocInAudio_NoVideo.avi,vocoded,noVideo,sp07,Ad,Ro,1,4,2,flow/blocks/NVocInAudio_NoVideo_A.csv,,,,,,,,,0,4,4,4,0,3,3,8,,,,,,,,,-0.4166666666666667,0.30972222222222223,1,0,0,4.391857600014191,call1,0.04953703703703704,-0.1125,1,0,0,4.882300699973712,colour3,0.3648148148148148,0.26666666666666666,1,0,0,5.426639299985254,number1,True,True,True,12,2,2019_Nov_12_1604,MA_Theta_Exp,3.0.7,60.20835704635891,
video/Experiment/zh_sp07_Dr_Gr_1_NVocInAudio_NoVideo.avi,vocoded,noVideo,sp07,Dr,Gr,1,4,2,flow/blocks/NVocInAudio_NoVideo_A.csv,,,,,,,,,0,4,4,4,0,4,4,20,,,,,,,,,-0.3685185185185185,0.13194444444444445,1,0,0,4.640248200012138,call2,-0.007407407407407408,0.10416666666666667,1,0,0,5.0992694000015035,colour2,0.3675925925925926,0.2625,1,0,0,5.661188800004311,number1,True,True,True,12,2,2019_Nov_12_1604,MA_Theta_Exp,3.0.7,60.20835704635891,
video/Experiment/zh_sp07_Ad_Ro_4_NVocInAudio_NoVideo.avi,vocoded,noVideo,sp07,Ad,Ro,4,4,2,flow/blocks/NVocInAudio_NoVideo_A.csv,,,,,,,,,0,4,4,4,0,5,5,11,,,,,,,,,-0.36944444444444446,0.30694444444444446,1,0,0,5.002659599995241,call1,-0.012962962962962963,-0.11527777777777778,1,0,0,5.485885200003395,colour3,0.39861111111111114,-0.325,1,0,0,6.3316975000198,number4,True,True,True,12,2,2019_Nov_12_1604,MA_Theta_Exp,3.0.7,60.20835704635891,
video/Experiment/zh_sp07_Ad_Ge_1_NVocInAudio_NoVideo.avi,vocoded,noVideo,sp07,Ad,Ge,1,4,2,flow/blocks/NVocInAudio_NoVideo_A.csv,,,,,,,,,0,4,4,4,0,6,6,0,,,,,,,,,-0.4476851851851852,0.3087962962962963,1,0,0,5.108047499990789,call1,-0.05462962962962963,0.31157407407407406,1,0,0,5.659217300009914,colour1,0.4064814814814815,0.30185185185185187,1,0,0,6.08368499999051,number1,True,True,True,12,2,2019_Nov_12_1604,MA_Theta_Exp,3.0.7,60.20835704635891,
video/Experiment/zh_sp01_Dr_Ro_3_NVocInAudio_NoVideo.avi,vocoded,noVideo,sp01,Dr,Ro,3,4,2,flow/blocks/NVocInAudio_NoVideo_A.csv,,,,,,,,,0,4,4,4,0,7,7,26,,,,,,,,,-0.4222222222222222,0.09768518518518518,1,0,0,5.09073029999854,call2,-0.05740740740740741,-0.1050925925925926,1,0,0,5.586255000001984,colour3,0.3731481481481482,-0.10787037037037037,1,0,0,6.220391300012125,number3,True,True,True,12,2,2019_Nov_12_1604,MA_Theta_Exp,3.0.7,60.20835704635891,
video/Experiment/zh_sp07_Dr_Ro_2_NVocInAudio_NoVideo.avi,vocoded,noVideo,sp07,Dr,Ro,2,4,2,flow/blocks/NVocInAudio_NoVideo_A.csv,,,,,,,,,0,4,4,4,0,8,8,25,,,,,,,,,-0.4351851851851852,0.10462962962962963,1,0,0,4.846335099980934,call2,0.002777777777777778,0.2712962962962963,1,0,0,6.27296010000282,colour1,0.45092592592592595,0.11574074074074074,1,0,0,7.195188999990933,number2,True,False,True,12,2,2019_Nov_12_1604,MA_Theta_Exp,3.0.7,60.20835704635891,
video/Experiment/zh_sp01_Dr_Ro_1_NVocInAudio_NoVideo.avi,vocoded,noVideo,sp01,Dr,Ro,1,4,2,flow/blocks/NVocInAudio_NoVideo_A.csv,,,,,,,,,0,4,4,4,0,9,9,24,,,,,,,,,-0.37962962962962965,0.11851851851851852,1,0,0,5.33141089999117,call2,0.0125,-0.07592592592592592,1,0,0,5.8258742000034545,colour3,0.37037037037037035,0.2810185185185185,1,0,0,6.388499799999408,number1,True,True,True,12,2,2019_Nov_12_1604,MA_Theta_Exp,3.0.7,60.20835704635891,
video/Experiment/zh_sp07_Ad_Gr_1_NVocInAudio_NoVideo.avi,vocoded,noVideo,sp07,Ad,Gr,1,4,2,flow/blocks/NVocInAudio_NoVideo_A.csv,,,,,,,,,0,4,4,4,0,10,10,4,,,,,,,,,-0.4305555555555556,0.2949074074074074,1,0,0,4.437332700006664,call1,-0.03935185185185185,0.11296296296296296,1,0,0,4.869501400011359,colour2,0.399537037037037,0.33101851851851855,1,0,0,5.498862600012217,number1,True,True,True,12,2,2019_Nov_12_1604,MA_Theta_Exp,3.0.7,60.20835704635891,
video/Experiment/zh_sp01_Ad_Ro_3_NVocInAudio_NoVideo.avi,vocoded,noVideo,sp01,Ad,Ro,3,4,2,flow/blocks/NVocInAudio_NoVideo_A.csv,,,,,,,,,0,4,4,4,0,11,11,10,,,,,,,,,-0.43194444444444446,0.30185185185185187,1,0,0,5.167904500005534,call1,0.01898148148148148,-0.13425925925925927,1,0,0,5.8475800000014715,colour3,0.4236111111111111,-0.11203703703703703,1,0,0,6.684769099985715,number3,True,True,True,12,2,2019_Nov_12_1604,MA_Theta_Exp,3.0.7,60.20835704635891,
video/Experiment/zh_sp07_Ad_Ge_4_NVocInAudio_NoVideo.avi,vocoded,noVideo,sp07,Ad,Ge,4,4,2,flow/blocks/NVocInAudio_NoVideo_A.csv,,,,,,,,,0,4,4,4,0,12,12,3,,,,,,,,,-0.4013888888888889,0.2657407407407407,1,0,0,5.517864800000098,call1,0.010648148148148148,0.3101851851851852,1,0,0,6.128546199994162,colour1,0.42592592592592593,-0.3175925925925926,1,0,0,6.782475799991516,number4,True,True,True,12,2,2019_Nov_12_1604,MA_Theta_Exp,3.0.7,60.20835704635891,
video/Experiment/zh_sp07_Dr_We_2_NVocInAudio_NoVideo.avi,vocoded,noVideo,sp07,Dr,We,2,4,2,flow/blocks/NVocInAudio_NoVideo_A.csv,,,,,,,,,0,4,4,4,0,13,13,29,,,,,,,,,-0.40555555555555556,0.11157407407407408,1,0,0,4.845802199997706,call2,0.012037037037037037,-0.3384259259259259,1,0,0,5.519981400022516,colour4,0.4236111111111111,0.0824074074074074,1,0,0,6.341987699997844,number2,True,True,True,12,2,2019_Nov_12_1604,MA_Theta_Exp,3.0.7,60.20835704635891,
video/Experiment/zh_sp01_Ad_Gr_4_NVocInAudio_NoVideo.avi,vocoded,noVideo,sp01,Ad,Gr,4,4,2,flow/blocks/NVocInAudio_NoVideo_A.csv,,,,,,,,,0,4,4,4,0,14,14,7,,,,,,,,,-0.3861111111111111,0.26851851851851855,1,0,0,6.556758599996101,call1,0.001388888888888889,0.26296296296296295,1,0,0,7.594062699994538,colour1,0.3972222222222222,-0.3175925925925926,1,0,0,8.569109100004425,number4,True,False,True,12,2,2019_Nov_12_1604,MA_Theta_Exp,3.0.7,60.20835704635891,
video/Experiment/zh_sp07_Dr_Gr_2_NVocInAudio_NoVideo.avi,vocoded,noVideo,sp07,Dr,Gr,2,4,2,flow/blocks/NVocInAudio_NoVideo_A.csv,,,,,,,,,0,4,4,4,0,15,15,21,,,,,,,,,-0.36435185185185187,0.11296296296296296,1,0,0,4.606488500023261,call2,-0.05740740740740741,0.11018518518518519,1,0,0,5.023259900015546,colour2,0.5078703703703704,0.0587962962962963,1,0,0,5.50554790001479,number2,True,True,True,12,2,2019_Nov_12_1604,MA_Theta_Exp,3.0.7,60.20835704635891,
video/Experiment/zh_sp01_Dr_Gr_4_NVocInAudio_NoVideo.avi,vocoded,noVideo,sp01,Dr,Gr,4,4,2,flow/blocks/NVocInAudio_NoVideo_A.csv,,,,,,,,,0,4,4,4,0,16,16,23,,,,,,,,,-0.4097222222222222,0.11851851851851852,1,0,0,5.232301399984863,call2,-0.06018518518518518,0.10324074074074074,1,0,0,5.640474100015126,colour2,0.41944444444444445,-0.3189814814814815,1,0,0,6.4152542000229005,number4,True,True,True,12,2,2019_Nov_12_1604,MA_Theta_Exp,3.0.7,60.20835704635891,
video/Experiment/zh_sp01_Dr_We_4_NVocInAudio_NoVideo.avi,vocoded,noVideo,sp01,Dr,We,4,4,2,flow/blocks/NVocInAudio_NoVideo_A.csv,,,,,,,,,0,4,4,4,0,17,17,31,,,,,,,,,-0.3990740740740741,0.0712962962962963,1,0,0,5.193903600011254,call2,0.020370370370370372,-0.29259259259259257,1,0,0,6.004719999997178,colour4,0.42592592592592593,-0.34675925925925927,1,0,0,6.554236900003161,number4,True,True,True,12,2,2019_Nov_12_1604,MA_Theta_Exp,3.0.7,60.20835704635891,
video/Experiment/zh_sp07_Dr_Ge_2_NVocInAudio_NoVideo.avi,vocoded,noVideo,sp07,Dr,Ge,2,4,2,flow/blocks/NVocInAudio_NoVideo_A.csv,,,,,,,,,0,4,4,4,0,18,18,17,,,,,,,,,-0.4351851851851852,0.10324074074074074,1,0,0,5.245330400008243,call2,-0.010185185185185186,0.31712962962962965,1,0,0,5.869522499997402,colour1,0.3939814814814815,0.07962962962962963,1,0,0,6.40638949998538,number2,True,True,True,12,2,2019_Nov_12_1604,MA_Theta_Exp,3.0.7,60.20835704635891,
video/Experiment/zh_sp01_Ad_Ge_3_NVocInAudio_NoVideo.avi,vocoded,noVideo,sp01,Ad,Ge,3,4,2,flow/blocks/NVocInAudio_NoVideo_A.csv,,,,,,,,,0,4,4,4,0,19,19,2,,,,,,,,,-0.4083333333333333,0.287962962962963,1,0,0,5.0003277999931015,call1,0.025925925925925925,0.29768518518518516,1,0,0,5.493143100000452,colour1,0.4064814814814815,-0.11898148148148148,1,0,0,6.170629500003997,number3,True,True,True,12,2,2019_Nov_12_1604,MA_Theta_Exp,3.0.7,60.20835704635891,
video/Experiment/zh_sp01_Dr_Ro_4_NVocInAudio_NoVideo.avi,vocoded,noVideo,sp01,Dr,Ro,4,4,2,flow/blocks/NVocInAudio_NoVideo_A.csv,,,,,,,,,0,4,4,4,0,20,20,27,,,,,,,,,-0.40694444444444444,0.10740740740740741,1,0,0,5.155190699995728,call2,-0.01574074074074074,-0.10925925925925926,1,0,0,5.688878399989335,colour3,0.44722222222222224,-0.31203703703703706,1,0,0,6.196326200006297,number4,True,True,True,12,2,2019_Nov_12_1604,MA_Theta_Exp,3.0.7,60.20835704635891,
video/Experiment/zh_sp01_Ad_We_3_NVocInAudio_NoVideo.avi,vocoded,noVideo,sp01,Ad,We,3,4,2,flow/blocks/NVocInAudio_NoVideo_A.csv,,,,,,,,,0,4,4,4,0,21,21,14,,,,,,,,,-0.4847222222222222,0.3060185185185185,1,0,0,5.360722200013697,call1,-0.022685185185185187,-0.34120370370370373,1,0,0,6.117600400000811,colour4,0.39675925925925926,-0.10092592592592593,1,0,0,6.777310800011037,number3,True,True,True,12,2,2019_Nov_12_1604,MA_Theta_Exp,3.0.7,60.20835704635891,
video/Experiment/zh_sp07_Dr_Ge_3_NVocInAudio_NoVideo.avi,vocoded,noVideo,sp07,Dr,Ge,3,4,2,flow/blocks/NVocInAudio_NoVideo_A.csv,,,,,,,,,0,4,4,4,0,22,22,18,,,,,,,,,-0.42083333333333334,0.13518518518518519,1,0,0,4.63138710000203,call2,0.043055555555555555,-0.11064814814814815,1,0,0,7.5015606000088155,colour3,0.4134259259259259,-0.11481481481481481,1,0,0,8.017804999981308,number3,True,False,True,12,2,2019_Nov_12_1604,MA_Theta_Exp,3.0.7,60.20835704635891,
video/Experiment/zh_sp01_Ad_Ge_2_NVocInAudio_NoVideo.avi,vocoded,noVideo,sp01,Ad,Ge,2,4,2,flow/blocks/NVocInAudio_NoVideo_A.csv,,,,,,,,,0,4,4,4,0,23,23,1,,,,,,,,,-0.4027777777777778,0.2824074074074074,1,0,0,5.363839700003155,call1,0.1162037037037037,0.2657407407407407,1,0,0,5.763838699989719,colour1,0.43333333333333335,0.06712962962962964,1,0,0,6.982211800001096,number2,True,True,True,12,2,2019_Nov_12_1604,MA_Theta_Exp,3.0.7,60.20835704635891,
video/Experiment/zh_sp01_Ad_We_2_NVocInAudio_NoVideo.avi,vocoded,noVideo,sp01,Ad,We,2,4,2,flow/blocks/NVocInAudio_NoVideo_A.csv,,,,,,,,,0,4,4,4,0,24,24,13,,,,,,,,,-0.4083333333333333,0.29907407407407405,1,0,0,5.285008599981666,call1,-0.050462962962962966,-0.3023148148148148,1,0,0,5.9688701999839395,colour4,0.3439814814814815,0.13935185185185187,1,0,0,6.701704200007953,number2,True,True,True,12,2,2019_Nov_12_1604,MA_Theta_Exp,3.0.7,60.20835704635891,
video/Experiment/zh_sp01_Ad_We_4_NVocInAudio_NoVideo.avi,vocoded,noVideo,sp01,Ad,We,4,4,2,flow/blocks/NVocInAudio_NoVideo_A.csv,,,,,,,,,0,4,4,4,0,25,25,15,,,,,,,,,-0.41944444444444445,0.33796296296296297,1,0,0,4.93322310000076,call1,0.052314814814814814,-0.35509259259259257,1,0,0,5.6366553000116255,colour4,0.3662037037037037,-0.32175925925925924,1,0,0,6.154609499993967,number4,True,True,True,12,2,2019_Nov_12_1604,MA_Theta_Exp,3.0.7,60.20835704635891,
video/Experiment/zh_sp07_Ad_Ro_2_NVocInAudio_NoVideo.avi,vocoded,noVideo,sp07,Ad,Ro,2,4,2,flow/blocks/NVocInAudio_NoVideo_A.csv,,,,,,,,,0,4,4,4,0,26,26,9,,,,,,,,,-0.42685185185185187,0.31157407407407406,1,0,0,4.78650899999775,call1,-0.031018518518518518,-0.1175925925925926,1,0,0,5.414079200010747,colour3,0.41203703703703703,0.12962962962962962,1,0,0,5.993372600001749,number2,True,True,True,12,2,2019_Nov_12_1604,MA_Theta_Exp,3.0.7,60.20835704635891,
video/Experiment/zh_sp01_Ad_Gr_3_NVocInAudio_NoVideo.avi,vocoded,noVideo,sp01,Ad,Gr,3,4,2,flow/blocks/NVocInAudio_NoVideo_A.csv,,,,,,,,,0,4,4,4,0,27,27,6,,,,,,,,,-0.38101851851851853,0.2949074074074074,1,0,0,5.55270259999088,call1,-0.031018518518518518,0.1587962962962963,1,0,0,5.947578799998155,colour2,0.5148148148148148,-0.18564814814814815,1,0,0,6.503729699994437,number3,True,True,True,12,2,2019_Nov_12_1604,MA_Theta_Exp,3.0.7,60.20835704635891,
video/Experiment/zh_sp07_Ad_We_1_NVocInAudio_NoVideo.avi,vocoded,noVideo,sp07,Ad,We,1,4,2,flow/blocks/NVocInAudio_NoVideo_A.csv,,,,,,,,,0,4,4,4,0,28,28,12,,,,,,,,,-0.4601851851851852,0.3226851851851852,1,0,0,4.659428100014338,call1,0.008333333333333333,-0.2828703703703704,1,0,0,6.015625800006092,colour4,0.3902777777777778,0.28935185185185186,1,0,0,6.888215500017395,number1,True,True,True,12,2,2019_Nov_12_1604,MA_Theta_Exp,3.0.7,60.20835704635891,
video/Experiment/zh_sp01_Dr_We_3_NVocInAudio_NoVideo.avi,vocoded,noVideo,sp01,Dr,We,3,4,2,flow/blocks/NVocInAudio_NoVideo_A.csv,,,,,,,,,0,4,4,4,0,29,29,30,,,,,,,,,-0.3365740740740741,0.10740740740740741,1,0,0,4.901833000010811,call2,-0.05185185185185185,-0.3189814814814815,1,0,0,5.497645900002681,colour4,0.387037037037037,-0.1037037037037037,1,0,0,6.172688099992229,number3,True,True,True,12,2,2019_Nov_12_1604,MA_Theta_Exp,3.0.7,60.20835704635891,
video/Experiment/zh_sp07_Dr_We_1_NVocInAudio_NoVideo.avi,vocoded,noVideo,sp07,Dr,We,1,4,2,flow/blocks/NVocInAudio_NoVideo_A.csv,,,,,,,,,0,4,4,4,0,30,30,28,,,,,,,,,-0.44305555555555554,0.13935185185185187,1,0,0,4.592960800015135,call2,0.014814814814814815,-0.32037037037037036,1,0,0,5.162510000023758,colour4,0.39537037037037037,0.26990740740740743,1,0,0,5.75428359999205,number1,True,True,True,12,2,2019_Nov_12_1604,MA_Theta_Exp,3.0.7,60.20835704635891,
video/Experiment/zh_sp01_Dr_Ge_1_NVocInAudio_NoVideo.avi,vocoded,noVideo,sp01,Dr,Ge,1,4,2,flow/blocks/NVocInAudio_NoVideo_A.csv,,,,,,,,,0,4,4,4,0,31,31,16,,,,,,,,,-0.37824074074074077,0.07268518518518519,1,0,0,5.502901200001361,call2,0.024537037037037038,0.31296296296296294,1,0,0,6.059049200004665,colour1,0.4134259259259259,0.33240740740740743,1,0,0,6.619637800002238,number1,True,True,True,12,2,2019_Nov_12_1604,MA_Theta_Exp,3.0.7,60.20835704635891,
video/Experiment/zh_sp07_Ti_Ge_3_NoThetaInAudio_GlobalThetaInVideo.avi,noTheta,plusVideo,sp07,Ti,Ge,3,0,3,flow/blocks/NoThetaInAudio_GlobalThetaInVideo_B.csv,,,,,,,,,,,,,,,,,0,0,0,0,0,0,0,2,-0.4097222222222222,0.31157407407407406,1,0,0,7.794525200006319,call1,0.0125,0.09490740740740741,1,0,0,8.809121700003743,colour2,0.37777777777777777,-0.1037037037037037,1,0,0,9.647620100004133,number3,False,False,True,12,2,2019_Nov_12_1604,MA_Theta_Exp,3.0.7,60.20835704635891,
video/Experiment/zh_sp01_Un_Ro_2_NoThetaInAudio_GlobalThetaInVideo.avi,noTheta,plusVideo,sp01,Un,Ro,2,0,3,flow/blocks/NoThetaInAudio_GlobalThetaInVideo_B.csv,,,,,,,,,,,,,,,,,0,0,0,0,0,1,1,25,-0.3976851851851852,0.13796296296296295,1,0,0,5.149184300011257,call2,0.04537037037037037,-0.08425925925925926,1,0,0,6.329207700007828,colour3,0.39814814814814814,0.09212962962962963,1,0,0,7.032462800008943,number2,False,True,True,12,2,2019_Nov_12_1604,MA_Theta_Exp,3.0.7,60.20835704635891,
video/Experiment/zh_sp07_Ti_Ge_2_NoThetaInAudio_GlobalThetaInVideo.avi,noTheta,plusVideo,sp07,Ti,Ge,2,0,3,flow/blocks/NoThetaInAudio_GlobalThetaInVideo_B.csv,,,,,,,,,,,,,,,,,0,0,0,0,0,2,2,1,-0.4583333333333333,0.10046296296296296,1,0,0,4.767195099993842,call2,-0.06435185185185185,0.2962962962962963,1,0,0,5.327806799992686,colour1,0.4041666666666667,0.09074074074074075,1,0,0,6.214174599997932,number2,False,True,True,12,2,2019_Nov_12_1604,MA_Theta_Exp,3.0.7,60.20835704635891,
video/Experiment/zh_sp07_Ti_We_4_NoThetaInAudio_GlobalThetaInVideo.avi,noTheta,plusVideo,sp07,Ti,We,4,0,3,flow/blocks/NoThetaInAudio_GlobalThetaInVideo_B.csv,,,,,,,,,,,,,,,,,0,0,0,0,0,3,3,15,-0.37777777777777777,-0.2898148148148148,1,0,0,8.993472900008783,call4,-0.03935185185185185,0.15462962962962962,1,0,0,9.646489700011443,colour2,0.38981481481481484,-0.30648148148148147,1,0,0,10.663316100020893,number4,False,False,True,12,2,2019_Nov_12_1604,MA_Theta_Exp,3.0.7,60.20835704635891,
video/Experiment/zh_sp01_Un_Gr_4_NoThetaInAudio_GlobalThetaInVideo.avi,noTheta,plusVideo,sp01,Un,Gr,4,0,3,flow/blocks/NoThetaInAudio_GlobalThetaInVideo_B.csv,,,,,,,,,,,,,,,,,0,0,0,0,0,4,4,23,-0.38333333333333336,0.25601851851851853,1,0,0,7.283731800009264,call1,-0.0125,-0.0787037037037037,1,0,0,7.816893600014737,colour3,0.4203703703703704,-0.29814814814814816,1,0,0,8.340171500021825,number4,False,False,True,12,2,2019_Nov_12_1604,MA_Theta_Exp,3.0.7,60.20835704635891,
video/Experiment/zh_sp07_Ti_We_1_NoThetaInAudio_GlobalThetaInVideo.avi,noTheta,plusVideo,sp07,Ti,We,1,0,3,flow/blocks/NoThetaInAudio_GlobalThetaInVideo_B.csv,,,,,,,,,,,,,,,,,0,0,0,0,0,5,5,12,-0.4,0.10324074074074074,1,0,0,4.557207300007576,call2,-0.004166666666666667,-0.29398148148148145,1,0,0,5.182999699987704,colour4,0.4162037037037037,0.2810185185185185,1,0,0,5.86315220000688,number1,False,True,True,12,2,2019_Nov_12_1604,MA_Theta_Exp,3.0.7,60.20835704635891,
video/Experiment/zh_sp07_Ti_Ge_1_NoThetaInAudio_GlobalThetaInVideo.avi,noTheta,plusVideo,sp07,Ti,Ge,1,0,3,flow/blocks/NoThetaInAudio_GlobalThetaInVideo_B.csv,,,,,,,,,,,,,,,,,0,0,0,0,0,6,6,0,-0.4097222222222222,0.10462962962962963,1,0,0,5.74964560000808,call2,-0.01712962962962963,-0.13148148148148148,1,0,0,6.461718099977588,colour3,0.387037037037037,0.3060185185185185,1,0,0,7.102971699991031,number1,False,False,True,12,2,2019_Nov_12_1604,MA_Theta_Exp,3.0.7,60.20835704635891,
video/Experiment/zh_sp01_Un_Ge_3_NoThetaInAudio_GlobalThetaInVideo.avi,noTheta,plusVideo,sp01,Un,Ge,3,0,3,flow/blocks/NoThetaInAudio_GlobalThetaInVideo_B.csv,,,,,,,,,,,,,,,,,0,0,0,0,0,7,7,18,-0.3685185185185185,0.09907407407407408,1,0,0,6.615226699999766,call2,0.023148148148148147,0.26296296296296295,1,0,0,10.531715299992356,colour1,0.4027777777777778,-0.09675925925925925,1,0,0,11.095153700007359,number3,False,True,True,12,2,2019_Nov_12_1604,MA_Theta_Exp,3.0.7,60.20835704635891,
video/Experiment/zh_sp07_Ti_We_3_NoThetaInAudio_GlobalThetaInVideo.avi,noTheta,plusVideo,sp07,Ti,We,3,0,3,flow/blocks/NoThetaInAudio_GlobalThetaInVideo_B.csv,,,,,,,,,,,,,,,,,0,0,0,0,0,8,8,14,-0.43796296296296294,0.31574074074074077,1,0,0,7.857974600017769,call1,0.0,0.29074074074074074,1,0,0,8.674176900007296,colour1,0.4203703703703704,-0.12037037037037036,1,0,0,9.528240199986612,number3,False,False,True,12,2,2019_Nov_12_1604,MA_Theta_Exp,3.0.7,60.20835704635891,
video/Experiment/zh_sp01_Un_Gr_1_NoThetaInAudio_GlobalThetaInVideo.avi,noTheta,plusVideo,sp01,Un,Gr,1,0,3,flow/blocks/NoThetaInAudio_GlobalThetaInVideo_B.csv,,,,,,,,,,,,,,,,,0,0,0,0,0,9,9,20,-0.37222222222222223,0.09212962962962963,1,0,0,7.620734500000253,call2,-0.011111111111111112,0.28379629629629627,1,0,0,8.315265899989754,colour1,0.37037037037037035,0.28935185185185186,1,0,0,8.911596099991584,number1,False,False,True,12,2,2019_Nov_12_1604,MA_Theta_Exp,3.0.7,60.20835704635891,
video/Experiment/zh_sp07_Un_Ge_1_NoThetaInAudio_GlobalThetaInVideo.avi,noTheta,plusVideo,sp07,Un,Ge,1,0,3,flow/blocks/NoThetaInAudio_GlobalThetaInVideo_B.csv,,,,,,,,,,,,,,,,,0,0,0,0,0,10,10,16,-0.43472222222222223,0.2587962962962963,1,0,0,7.127768499980448,call1,0.037037037037037035,0.14212962962962963,1,0,0,9.233071299997391,colour2,0.38287037037037036,0.2671296296296296,1,0,0,10.012100399995688,number1,False,False,True,12,2,2019_Nov_12_1604,MA_Theta_Exp,3.0.7,60.20835704635891,
video/Experiment/zh_sp07_Ti_Gr_3_NoThetaInAudio_GlobalThetaInVideo.avi,noTheta,plusVideo,sp07,Ti,Gr,3,0,3,flow/blocks/NoThetaInAudio_GlobalThetaInVideo_B.csv,,,,,,,,,,,,,,,,,0,0,0,0,0,11,11,6,-0.3726851851851852,0.0712962962962963,1,0,0,6.492966200021328,call2,0.07222222222222222,-0.12175925925925926,1,0,0,7.997226800012868,colour3,0.3925925925925926,-0.11898148148148148,1,0,0,8.569940699992003,number3,False,False,True,12,2,2019_Nov_12_1604,MA_Theta_Exp,3.0.7,60.20835704635891,
video/Experiment/zh_sp07_Un_We_3_NoThetaInAudio_GlobalThetaInVideo.avi,noTheta,plusVideo,sp07,Un,We,3,0,3,flow/blocks/NoThetaInAudio_GlobalThetaInVideo_B.csv,,,,,,,,,,,,,,,,,0,0,0,0,0,12,12,30,-0.43194444444444446,0.11435185185185186,1,0,0,4.557758900016779,call2,-0.02962962962962963,-0.337037037037037,1,0,0,5.284162099997047,colour4,0.3888888888888889,-0.1175925925925926,1,0,0,6.695288099988829,number3,False,True,True,12,2,2019_Nov_12_1604,MA_Theta_Exp,3.0.7,60.20835704635891,
video/Experiment/zh_sp07_Un_We_2_NoThetaInAudio_GlobalThetaInVideo.avi,noTheta,plusVideo,sp07,Un,We,2,0,3,flow/blocks/NoThetaInAudio_GlobalThetaInVideo_B.csv,,,,,,,,,,,,,,,,,0,0,0,0,0,13,13,29,-0.43472222222222223,0.1087962962962963,1,0,0,4.839815000013914,call2,-0.029166666666666667,-0.3106481481481482,1,0,0,5.529254799999762,colour4,0.3814814814814815,0.10462962962962963,1,0,0,6.35078920001979,number2,False,True,True,12,2,2019_Nov_12_1604,MA_Theta_Exp,3.0.7,60.20835704635891,
video/Experiment/zh_sp07_Un_Ro_3_NoThetaInAudio_GlobalThetaInVideo.avi,noTheta,plusVideo,sp07,Un,Ro,3,0,3,flow/blocks/NoThetaInAudio_GlobalThetaInVideo_B.csv,,,,,,,,,,,,,,,,,0,0,0,0,0,14,14,26,-0.38472222222222224,0.2851851851851852,1,0,0,4.45081169999321,call1,-0.06435185185185185,-0.08842592592592592,1,0,0,5.038636799989035,colour3,0.4217592592592593,-0.14814814814814814,1,0,0,6.010069199983263,number3,False,True,True,12,2,2019_Nov_12_1604,MA_Theta_Exp,3.0.7,60.20835704635891,
video/Experiment/zh_sp07_Un_Ro_1_NoThetaInAudio_GlobalThetaInVideo.avi,noTheta,plusVideo,sp07,Un,Ro,1,0,3,flow/blocks/NoThetaInAudio_GlobalThetaInVideo_B.csv,,,,,,,,,,,,,,,,,0,0,0,0,0,15,15,24,-0.39444444444444443,0.07685185185185185,1,0,0,5.7946857000060845,call2,0.0023148148148148147,-0.1037037037037037,1,0,0,6.235265399998752,colour3,0.3592592592592593,0.27685185185185185,1,0,0,7.216281800006982,number1,False,True,True,12,2,2019_Nov_12_1604,MA_Theta_Exp,3.0.7,60.20835704635891,
video/Experiment/zh_sp01_Ti_Ro_3_NoThetaInAudio_GlobalThetaInVideo.avi,noTheta,plusVideo,sp01,Ti,Ro,3,0,3,flow/blocks/NoThetaInAudio_GlobalThetaInVideo_B.csv,,,,,,,,,,,,,,,,,0,0,0,0,0,16,16,10,-0.3837962962962963,0.040740740740740744,1,0,0,5.5306020000134595,call2,0.006481481481481481,-0.11064814814814815,1,0,0,5.8967405000003055,colour3,0.3888888888888889,-0.10092592592592593,1,0,0,6.63752590000513,number3,False,True,True,12,2,2019_Nov_12_1604,MA_Theta_Exp,3.0.7,60.20835704635891,
video/Experiment/zh_sp07_Un_We_4_NoThetaInAudio_GlobalThetaInVideo.avi,noTheta,plusVideo,sp07,Un,We,4,0,3,flow/blocks/NoThetaInAudio_GlobalThetaInVideo_B.csv,,,,,,,,,,,,,,,,,0,0,0,0,0,17,17,31,-0.36574074074074076,0.30185185185185187,1,0,0,4.343514500011224,call1,0.023148148148148147,-0.3578703703703704,1,0,0,4.972540300019318,colour4,0.4134259259259259,-0.32592592592592595,1,0,0,5.5331751000194345,number4,False,True,True,12,2,2019_Nov_12_1604,MA_Theta_Exp,3.0.7,60.20835704635891,
video/Experiment/zh_sp01_Un_Ge_4_NoThetaInAudio_GlobalThetaInVideo.avi,noTheta,plusVideo,sp01,Un,Ge,4,0,3,flow/blocks/NoThetaInAudio_GlobalThetaInVideo_B.csv,,,,,,,,,,,,,,,,,0,0,0,0,0,18,18,19,-0.3976851851851852,0.2337962962962963,1,0,0,5.478091099997982,call1,-0.001851851851851852,0.24074074074074073,1,0,0,6.202806799992686,colour1,0.4078703703703704,-0.2828703703703704,1,0,0,6.90366099998937,number4,False,True,True,12,2,2019_Nov_12_1604,MA_Theta_Exp,3.0.7,60.20835704635891,
video/Experiment/zh_sp01_Un_Gr_3_NoThetaInAudio_GlobalThetaInVideo.avi,noTheta,plusVideo,sp01,Un,Gr,3,0,3,flow/blocks/NoThetaInAudio_GlobalThetaInVideo_B.csv,,,,,,,,,,,,,,,,,0,0,0,0,0,19,19,22,-0.3574074074074074,0.056018518518518516,1,0,0,5.511213699996006,call2,0.05925925925925926,0.0032407407407407406,1,0,0,5.915023499983363,colour2,0.4361111111111111,-0.15648148148148147,1,0,0,7.108132900000783,number3,False,True,True,12,2,2019_Nov_12_1604,MA_Theta_Exp,3.0.7,60.20835704635891,
video/Experiment/zh_sp01_Un_Ge_2_NoThetaInAudio_GlobalThetaInVideo.avi,noTheta,plusVideo,sp01,Un,Ge,2,0,3,flow/blocks/NoThetaInAudio_GlobalThetaInVideo_B.csv,,,,,,,,,,,,,,,,,0,0,0,0,0,20,20,17,-0.4263888888888889,0.2490740740740741,1,0,0,7.97579319999204,call1,-0.025,0.24212962962962964,1,0,0,9.841805599979125,colour1,0.36342592592592593,0.07546296296296297,1,0,0,10.64086009998573,number2,False,True,True,12,2,2019_Nov_12_1604,MA_Theta_Exp,3.0.7,60.20835704635891,
video/Experiment/zh_sp01_Ti_Gr_1_NoThetaInAudio_GlobalThetaInVideo.avi,noTheta,plusVideo,sp01,Ti,Gr,1,0,3,flow/blocks/NoThetaInAudio_GlobalThetaInVideo_B.csv,,,,,,,,,,,,,,,,,0,0,0,0,0,21,21,4,-0.35833333333333334,0.10185185185185185,1,0,0,7.167623899993487,call2,0.052314814814814814,0.11157407407407408,1,0,0,8.78599469998153,colour2,0.42777777777777776,0.26157407407407407,1,0,0,9.78529639999033,number1,False,True,True,12,2,2019_Nov_12_1604,MA_Theta_Exp,3.0.7,60.20835704635891,
video/Experiment/zh_sp01_Ti_Ro_1_NoThetaInAudio_GlobalThetaInVideo.avi,noTheta,plusVideo,sp01,Ti,Ro,1,0,3,flow/blocks/NoThetaInAudio_GlobalThetaInVideo_B.csv,,,,,,,,,,,,,,,,,0,0,0,0,0,22,22,8,-0.37916666666666665,0.26157407407407407,1,0,0,9.524147899996024,call1,-0.031018518518518518,0.2810185185185185,1,0,0,10.825661699986085,colour1,0.4041666666666667,0.2865740740740741,1,0,0,11.704369099985342,number1,False,False,True,12,2,2019_Nov_12_1604,MA_Theta_Exp,3.0.7,60.20835704635891,
video/Experiment/zh_sp07_Ti_Ro_2_NoThetaInAudio_GlobalThetaInVideo.avi,noTheta,plusVideo,sp07,Ti,Ro,2,0,3,flow/blocks/NoThetaInAudio_GlobalThetaInVideo_B.csv,,,,,,,,,,,,,,,,,0,0,0,0,0,23,23,9,-0.3388888888888889,0.02824074074074074,1,0,0,5.471422700007679,call2,-0.02546296296296296,-0.10231481481481482,1,0,0,5.966280399996322,colour3,0.3958333333333333,0.13657407407407407,1,0,0,6.75178859999869,number2,False,True,True,12,2,2019_Nov_12_1604,MA_Theta_Exp,3.0.7,60.20835704635891,
video/Experiment/zh_sp01_Un_We_1_NoThetaInAudio_GlobalThetaInVideo.avi,noTheta,plusVideo,sp01,Un,We,1,0,3,flow/blocks/NoThetaInAudio_GlobalThetaInVideo_B.csv,,,,,,,,,,,,,,,,,0,0,0,0,0,24,24,28,-0.38657407407407407,0.11712962962962963,1,0,0,9.839053400006378,call2,-0.05185185185185185,-0.13564814814814816,1,0,0,10.68432460000622,colour3,0.387037037037037,0.29074074074074074,1,0,0,11.655502400011756,number1,False,False,True,12,2,2019_Nov_12_1604,MA_Theta_Exp,3.0.7,60.20835704635891,
video/Experiment/zh_sp01_Ti_Gr_2_NoThetaInAudio_GlobalThetaInVideo.avi,noTheta,plusVideo,sp01,Ti,Gr,2,0,3,flow/blocks/NoThetaInAudio_GlobalThetaInVideo_B.csv,,,,,,,,,,,,,,,,,0,0,0,0,0,25,25,5,-0.3236111111111111,0.07685185185185185,1,0,0,6.145338600006653,call2,0.029166666666666667,0.05462962962962963,1,0,0,6.690981600026134,colour2,0.3972222222222222,0.09768518518518518,1,0,0,7.526911299995845,number2,False,True,True,12,2,2019_Nov_12_1604,MA_Theta_Exp,3.0.7,60.20835704635891,
video/Experiment/zh_sp01_Ti_Gr_4_NoThetaInAudio_GlobalThetaInVideo.avi,noTheta,plusVideo,sp01,Ti,Gr,4,0,3,flow/blocks/NoThetaInAudio_GlobalThetaInVideo_B.csv,,,,,,,,,,,,,,,,,0,0,0,0,0,26,26,7,-0.3824074074074074,0.04351851851851852,1,0,0,8.197679000004428,call2,-0.022685185185185187,-0.15231481481481482,1,0,0,8.773487500002375,colour3,0.45231481481481484,-0.3592592592592593,1,0,0,9.339099100005114,number4,False,False,True,12,2,2019_Nov_12_1604,MA_Theta_Exp,3.0.7,60.20835704635891,
video/Experiment/zh_sp01_Ti_We_2_NoThetaInAudio_GlobalThetaInVideo.avi,noTheta,plusVideo,sp01,Ti,We,2,0,3,flow/blocks/NoThetaInAudio_GlobalThetaInVideo_B.csv,,,,,,,,,,,,,,,,,0,0,0,0,0,27,27,13,-0.32685185185185184,-0.06342592592592593,1,0,0,7.0265901000238955,call3,0.023148148148148147,-0.07175925925925926,1,0,0,8.848640200012596,colour3,0.3458333333333333,0.12268518518518519,1,0,0,9.764057199994568,number2,True,False,True,12,2,2019_Nov_12_1604,MA_Theta_Exp,3.0.7,60.20835704635891,
video/Experiment/zh_sp01_Ti_Ro_4_NoThetaInAudio_GlobalThetaInVideo.avi,noTheta,plusVideo,sp01,Ti,Ro,4,0,3,flow/blocks/NoThetaInAudio_GlobalThetaInVideo_B.csv,,,,,,,,,,,,,,,,,0,0,0,0,0,28,28,11,-0.4,0.3476851851851852,1,0,0,5.449735999980476,call1,0.05555555555555555,-0.0412037037037037,1,0,0,8.12464219998219,colour3,0.40694444444444444,-0.3106481481481482,1,0,0,9.031310299993493,number4,False,True,True,12,2,2019_Nov_12_1604,MA_Theta_Exp,3.0.7,60.20835704635891,
video/Experiment/zh_sp07_Ti_Ge_4_NoThetaInAudio_GlobalThetaInVideo.avi,noTheta,plusVideo,sp07,Ti,Ge,4,0,3,flow/blocks/NoThetaInAudio_GlobalThetaInVideo_B.csv,,,,,,,,,,,,,,,,,0,0,0,0,0,29,29,3,-0.36157407407407405,0.07268518518518519,1,0,0,5.400123200000962,call2,0.01898148148148148,-0.1259259259259259,1,0,0,5.851217999996152,colour3,0.43148148148148147,-0.32731481481481484,1,0,0,6.39755699998932,number4,False,False,True,12,2,2019_Nov_12_1604,MA_Theta_Exp,3.0.7,60.20835704635891,
video/Experiment/zh_sp07_Un_Gr_2_NoThetaInAudio_GlobalThetaInVideo.avi,noTheta,plusVideo,sp07,Un,Gr,2,0,3,flow/blocks/NoThetaInAudio_GlobalThetaInVideo_B.csv,,,,,,,,,,,,,,,,,0,0,0,0,0,30,30,21,-0.4060185185185185,0.28379629629629627,1,0,0,4.475737799977651,call1,-0.050462962962962966,0.15601851851851853,1,0,0,4.902795200003311,colour2,0.4134259259259259,0.11157407407407408,1,0,0,5.40260530001251,number2,False,True,True,12,2,2019_Nov_12_1604,MA_Theta_Exp,3.0.7,60.20835704635891,
video/Experiment/zh_sp01_Un_Ro_4_NoThetaInAudio_GlobalThetaInVideo.avi,noTheta,plusVideo,sp01,Un,Ro,4,0,3,flow/blocks/NoThetaInAudio_GlobalThetaInVideo_B.csv,,,,,,,,,,,,,,,,,0,0,0,0,0,31,31,27,-0.40694444444444444,0.26851851851851855,1,0,0,6.792787300015334,call1,-0.001851851851851852,-0.11064814814814815,1,0,0,7.4230030000035185,colour3,0.4148148148148148,-0.3189814814814815,1,0,0,8.128683999995701,number4,False,True,True,12,2,2019_Nov_12_1604,MA_Theta_Exp,3.0.7,60.20835704635891,
video/Experiment/zh_sp01_Un_We_1_NVocInAudio_NoVideo.avi,vocoded,noVideo,sp01,Un,We,1,1,2,flow/blocks/NVocInAudio_NoVideo_B.csv,,,,,,,,,,,,,,,,,0,1,1,1,0,0,0,28,-0.3736111111111111,-0.3398148148148148,1,0,0,6.94695720000891,call4,0.0125,0.300462962962963,1,0,0,9.037834700022358,colour1,0.38842592592592595,0.2657407407407407,1,0,0,9.651744300004793,number1,True,False,True,12,2,2019_Nov_12_1604,MA_Theta_Exp,3.0.7,60.20835704635891,
video/Experiment/zh_sp07_Un_We_4_NVocInAudio_NoVideo.avi,vocoded,noVideo,sp07,Un,We,4,1,2,flow/blocks/NVocInAudio_NoVideo_B.csv,,,,,,,,,,,,,,,,,0,1,1,1,0,1,1,31,-0.4351851851851852,-0.3162037037037037,1,0,0,4.836105599999428,call4,-0.008796296296296297,-0.3578703703703704,1,0,0,5.4735944000130985,colour4,0.4134259259259259,-0.28564814814814815,1,0,0,7.24562750000041,number4,True,True,True,12,2,2019_Nov_12_1604,MA_Theta_Exp,3.0.7,60.20835704635891,
video/Experiment/zh_sp07_Ti_We_2_NVocInAudio_NoVideo.avi,vocoded,noVideo,sp07,Ti,We,2,1,2,flow/blocks/NVocInAudio_NoVideo_B.csv,,,,,,,,,,,,,,,,,0,1,1,1,0,2,2,13,-0.38796296296296295,-0.06342592592592593,1,0,0,4.899176600010833,call3,0.038425925925925926,-0.34120370370370373,1,0,0,5.707757800002582,colour4,0.38564814814814813,0.12407407407407407,1,0,0,6.288149500003783,number2,True,True,True,12,2,2019_Nov_12_1604,MA_Theta_Exp,3.0.7,60.20835704635891,
video/Experiment/zh_sp01_Ti_Ro_3_NVocInAudio_NoVideo.avi,vocoded,noVideo,sp01,Ti,Ro,3,1,2,flow/blocks/NVocInAudio_NoVideo_B.csv,,,,,,,,,,,,,,,,,0,1,1,1,0,3,3,10,-0.3472222222222222,-0.1412037037037037,1,0,0,4.916789000009885,call3,-0.02546296296296296,-0.13287037037037036,1,0,0,5.744318799988832,colour3,0.4412037037037037,-0.1412037037037037,1,0,0,6.412589400017168,number3,True,True,True,12,2,2019_Nov_12_1604,MA_Theta_Exp,3.0.7,60.20835704635891,
video/Experiment/zh_sp07_Un_Ro_4_NVocInAudio_NoVideo.avi,vocoded,noVideo,sp07,Un,Ro,4,1,2,flow/blocks/NVocInAudio_NoVideo_B.csv,,,,,,,,,,,,,,,,,0,1,1,1,0,4,4,27,-0.4305555555555556,-0.3050925925925926,1,0,0,5.115153499995358,call4,0.043055555555555555,-0.2773148148148148,1,0,0,6.603114300000016,colour4,0.4111111111111111,-0.3148148148148148,1,0,0,7.367792699980782,number4,True,False,True,12,2,2019_Nov_12_1604,MA_Theta_Exp,3.0.7,60.20835704635891,
video/Experiment/zh_sp01_Ti_Gr_4_NVocInAudio_NoVideo.avi,vocoded,noVideo,sp01,Ti,Gr,4,1,2,flow/blocks/NVocInAudio_NoVideo_B.csv,,,,,,,,,,,,,,,,,0,1,1,1,0,5,5,7,-0.35,-0.08842592592592592,1,0,0,5.167136500007473,call3,0.0125,0.07962962962962963,1,0,0,6.17643130000215,colour2,0.40370370370370373,-0.30925925925925923,1,0,0,6.799615099997027,number4,True,True,True,12,2,2019_Nov_12_1604,MA_Theta_Exp,3.0.7,60.20835704635891,
video/Experiment/zh_sp01_Un_Ro_1_NVocInAudio_NoVideo.avi,vocoded,noVideo,sp01,Un,Ro,1,1,2,flow/blocks/NVocInAudio_NoVideo_B.csv,,,,,,,,,,,,,,,,,0,1,1,1,0,6,6,24,-0.3824074074074074,-0.3148148148148148,1,0,0,5.832690600014757,call4,0.016666666666666666,-0.1287037037037037,1,0,0,8.56517210000311,colour3,0.3972222222222222,0.27685185185185185,1,0,0,9.206580099998973,number1,True,True,True,12,2,2019_Nov_12_1604,MA_Theta_Exp,3.0.7,60.20835704635891,
video/Experiment/zh_sp07_Un_Gr_1_NVocInAudio_NoVideo.avi,vocoded,noVideo,sp07,Un,Gr,1,1,2,flow/blocks/NVocInAudio_NoVideo_B.csv,,,,,,,,,,,,,,,,,0,1,1,1,0,7,7,20,-0.41712962962962963,-0.3162037037037037,1,0,0,4.588357399974484,call4,-0.018518518518518517,0.1087962962962963,1,0,0,5.28290679998463,colour2,0.43472222222222223,0.30324074074074076,1,0,0,5.881444700004067,number1,True,True,True,12,2,2019_Nov_12_1604,MA_Theta_Exp,3.0.7,60.20835704635891,
video/Experiment/zh_sp01_Un_Gr_2_NVocInAudio_NoVideo.avi,vocoded,noVideo,sp01,Un,Gr,2,1,2,flow/blocks/NVocInAudio_NoVideo_B.csv,,,,,,,,,,,,,,,,,0,1,1,1,0,8,8,21,-0.3726851851851852,-0.34675925925925927,1,0,0,5.111522699997295,call4,-0.04212962962962963,0.10324074074074074,1,0,0,5.844398999994155,colour2,0.4064814814814815,0.10740740740740741,1,0,0,6.397935199987842,number2,True,True,True,12,2,2019_Nov_12_1604,MA_Theta_Exp,3.0.7,60.20835704635891,
video/Experiment/zh_sp07_Ti_We_3_NVocInAudio_NoVideo.avi,vocoded,noVideo,sp07,Ti,We,3,1,2,flow/blocks/NVocInAudio_NoVideo_B.csv,,,,,,,,,,,,,,,,,0,1,1,1,0,9,9,14,-0.41574074074074074,-0.07731481481481481,1,0,0,4.494437499990454,call3,0.009259259259259259,-0.337037037037037,1,0,0,4.961403799999971,colour4,0.43425925925925923,-0.10648148148148148,1,0,0,5.872659399989061,number3,True,True,True,12,2,2019_Nov_12_1604,MA_Theta_Exp,3.0.7,60.20835704635891,
video/Experiment/zh_sp07_Ti_Ge_3_NVocInAudio_NoVideo.avi,vocoded,noVideo,sp07,Ti,Ge,3,1,2,flow/blocks/NVocInAudio_NoVideo_B.csv,,,,,,,,,,,,,,,,,0,1,1,1,0,10,10,2,-0.44351851851851853,-0.11481481481481481,1,0,0,4.5730519000208005,call3,-0.021296296296296296,0.3143518518518518,1,0,0,5.260837099980563,colour1,0.3912037037037037,-0.1300925925925926,1,0,0,5.842197699996177,number3,True,True,True,12,2,2019_Nov_12_1604,MA_Theta_Exp,3.0.7,60.20835704635891,
video/Experiment/zh_sp01_Ti_We_4_NVocInAudio_NoVideo.avi,vocoded,noVideo,sp01,Ti,We,4,1,2,flow/blocks/NVocInAudio_NoVideo_B.csv,,,,,,,,,,,,,,,,,0,1,1,1,0,11,11,15,-0.425462962962963,-0.09398148148148149,1,0,0,5.107049599988386,call3,-0.06851851851851852,-0.34953703703703703,1,0,0,5.723636099981377,colour4,0.3925925925925926,-0.2967592592592593,1,0,0,6.3192826000158675,number4,True,True,True,12,2,2019_Nov_12_1604,MA_Theta_Exp,3.0.7,60.20835704635891,
