videoFile,condition,video,speaker,callSign,colour,number,seq,id,block,exp.thisRepN,exp.thisTrialN,exp.thisN,exp.thisIndex,training.thisRepN,training.thisTrialN,training.thisN,training.thisIndex,firstHalf.thisRepN,firstHalf.thisTrialN,firstHalf.thisN,firstHalf.thisIndex,blocksA.thisRepN,blocksA.thisTrialN,blocksA.thisN,blocksA.thisIndex,mouseClickOnCall.x,mouseClickOnCall.y,mouseClickOnCall.leftButton,mouseClickOnCall.midButton,mouseClickOnCall.rightButton,mouseClickOnCall.time,mouseClickOnCall.clicked_name,mouseClickOnColour.x,mouseClickOnColour.y,mouseClickOnColour.leftButton,mouseClickOnColour.midButton,mouseClickOnColour.rightButton,mouseClickOnColour.time,mouseClickOnColour.clicked_name,mouseClickOnNumber.x,mouseClickOnNumber.y,mouseClickOnNumber.leftButton,mouseClickOnNumber.midButton,mouseClickOnNumber.rightButton,mouseClickOnNumber.time,mouseClickOnNumber.clicked_name,callSignCorrect,colourCorrect,numberCorrect,participant,order,date,expName,psychopyVersion,frameRate,
video/Training/zh_sp01_Ad_We_4_NVocInAudio_NoVideo.avi,vocoded,noVideo,sp01,Ad,We,4,,,,,,,,0,0,0,0,,,,,,,,,-0.4,0.3263888888888889,1,0,0,5.979337099997792,call1,-0.04351851851851852,-0.30416666666666664,1,0,0,6.870766799984267,colour4,0.34444444444444444,-0.31805555555555554,1,0,0,7.5313961999781895,number4,True,True,True,13,3,2019_Nov_12_1658,MA_Theta_Exp,3.0.7,61.34453730400269,
video/Training/zh_sp07_Ad_Ge_3_NVocInAudio_NoVideo.avi,vocoded,noVideo,sp07,Ad,Ge,3,,,,,,,,0,1,1,1,,,,,,,,,-0.3638888888888889,0.2916666666666667,1,0,0,5.309609499992803,call1,0.02638888888888889,0.2972222222222222,1,0,0,6.41199079999933,colour1,0.43148148148148147,-0.08194444444444444,1,0,0,7.187324400001671,number3,True,True,True,13,3,2019_Nov_12_1658,MA_Theta_Exp,3.0.7,61.34453730400269,
video/Training/zh_sp01_Dr_Ro_3_NVocInAudio_GlobalThetaInVideo.avi,vocoded,plusVideo,sp01,Dr,Ro,3,,,,,,,,0,2,2,2,,,,,,,,,-0.39305555555555555,0.29444444444444445,1,0,0,10.174953400011873,call1,-0.011574074074074073,0.2986111111111111,1,0,0,10.725502299988875,colour1,0.4273148148148148,-0.14444444444444443,1,0,0,11.337961900018854,number3,False,False,True,13,3,2019_Nov_12_1658,MA_Theta_Exp,3.0.7,61.34453730400269,
video/Training/zh_sp07_Dr_Gr_4_NVocInAudio_GlobalThetaInVideo.avi,vocoded,plusVideo,sp07,Dr,Gr,4,,,,,,,,0,3,3,3,,,,,,,,,-0.02962962962962963,0.08055555555555556,1,0,0,7.719773999997415,call1,0.010648148148148148,0.10138888888888889,1,0,0,11.006211700005224,colour2,0.3731481481481482,-0.2777777777777778,1,0,0,11.568517500010785,number4,False,True,True,13,3,2019_Nov_12_1658,MA_Theta_Exp,3.0.7,61.34453730400269,
video/Training/zh_sp01_Ti_Gr_2_NoThetaInAudio_NoVideo.avi,noTheta,noVideo,sp01,Ti,Gr,2,,,,,,,,0,4,4,4,,,,,,,,,-0.37916666666666665,0.2763888888888889,1,0,0,10.600363899982767,call1,-0.001851851851851852,0.2875,1,0,0,11.750362299993867,colour1,0.4078703703703704,0.10694444444444444,1,0,0,12.283747600013157,number2,False,False,True,13,3,2019_Nov_12_1658,MA_Theta_Exp,3.0.7,61.34453730400269,
video/Training/zh_sp07_Ti_Ro_1_NoThetaInAudio_NoVideo.avi,noTheta,noVideo,sp07,Ti,Ro,1,,,,,,,,0,5,5,5,,,,,,,,,-0.4074074074074074,0.3263888888888889,1,0,0,7.517163000011351,call1,-0.05555555555555555,0.2847222222222222,1,0,0,7.875689699983923,colour1,0.41064814814814815,0.2763888888888889,1,0,0,8.287740600004327,number1,False,False,True,13,3,2019_Nov_12_1658,MA_Theta_Exp,3.0.7,61.34453730400269,
video/Training/zh_sp01_Un_Ge_1_NoThetaInAudio_GlobalThetaInVideo.avi,noTheta,plusVideo,sp01,Un,Ge,1,,,,,,,,0,6,6,6,,,,,,,,,-0.43472222222222223,0.3472222222222222,1,0,0,7.64275450000423,call1,-0.04027777777777778,0.32916666666666666,1,0,0,8.008677299978444,colour1,0.3,0.2777777777777778,1,0,0,8.334559099981561,number1,False,True,True,13,3,2019_Nov_12_1658,MA_Theta_Exp,3.0.7,61.34453730400269,
video/Training/zh_sp07_Un_We_2_NoThetaInAudio_GlobalThetaInVideo.avi,noTheta,plusVideo,sp07,Un,We,2,,,,,,,,0,7,7,7,,,,,,,,,-0.4337962962962963,0.30972222222222223,1,0,0,4.492085500009125,call1,-0.000462962962962963,-0.30833333333333335,1,0,0,5.202163300011307,colour4,0.4083333333333333,0.06944444444444445,1,0,0,5.818138800008455,number2,False,True,True,13,3,2019_Nov_12_1658,MA_Theta_Exp,3.0.7,61.34453730400269,
video/Training/zh_sp01_Ad_Ge_1_GlobalTheta_NoVideo.avi,globalTheta,noVideo,sp01,Ad,Ge,1,,,,,,,,0,8,8,8,,,,,,,,,-0.3490740740740741,0.2569444444444444,1,0,0,9.083869199996116,call1,0.1300925925925926,0.25555555555555554,1,0,0,9.488367499987362,colour1,0.30648148148148147,0.12916666666666668,1,0,0,10.429432899982203,number2,True,True,False,13,3,2019_Nov_12_1658,MA_Theta_Exp,3.0.7,61.34453730400269,
video/Training/zh_sp07_Ad_Ro_3_GlobalTheta_NoVideo.avi,globalTheta,noVideo,sp07,Ad,Ro,3,,,,,,,,0,9,9,9,,,,,,,,,-0.40555555555555556,0.3055555555555556,1,0,0,5.350876900018193,call1,-0.004629629629629629,0.2763888888888889,1,0,0,5.800110100011807,colour1,0.3439814814814815,-0.07777777777777778,1,0,0,6.260077000013553,number3,True,False,True,13,3,2019_Nov_12_1658,MA_Theta_Exp,3.0.7,61.34453730400269,
video/Experiment/zh_sp01_Dr_Gr_2_GlobalTheta_NoVideo.avi,globalTheta,noVideo,sp01,Dr,Gr,2,0,5,flow/blocks/GlobalTheta_NoVideo_A.csv,,,,,,,,,0,0,0,0,0,0,0,21,-0.38333333333333336,0.3541666666666667,1,0,0,5.200134600017918,call1,0.02175925925925926,0.10416666666666667,1,0,0,5.614078900020104,colour2,0.4689814814814815,0.07222222222222222,1,0,0,6.075531300011789,number2,False,True,True,13,3,2019_Nov_12_1658,MA_Theta_Exp,3.0.7,61.34453730400269,
video/Experiment/zh_sp01_Dr_Ge_3_GlobalTheta_NoVideo.avi,globalTheta,noVideo,sp01,Dr,Ge,3,0,5,flow/blocks/GlobalTheta_NoVideo_A.csv,,,,,,,,,0,0,0,0,0,1,1,18,-0.4305555555555556,0.3194444444444444,1,0,0,5.004670299997088,call1,-0.010185185185185186,0.29583333333333334,1,0,0,5.544716800010065,colour1,0.4162037037037037,-0.11388888888888889,1,0,0,6.090604599972721,number3,False,True,True,13,3,2019_Nov_12_1658,MA_Theta_Exp,3.0.7,61.34453730400269,
video/Experiment/zh_sp01_Ad_Ge_1_GlobalTheta_NoVideo.avi,globalTheta,noVideo,sp01,Ad,Ge,1,0,5,flow/blocks/GlobalTheta_NoVideo_A.csv,,,,,,,,,0,0,0,0,0,2,2,0,-0.4083333333333333,0.35694444444444445,1,0,0,4.938203999976395,call1,0.018055555555555554,0.3277777777777778,1,0,0,5.2956217999744695,colour1,0.4203703703703704,0.30833333333333335,1,0,0,5.857673499995144,number1,True,True,True,13,3,2019_Nov_12_1658,MA_Theta_Exp,3.0.7,61.34453730400269,
video/Experiment/zh_sp01_Dr_Gr_1_GlobalTheta_NoVideo.avi,globalTheta,noVideo,sp01,Dr,Gr,1,0,5,flow/blocks/GlobalTheta_NoVideo_A.csv,,,,,,,,,0,0,0,0,0,3,3,20,-0.42268518518518516,0.32222222222222224,1,0,0,5.6378762000240386,call1,0.008333333333333333,0.14583333333333334,1,0,0,6.0531668000039645,colour2,0.4356481481481482,0.2847222222222222,1,0,0,6.504666799999541,number1,False,True,True,13,3,2019_Nov_12_1658,MA_Theta_Exp,3.0.7,61.34453730400269,
video/Experiment/zh_sp07_Dr_Gr_4_GlobalTheta_NoVideo.avi,globalTheta,noVideo,sp07,Dr,Gr,4,0,5,flow/blocks/GlobalTheta_NoVideo_A.csv,,,,,,,,,0,0,0,0,0,4,4,23,-0.3638888888888889,0.32916666666666666,1,0,0,5.130411999998614,call1,0.0,0.2875,1,0,0,5.585635499999626,colour1,0.3925925925925926,-0.05277777777777778,1,0,0,6.058197199978167,number3,False,False,False,13,3,2019_Nov_12_1658,MA_Theta_Exp,3.0.7,61.34453730400269,
video/Experiment/zh_sp01_Dr_We_2_GlobalTheta_NoVideo.avi,globalTheta,noVideo,sp01,Dr,We,2,0,5,flow/blocks/GlobalTheta_NoVideo_A.csv,,,,,,,,,0,0,0,0,0,5,5,29,-0.39490740740740743,0.3486111111111111,1,0,0,6.153939100011485,call1,0.04027777777777778,0.09027777777777778,1,0,0,6.914559600001667,colour2,0.41898148148148145,0.06527777777777778,1,0,0,8.47879359999206,number2,False,False,True,13,3,2019_Nov_12_1658,MA_Theta_Exp,3.0.7,61.34453730400269,
video/Experiment/zh_sp07_Dr_Ge_2_GlobalTheta_NoVideo.avi,globalTheta,noVideo,sp07,Dr,Ge,2,0,5,flow/blocks/GlobalTheta_NoVideo_A.csv,,,,,,,,,0,0,0,0,0,6,6,17,-0.3680555555555556,0.30972222222222223,1,0,0,10.46652260000701,call1,0.006944444444444444,0.28888888888888886,1,0,0,10.98094539999147,colour1,0.399537037037037,0.06944444444444445,1,0,0,12.100076800008537,number2,False,True,True,13,3,2019_Nov_12_1658,MA_Theta_Exp,3.0.7,61.34453730400269,
video/Experiment/zh_sp07_Dr_Ro_4_GlobalTheta_NoVideo.avi,globalTheta,noVideo,sp07,Dr,Ro,4,0,5,flow/blocks/GlobalTheta_NoVideo_A.csv,,,,,,,,,0,0,0,0,0,7,7,27,-0.3560185185185185,0.30833333333333335,1,0,0,7.396575200022198,call1,0.027777777777777776,0.2777777777777778,1,0,0,7.804662700014887,colour1,0.37175925925925923,-0.30833333333333335,1,0,0,8.42821240000194,number4,False,False,True,13,3,2019_Nov_12_1658,MA_Theta_Exp,3.0.7,61.34453730400269,
video/Experiment/zh_sp01_Ad_Ro_4_GlobalTheta_NoVideo.avi,globalTheta,noVideo,sp01,Ad,Ro,4,0,5,flow/blocks/GlobalTheta_NoVideo_A.csv,,,,,,,,,0,0,0,0,0,8,8,11,-0.3958333333333333,0.34305555555555556,1,0,0,9.635072499979287,call1,0.03981481481481482,0.3013888888888889,1,0,0,10.284999499999685,colour1,0.4064814814814815,-0.35,1,0,0,11.050245200021891,number4,True,False,True,13,3,2019_Nov_12_1658,MA_Theta_Exp,3.0.7,61.34453730400269,
video/Experiment/zh_sp01_Dr_Ro_2_GlobalTheta_NoVideo.avi,globalTheta,noVideo,sp01,Dr,Ro,2,0,5,flow/blocks/GlobalTheta_NoVideo_A.csv,,,,,,,,,0,0,0,0,0,9,9,25,-0.3476851851851852,0.32222222222222224,1,0,0,4.9883682999934535,call1,-0.02962962962962963,0.275,1,0,0,5.337937100004638,colour1,0.2916666666666667,0.09305555555555556,1,0,0,5.750848499999847,number2,False,False,True,13,3,2019_Nov_12_1658,MA_Theta_Exp,3.0.7,61.34453730400269,
video/Experiment/zh_sp01_Dr_We_1_GlobalTheta_NoVideo.avi,globalTheta,noVideo,sp01,Dr,We,1,0,5,flow/blocks/GlobalTheta_NoVideo_A.csv,,,,,,,,,0,0,0,0,0,10,10,28,-0.3726851851851852,0.125,1,0,0,7.911768699996173,call2,0.025925925925925925,0.29444444444444445,1,0,0,8.49379899998894,colour1,0.39675925925925926,0.3277777777777778,1,0,0,8.855343200004427,number1,True,False,True,13,3,2019_Nov_12_1658,MA_Theta_Exp,3.0.7,61.34453730400269,
video/Experiment/zh_sp01_Ad_Gr_1_GlobalTheta_NoVideo.avi,globalTheta,noVideo,sp01,Ad,Gr,1,0,5,flow/blocks/GlobalTheta_NoVideo_A.csv,,,,,,,,,0,0,0,0,0,11,11,4,-0.39490740740740743,0.30833333333333335,1,0,0,5.417331300006481,call1,0.014814814814814815,0.11388888888888889,1,0,0,5.982300799980294,colour2,0.3675925925925926,0.2972222222222222,1,0,0,6.79717159998836,number1,True,True,True,13,3,2019_Nov_12_1658,MA_Theta_Exp,3.0.7,61.34453730400269,
video/Experiment/zh_sp07_Ad_Ro_1_GlobalTheta_NoVideo.avi,globalTheta,noVideo,sp07,Ad,Ro,1,0,5,flow/blocks/GlobalTheta_NoVideo_A.csv,,,,,,,,,0,0,0,0,0,12,12,8,-0.4222222222222222,0.30972222222222223,1,0,0,7.366674199991394,call1,0.0875,0.10833333333333334,1,0,0,8.908939799992368,colour2,0.3939814814814815,-0.2972222222222222,1,0,0,11.78632149999612,number4,True,False,False,13,3,2019_Nov_12_1658,MA_Theta_Exp,3.0.7,61.34453730400269,
video/Experiment/zh_sp01_Ad_We_2_GlobalTheta_NoVideo.avi,globalTheta,noVideo,sp01,Ad,We,2,0,5,flow/blocks/GlobalTheta_NoVideo_A.csv,,,,,,,,,0,0,0,0,0,13,13,13,-0.3902777777777778,0.35,1,0,0,6.447187400015537,call1,0.013425925925925926,-0.30416666666666664,1,0,0,7.3339084000035655,colour4,0.44027777777777777,0.3138888888888889,1,0,0,8.344041899981676,number1,True,True,False,13,3,2019_Nov_12_1658,MA_Theta_Exp,3.0.7,61.34453730400269,
video/Experiment/zh_sp07_Dr_Ge_1_GlobalTheta_NoVideo.avi,globalTheta,noVideo,sp07,Dr,Ge,1,0,5,flow/blocks/GlobalTheta_NoVideo_A.csv,,,,,,,,,0,0,0,0,0,14,14,16,-0.3907407407407407,0.3111111111111111,1,0,0,4.986830400011968,call1,-0.007407407407407408,-0.14027777777777778,1,0,0,5.611918300011894,colour3,0.4217592592592593,0.31527777777777777,1,0,0,6.141628299985314,number1,False,False,True,13,3,2019_Nov_12_1658,MA_Theta_Exp,3.0.7,61.34453730400269,
video/Experiment/zh_sp07_Ad_Gr_2_GlobalTheta_NoVideo.avi,globalTheta,noVideo,sp07,Ad,Gr,2,0,5,flow/blocks/GlobalTheta_NoVideo_A.csv,,,,,,,,,0,0,0,0,0,15,15,5,-0.39444444444444443,0.28888888888888886,1,0,0,4.47102639998775,call1,0.010648148148148148,0.10833333333333334,1,0,0,4.927648400014732,colour2,0.37777777777777777,0.08055555555555556,1,0,0,5.3148265999916475,number2,True,True,True,13,3,2019_Nov_12_1658,MA_Theta_Exp,3.0.7,61.34453730400269,
video/Experiment/zh_sp07_Dr_We_4_GlobalTheta_NoVideo.avi,globalTheta,noVideo,sp07,Dr,We,4,0,5,flow/blocks/GlobalTheta_NoVideo_A.csv,,,,,,,,,0,0,0,0,0,16,16,31,-0.3907407407407407,0.30972222222222223,1,0,0,5.205550199985737,call1,-0.015277777777777777,0.275,1,0,0,5.594079200003762,colour1,0.39814814814814814,-0.09444444444444444,1,0,0,6.109073100000387,number3,False,False,False,13,3,2019_Nov_12_1658,MA_Theta_Exp,3.0.7,61.34453730400269,
video/Experiment/zh_sp01_Dr_Ro_1_GlobalTheta_NoVideo.avi,globalTheta,noVideo,sp01,Dr,Ro,1,0,5,flow/blocks/GlobalTheta_NoVideo_A.csv,,,,,,,,,0,0,0,0,0,17,17,24,-0.3365740740740741,0.29444444444444445,1,0,0,4.95987019999302,call1,-0.040740740740740744,0.2916666666666667,1,0,0,5.294818099995609,colour1,0.3523148148148148,0.2638888888888889,1,0,0,5.662325800018152,number1,False,False,True,13,3,2019_Nov_12_1658,MA_Theta_Exp,3.0.7,61.34453730400269,
video/Experiment/zh_sp01_Ad_Ge_3_GlobalTheta_NoVideo.avi,globalTheta,noVideo,sp01,Ad,Ge,3,0,5,flow/blocks/GlobalTheta_NoVideo_A.csv,,,,,,,,,0,0,0,0,0,18,18,2,-0.36666666666666664,0.3888888888888889,1,0,0,5.01489700001548,call1,0.025925925925925925,0.30694444444444446,1,0,0,5.380878099997062,colour1,0.43842592592592594,-0.1388888888888889,1,0,0,6.043104999989737,number3,True,True,True,13,3,2019_Nov_12_1658,MA_Theta_Exp,3.0.7,61.34453730400269,
video/Experiment/zh_sp07_Dr_Ge_4_GlobalTheta_NoVideo.avi,globalTheta,noVideo,sp07,Dr,Ge,4,0,5,flow/blocks/GlobalTheta_NoVideo_A.csv,,,,,,,,,0,0,0,0,0,19,19,19,-0.3902777777777778,0.2916666666666667,1,0,0,4.71197299999767,call1,0.03148148148148148,0.28055555555555556,1,0,0,5.1498220000066794,colour1,0.43425925925925923,-0.275,1,0,0,5.85549680000986,number4,False,True,True,13,3,2019_Nov_12_1658,MA_Theta_Exp,3.0.7,61.34453730400269,
video/Experiment/zh_sp01_Dr_Ro_3_GlobalTheta_NoVideo.avi,globalTheta,noVideo,sp01,Dr,Ro,3,0,5,flow/blocks/GlobalTheta_NoVideo_A.csv,,,,,,,,,0,0,0,0,0,20,20,26,-0.36666666666666664,-0.26666666666666666,1,0,0,6.750768900004914,call4,0.023148148148148147,0.30694444444444446,1,0,0,7.4644181999901775,colour1,0.45231481481481484,-0.12222222222222222,1,0,0,8.004390299989609,number3,False,False,True,13,3,2019_Nov_12_1658,MA_Theta_Exp,3.0.7,61.34453730400269,
video/Experiment/zh_sp07_Dr_We_3_GlobalTheta_NoVideo.avi,globalTheta,noVideo,sp07,Dr,We,3,0,5,flow/blocks/GlobalTheta_NoVideo_A.csv,,,,,,,,,0,0,0,0,0,21,21,30,-0.3763888888888889,0.09861111111111111,1,0,0,5.725440600013826,call2,0.01898148148148148,0.31527777777777777,1,0,0,6.153411000006599,colour1,0.36064814814814816,-0.1,1,0,0,6.733648399997037,number3,True,False,True,13,3,2019_Nov_12_1658,MA_Theta_Exp,3.0.7,61.34453730400269,
video/Experiment/zh_sp07_Ad_We_4_GlobalTheta_NoVideo.avi,globalTheta,noVideo,sp07,Ad,We,4,0,5,flow/blocks/GlobalTheta_NoVideo_A.csv,,,,,,,,,0,0,0,0,0,22,22,15,-0.36435185185185187,-0.08611111111111111,1,0,0,5.853578100010054,call3,0.00787037037037037,0.2986111111111111,1,0,0,6.38069180000457,colour1,0.3537037037037037,-0.3111111111111111,1,0,0,6.927036800014321,number4,False,False,True,13,3,2019_Nov_12_1658,MA_Theta_Exp,3.0.7,61.34453730400269,
video/Experiment/zh_sp01_Ad_Ge_2_GlobalTheta_NoVideo.avi,globalTheta,noVideo,sp01,Ad,Ge,2,0,5,flow/blocks/GlobalTheta_NoVideo_A.csv,,,,,,,,,0,0,0,0,0,23,23,1,-0.41712962962962963,0.30416666666666664,1,0,0,7.487772899999982,call1,0.037037037037037035,0.30277777777777776,1,0,0,7.841667699976824,colour1,0.3939814814814815,0.125,1,0,0,8.259111699997447,number2,True,True,True,13,3,2019_Nov_12_1658,MA_Theta_Exp,3.0.7,61.34453730400269,
video/Experiment/zh_sp07_Ad_Ro_3_GlobalTheta_NoVideo.avi,globalTheta,noVideo,sp07,Ad,Ro,3,0,5,flow/blocks/GlobalTheta_NoVideo_A.csv,,,,,,,,,0,0,0,0,0,24,24,10,-0.42083333333333334,-0.2625,1,0,0,6.4250052999996115,call4,0.003703703703703704,0.3402777777777778,1,0,0,7.025001100002555,colour1,0.399537037037037,-0.15416666666666667,1,0,0,7.514976000005845,number3,False,False,True,13,3,2019_Nov_12_1658,MA_Theta_Exp,3.0.7,61.34453730400269,
video/Experiment/zh_sp07_Ad_Gr_4_GlobalTheta_NoVideo.avi,globalTheta,noVideo,sp07,Ad,Gr,4,0,5,flow/blocks/GlobalTheta_NoVideo_A.csv,,,,,,,,,0,0,0,0,0,25,25,7,-0.4527777777777778,-0.2986111111111111,1,0,0,5.315916499996092,call4,0.017592592592592594,0.2833333333333333,1,0,0,6.01740919999429,colour1,0.3912037037037037,-0.36944444444444446,1,0,0,6.589110300003085,number4,False,False,True,13,3,2019_Nov_12_1658,MA_Theta_Exp,3.0.7,61.34453730400269,
video/Experiment/zh_sp07_Ad_Ge_4_GlobalTheta_NoVideo.avi,globalTheta,noVideo,sp07,Ad,Ge,4,0,5,flow/blocks/GlobalTheta_NoVideo_A.csv,,,,,,,,,0,0,0,0,0,26,26,3,-0.3819444444444444,0.2875,1,0,0,9.011094799992861,call1,0.06759259259259259,0.3277777777777778,1,0,0,9.434597999992548,colour1,0.3662037037037037,-0.2972222222222222,1,0,0,10.118249300023308,number4,True,True,True,13,3,2019_Nov_12_1658,MA_Theta_Exp,3.0.7,61.34453730400269,
video/Experiment/zh_sp07_Ad_Gr_3_GlobalTheta_NoVideo.avi,globalTheta,noVideo,sp07,Ad,Gr,3,0,5,flow/blocks/GlobalTheta_NoVideo_A.csv,,,,,,,,,0,0,0,0,0,27,27,6,-0.38657407407407407,-0.32222222222222224,1,0,0,6.9396979000011925,call4,-0.02361111111111111,0.3,1,0,0,7.757967500016093,colour1,0.4013888888888889,-0.10138888888888889,1,0,0,8.327786700014258,number3,False,False,True,13,3,2019_Nov_12_1658,MA_Theta_Exp,3.0.7,61.34453730400269,
video/Experiment/zh_sp07_Ad_We_1_GlobalTheta_NoVideo.avi,globalTheta,noVideo,sp07,Ad,We,1,0,5,flow/blocks/GlobalTheta_NoVideo_A.csv,,,,,,,,,0,0,0,0,0,28,28,12,-0.43472222222222223,0.3013888888888889,1,0,0,4.704689900012454,call1,-0.42083333333333334,-0.26944444444444443,1,0,0,6.142954600014491,colour1,0.41203703703703703,0.29583333333333334,1,0,0,8.257980900001712,number1,True,False,True,13,3,2019_Nov_12_1658,MA_Theta_Exp,3.0.7,61.34453730400269,
video/Experiment/zh_sp07_Ad_Ro_2_GlobalTheta_NoVideo.avi,globalTheta,noVideo,sp07,Ad,Ro,2,0,5,flow/blocks/GlobalTheta_NoVideo_A.csv,,,,,,,,,0,0,0,0,0,29,29,9,-0.36574074074074076,0.29444444444444445,1,0,0,5.12082989999908,call1,0.024537037037037038,0.29305555555555557,1,0,0,5.4945964999787975,colour1,0.3578703703703704,0.09861111111111111,1,0,0,6.2574471999832895,number2,True,False,True,13,3,2019_Nov_12_1658,MA_Theta_Exp,3.0.7,61.34453730400269,
video/Experiment/zh_sp01_Dr_Gr_3_GlobalTheta_NoVideo.avi,globalTheta,noVideo,sp01,Dr,Gr,3,0,5,flow/blocks/GlobalTheta_NoVideo_A.csv,,,,,,,,,0,0,0,0,0,30,30,22,-0.3625,0.3388888888888889,1,0,0,4.822572100005345,call1,0.008333333333333333,0.3236111111111111,1,0,0,5.243440699996427,colour1,0.387037037037037,-0.10833333333333334,1,0,0,5.798241499986034,number3,False,False,True,13,3,2019_Nov_12_1658,MA_Theta_Exp,3.0.7,61.34453730400269,
video/Experiment/zh_sp01_Ad_We_3_GlobalTheta_NoVideo.avi,globalTheta,noVideo,sp01,Ad,We,3,0,5,flow/blocks/GlobalTheta_NoVideo_A.csv,,,,,,,,,0,0,0,0,0,31,31,14,-0.4060185185185185,0.2916666666666667,1,0,0,7.080633300007321,call1,0.04259259259259259,0.29444444444444445,1,0,0,7.726848999998765,colour1,0.4050925925925926,-0.1125,1,0,0,8.1805161999946,number3,True,False,True,13,3,2019_Nov_12_1658,MA_Theta_Exp,3.0.7,61.34453730400269,
video/Experiment/zh_sp07_Dr_We_1_NVocInAudio_GlobalThetaInVideo.avi,vocoded,plusVideo,sp07,Dr,We,1,1,1,flow/blocks/NVocInAudio_GlobalThetaInVideo_A.csv,,,,,,,,,0,1,1,1,0,0,0,28,-0.3902777777777778,-0.3388888888888889,1,0,0,4.9021517999935895,call4,-0.034722222222222224,-0.31805555555555554,1,0,0,5.349700699996902,colour4,0.4203703703703704,0.31805555555555554,1,0,0,5.968219400005182,number1,False,True,True,13,3,2019_Nov_12_1658,MA_Theta_Exp,3.0.7,61.34453730400269,
video/Experiment/zh_sp07_Ad_Ge_1_NVocInAudio_GlobalThetaInVideo.avi,vocoded,plusVideo,sp07,Ad,Ge,1,1,1,flow/blocks/NVocInAudio_GlobalThetaInVideo_A.csv,,,,,,,,,0,1,1,1,0,1,1,0,-0.4444444444444444,0.0763888888888889,1,0,0,7.159200499998406,call2,-0.06851851851851852,0.32916666666666666,1,0,0,7.650426700012758,colour1,0.38564814814814813,0.3055555555555556,1,0,0,8.144905499997549,number1,False,True,True,13,3,2019_Nov_12_1658,MA_Theta_Exp,3.0.7,61.34453730400269,
video/Experiment/zh_sp07_Ad_Gr_3_NVocInAudio_GlobalThetaInVideo.avi,vocoded,plusVideo,sp07,Ad,Gr,3,1,1,flow/blocks/NVocInAudio_GlobalThetaInVideo_A.csv,,,,,,,,,0,1,1,1,0,2,2,6,-0.43796296296296294,0.32083333333333336,1,0,0,4.475268400012283,call1,-0.004629629629629629,0.11666666666666667,1,0,0,4.952829299989389,colour2,0.36342592592592593,-0.1,1,0,0,5.418385099997977,number3,True,True,True,13,3,2019_Nov_12_1658,MA_Theta_Exp,3.0.7,61.34453730400269,
video/Experiment/zh_sp01_Dr_We_2_NVocInAudio_GlobalThetaInVideo.avi,vocoded,plusVideo,sp01,Dr,We,2,1,1,flow/blocks/NVocInAudio_GlobalThetaInVideo_A.csv,,,,,,,,,0,1,1,1,0,3,3,29,-0.35833333333333334,-0.3013888888888889,1,0,0,6.386363999976311,call4,0.008333333333333333,-0.2513888888888889,1,0,0,7.615646799997194,colour4,0.40370370370370373,0.07777777777777778,1,0,0,8.165979799989145,number2,False,True,True,13,3,2019_Nov_12_1658,MA_Theta_Exp,3.0.7,61.34453730400269,
video/Experiment/zh_sp07_Ad_Ro_3_NVocInAudio_GlobalThetaInVideo.avi,vocoded,plusVideo,sp07,Ad,Ro,3,1,1,flow/blocks/NVocInAudio_GlobalThetaInVideo_A.csv,,,,,,,,,0,1,1,1,0,4,4,10,-0.43472222222222223,0.32222222222222224,1,0,0,4.414635099994484,call1,-0.032407407407407406,-0.12222222222222222,1,0,0,5.089449299994158,colour3,0.43287037037037035,-0.11388888888888889,1,0,0,5.650001899979543,number3,True,True,True,13,3,2019_Nov_12_1658,MA_Theta_Exp,3.0.7,61.34453730400269,
video/Experiment/zh_sp07_Dr_Ge_3_NVocInAudio_GlobalThetaInVideo.avi,vocoded,plusVideo,sp07,Dr,Ge,3,1,1,flow/blocks/NVocInAudio_GlobalThetaInVideo_A.csv,,,,,,,,,0,1,1,1,0,5,5,18,-0.38472222222222224,0.11388888888888889,1,0,0,5.341702100005932,call2,-0.001851851851851852,0.2791666666666667,1,0,0,5.750024499982828,colour1,0.30648148148148147,-0.0625,1,0,0,6.1361729000054765,number3,True,True,True,13,3,2019_Nov_12_1658,MA_Theta_Exp,3.0.7,61.34453730400269,
video/Experiment/zh_sp01_Dr_Ge_1_NVocInAudio_GlobalThetaInVideo.avi,vocoded,plusVideo,sp01,Dr,Ge,1,1,1,flow/blocks/NVocInAudio_GlobalThetaInVideo_A.csv,,,,,,,,,0,1,1,1,0,6,6,16,-0.3819444444444444,-0.2916666666666667,1,0,0,5.312803000007989,call4,0.043055555555555555,0.3,1,0,0,6.485548099997686,colour1,0.4300925925925926,0.32083333333333336,1,0,0,7.0952706999960355,number1,False,True,True,13,3,2019_Nov_12_1658,MA_Theta_Exp,3.0.7,61.34453730400269,
video/Experiment/zh_sp01_Dr_Gr_1_NVocInAudio_GlobalThetaInVideo.avi,vocoded,plusVideo,sp01,Dr,Gr,1,1,1,flow/blocks/NVocInAudio_GlobalThetaInVideo_A.csv,,,,,,,,,0,1,1,1,0,7,7,20,-0.3837962962962963,0.1,1,0,0,5.14665359997889,call2,0.01898148148148148,0.12638888888888888,1,0,0,5.550647600000957,colour2,0.32175925925925924,0.26805555555555555,1,0,0,5.931935200002044,number1,True,True,True,13,3,2019_Nov_12_1658,MA_Theta_Exp,3.0.7,61.34453730400269,
video/Experiment/zh_sp01_Ad_We_2_NVocInAudio_GlobalThetaInVideo.avi,vocoded,plusVideo,sp01,Ad,We,2,1,1,flow/blocks/NVocInAudio_GlobalThetaInVideo_A.csv,,,,,,,,,0,1,1,1,0,8,8,13,-0.4185185185185185,0.3138888888888889,1,0,0,4.954680700000608,call1,-0.02962962962962963,-0.3402777777777778,1,0,0,5.5982128999894485,colour4,0.3925925925925926,0.08055555555555556,1,0,0,6.0981651000038255,number2,True,True,True,13,3,2019_Nov_12_1658,MA_Theta_Exp,3.0.7,61.34453730400269,
video/Experiment/zh_sp01_Ad_We_3_NVocInAudio_GlobalThetaInVideo.avi,vocoded,plusVideo,sp01,Ad,We,3,1,1,flow/blocks/NVocInAudio_GlobalThetaInVideo_A.csv,,,,,,,,,0,1,1,1,0,9,9,14,-0.37546296296296294,0.2861111111111111,1,0,0,4.961022800009232,call1,-0.01574074074074074,-0.3402777777777778,1,0,0,5.513013599993428,colour4,0.4078703703703704,-0.1111111111111111,1,0,0,5.988392500003101,number3,True,True,True,13,3,2019_Nov_12_1658,MA_Theta_Exp,3.0.7,61.34453730400269,
video/Experiment/zh_sp01_Ad_Ge_2_NVocInAudio_GlobalThetaInVideo.avi,vocoded,plusVideo,sp01,Ad,Ge,2,1,1,flow/blocks/NVocInAudio_GlobalThetaInVideo_A.csv,,,,,,,,,0,1,1,1,0,10,10,1,-0.4,0.30277777777777776,1,0,0,5.1481563999841455,call1,0.019444444444444445,0.30416666666666664,1,0,0,5.566827399976319,colour1,0.3925925925925926,0.07916666666666666,1,0,0,6.092042400006903,number2,True,True,True,13,3,2019_Nov_12_1658,MA_Theta_Exp,3.0.7,61.34453730400269,
video/Experiment/zh_sp07_Ad_Ro_1_NVocInAudio_GlobalThetaInVideo.avi,vocoded,plusVideo,sp07,Ad,Ro,1,1,1,flow/blocks/NVocInAudio_GlobalThetaInVideo_A.csv,,,,,,,,,0,1,1,1,0,11,11,8,-0.39490740740740743,0.25277777777777777,1,0,0,4.414135200000601,call1,0.013425925925925926,-0.1125,1,0,0,7.403173800004879,colour3,0.4222222222222222,0.28194444444444444,1,0,0,7.944132700009504,number1,True,True,True,13,3,2019_Nov_12_1658,MA_Theta_Exp,3.0.7,61.34453730400269,
video/Experiment/zh_sp01_Dr_We_4_NVocInAudio_GlobalThetaInVideo.avi,vocoded,plusVideo,sp01,Dr,We,4,1,1,flow/blocks/NVocInAudio_GlobalThetaInVideo_A.csv,,,,,,,,,0,1,1,1,0,12,12,31,-0.3726851851851852,0.06666666666666667,1,0,0,6.702072500018403,call2,0.015277777777777777,-0.3416666666666667,1,0,0,7.765667600004235,colour4,0.4356481481481482,-0.3125,1,0,0,8.301066899992293,number4,True,True,True,13,3,2019_Nov_12_1658,MA_Theta_Exp,3.0.7,61.34453730400269,
video/Experiment/zh_sp07_Ad_Ro_2_NVocInAudio_GlobalThetaInVideo.avi,vocoded,plusVideo,sp07,Ad,Ro,2,1,1,flow/blocks/NVocInAudio_GlobalThetaInVideo_A.csv,,,,,,,,,0,1,1,1,0,13,13,9,-0.3861111111111111,0.09861111111111111,1,0,0,7.233988300024066,call2,0.0375,-0.2847222222222222,1,0,0,10.112835499981884,colour4,0.3773148148148148,0.09166666666666666,1,0,0,10.912780699989526,number2,False,False,True,13,3,2019_Nov_12_1658,MA_Theta_Exp,3.0.7,61.34453730400269,
video/Experiment/zh_sp07_Dr_Ro_4_NVocInAudio_GlobalThetaInVideo.avi,vocoded,plusVideo,sp07,Dr,Ro,4,1,1,flow/blocks/NVocInAudio_GlobalThetaInVideo_A.csv,,,,,,,,,0,1,1,1,0,14,14,27,-0.3449074074074074,0.06388888888888888,1,0,0,8.11124810000183,call2,-0.010185185185185186,-0.07361111111111111,1,0,0,8.609018699993612,colour3,0.4162037037037037,-0.2625,1,0,0,9.11626109998906,number4,True,True,True,13,3,2019_Nov_12_1658,MA_Theta_Exp,3.0.7,61.34453730400269,
video/Experiment/zh_sp01_Dr_Ro_2_NVocInAudio_GlobalThetaInVideo.avi,vocoded,plusVideo,sp01,Dr,Ro,2,1,1,flow/blocks/NVocInAudio_GlobalThetaInVideo_A.csv,,,,,,,,,0,1,1,1,0,15,15,25,-0.3763888888888889,0.0763888888888889,1,0,0,8.169534799992107,call2,0.00787037037037037,-0.1125,1,0,0,8.62217889999738,colour3,0.3314814814814815,0.0625,1,0,0,9.028458799992222,number2,True,True,True,13,3,2019_Nov_12_1658,MA_Theta_Exp,3.0.7,61.34453730400269,
video/Experiment/zh_sp01_Ad_We_4_NVocInAudio_GlobalThetaInVideo.avi,vocoded,plusVideo,sp01,Ad,We,4,1,1,flow/blocks/NVocInAudio_GlobalThetaInVideo_A.csv,,,,,,,,,0,1,1,1,0,16,16,15,-0.3888888888888889,0.33194444444444443,1,0,0,4.762780600023689,call1,-0.010185185185185186,-0.3472222222222222,1,0,0,5.403646900027525,colour4,0.38425925925925924,-0.30972222222222223,1,0,0,5.86626919999253,number4,True,True,True,13,3,2019_Nov_12_1658,MA_Theta_Exp,3.0.7,61.34453730400269,
video/Experiment/zh_sp07_Dr_We_3_NVocInAudio_GlobalThetaInVideo.avi,vocoded,plusVideo,sp07,Dr,We,3,1,1,flow/blocks/NVocInAudio_GlobalThetaInVideo_A.csv,,,,,,,,,0,1,1,1,0,17,17,30,-0.3958333333333333,0.09722222222222222,1,0,0,4.720001699985005,call2,-0.02962962962962963,-0.3333333333333333,1,0,0,5.349116600002162,colour4,0.4134259259259259,-0.10972222222222222,1,0,0,6.020999700005632,number3,True,True,True,13,3,2019_Nov_12_1658,MA_Theta_Exp,3.0.7,61.34453730400269,
video/Experiment/zh_sp07_Ad_Gr_1_NVocInAudio_GlobalThetaInVideo.avi,vocoded,plusVideo,sp07,Ad,Gr,1,1,1,flow/blocks/NVocInAudio_GlobalThetaInVideo_A.csv,,,,,,,,,0,1,1,1,0,18,18,4,-0.4388888888888889,0.25833333333333336,1,0,0,4.53024490000098,call1,0.029166666666666667,0.09027777777777778,1,0,0,4.963842099998146,colour2,0.3939814814814815,0.2652777777777778,1,0,0,5.35441329999594,number1,True,True,True,13,3,2019_Nov_12_1658,MA_Theta_Exp,3.0.7,61.34453730400269,
video/Experiment/zh_sp01_Dr_Gr_4_NVocInAudio_GlobalThetaInVideo.avi,vocoded,plusVideo,sp01,Dr,Gr,4,1,1,flow/blocks/NVocInAudio_GlobalThetaInVideo_A.csv,,,,,,,,,0,1,1,1,0,19,19,23,-0.412962962962963,0.14583333333333334,1,0,0,5.060587999993004,call2,-0.04351851851851852,0.09722222222222222,1,0,0,5.497321799979545,colour2,0.43703703703703706,-0.3125,1,0,0,6.016200399986701,number4,True,True,True,13,3,2019_Nov_12_1658,MA_Theta_Exp,3.0.7,61.34453730400269,
video/Experiment/zh_sp01_Dr_Ge_2_NVocInAudio_GlobalThetaInVideo.avi,vocoded,plusVideo,sp01,Dr,Ge,2,1,1,flow/blocks/NVocInAudio_GlobalThetaInVideo_A.csv,,,,,,,,,0,1,1,1,0,20,20,17,-0.39444444444444443,0.14722222222222223,1,0,0,5.1794409999856725,call2,-0.02962962962962963,0.24166666666666667,1,0,0,6.3348363999975845,colour1,0.4064814814814815,0.06111111111111111,1,0,0,6.949295400001574,number2,True,True,True,13,3,2019_Nov_12_1658,MA_Theta_Exp,3.0.7,61.34453730400269,
video/Experiment/zh_sp07_Ad_Ro_4_NVocInAudio_GlobalThetaInVideo.avi,vocoded,plusVideo,sp07,Ad,Ro,4,1,1,flow/blocks/NVocInAudio_GlobalThetaInVideo_A.csv,,,,,,,,,0,1,1,1,0,21,21,11,-0.3574074074074074,0.25416666666666665,1,0,0,4.612988399981987,call1,0.04953703703703704,-0.12222222222222222,1,0,0,5.099156699987361,colour3,0.3902777777777778,-0.3111111111111111,1,0,0,5.721380900009535,number4,True,True,True,13,3,2019_Nov_12_1658,MA_Theta_Exp,3.0.7,61.34453730400269,
video/Experiment/zh_sp01_Dr_Gr_2_NVocInAudio_GlobalThetaInVideo.avi,vocoded,plusVideo,sp01,Dr,Gr,2,1,1,flow/blocks/NVocInAudio_GlobalThetaInVideo_A.csv,,,,,,,,,0,1,1,1,0,22,22,21,-0.4236111111111111,0.10416666666666667,1,0,0,5.044109899987234,call2,-0.01574074074074074,0.1,1,0,0,5.897957499983022,colour2,0.4773148148148148,0.10972222222222222,1,0,0,6.370103099994594,number2,True,True,True,13,3,2019_Nov_12_1658,MA_Theta_Exp,3.0.7,61.34453730400269,
video/Experiment/zh_sp01_Ad_Ge_4_NVocInAudio_GlobalThetaInVideo.avi,vocoded,plusVideo,sp01,Ad,Ge,4,1,1,flow/blocks/NVocInAudio_GlobalThetaInVideo_A.csv,,,,,,,,,0,1,1,1,0,23,23,3,-0.38935185185185184,0.30833333333333335,1,0,0,4.95426260001841,call1,-0.033796296296296297,0.30972222222222223,1,0,0,5.979354199982481,colour1,0.4300925925925926,-0.3138888888888889,1,0,0,6.748921499995049,number4,True,True,True,13,3,2019_Nov_12_1658,MA_Theta_Exp,3.0.7,61.34453730400269,
video/Experiment/zh_sp07_Ad_Ge_3_NVocInAudio_GlobalThetaInVideo.avi,vocoded,plusVideo,sp07,Ad,Ge,3,1,1,flow/blocks/NVocInAudio_GlobalThetaInVideo_A.csv,,,,,,,,,0,1,1,1,0,24,24,2,-0.3962962962962963,0.2986111111111111,1,0,0,4.475576400000136,call1,-0.018518518518518517,0.2972222222222222,1,0,0,4.89437180000823,colour1,0.38333333333333336,-0.059722222222222225,1,0,0,6.106215999985579,number3,True,True,True,13,3,2019_Nov_12_1658,MA_Theta_Exp,3.0.7,61.34453730400269,
video/Experiment/zh_sp07_Dr_Ro_1_NVocInAudio_GlobalThetaInVideo.avi,vocoded,plusVideo,sp07,Dr,Ro,1,1,1,flow/blocks/NVocInAudio_GlobalThetaInVideo_A.csv,,,,,,,,,0,1,1,1,0,25,25,24,-0.4046296296296296,0.08611111111111111,1,0,0,5.1283615000138525,call2,0.003703703703703704,-0.10972222222222222,1,0,0,6.533972600009292,colour3,0.45231481481481484,0.2916666666666667,1,0,0,7.124056200002087,number1,True,True,True,13,3,2019_Nov_12_1658,MA_Theta_Exp,3.0.7,61.34453730400269,
video/Experiment/zh_sp01_Ad_Gr_4_NVocInAudio_GlobalThetaInVideo.avi,vocoded,plusVideo,sp01,Ad,Gr,4,1,1,flow/blocks/NVocInAudio_GlobalThetaInVideo_A.csv,,,,,,,,,0,1,1,1,0,26,26,7,-0.3472222222222222,0.3263888888888889,1,0,0,5.049314400006551,call1,0.024537037037037038,0.08194444444444444,1,0,0,5.553809500008356,colour2,0.3578703703703704,-0.30277777777777776,1,0,0,6.183390299993334,number4,True,True,True,13,3,2019_Nov_12_1658,MA_Theta_Exp,3.0.7,61.34453730400269,
video/Experiment/zh_sp01_Dr_Ro_3_NVocInAudio_GlobalThetaInVideo.avi,vocoded,plusVideo,sp01,Dr,Ro,3,1,1,flow/blocks/NVocInAudio_GlobalThetaInVideo_A.csv,,,,,,,,,0,1,1,1,0,27,27,26,-0.41435185185185186,0.1375,1,0,0,4.885042099980637,call2,0.009722222222222222,-0.1,1,0,0,6.093550399993546,colour3,0.38287037037037036,-0.10694444444444444,1,0,0,6.970005699986359,number3,True,True,True,13,3,2019_Nov_12_1658,MA_Theta_Exp,3.0.7,61.34453730400269,
video/Experiment/zh_sp07_Dr_Ge_4_NVocInAudio_GlobalThetaInVideo.avi,vocoded,plusVideo,sp07,Dr,Ge,4,1,1,flow/blocks/NVocInAudio_GlobalThetaInVideo_A.csv,,,,,,,,,0,1,1,1,0,28,28,19,-0.3458333333333333,0.07222222222222222,1,0,0,4.441794700018363,call2,-0.020833333333333332,0.2791666666666667,1,0,0,4.889961899985792,colour1,0.3731481481481482,-0.2916666666666667,1,0,0,5.5006437999836635,number4,True,True,True,13,3,2019_Nov_12_1658,MA_Theta_Exp,3.0.7,61.34453730400269,
video/Experiment/zh_sp07_Dr_Gr_3_NVocInAudio_GlobalThetaInVideo.avi,vocoded,plusVideo,sp07,Dr,Gr,3,1,1,flow/blocks/NVocInAudio_GlobalThetaInVideo_A.csv,,,,,,,,,0,1,1,1,0,29,29,22,-0.3625,0.13333333333333333,1,0,0,4.516354699997464,call2,0.03425925925925926,0.10555555555555556,1,0,0,4.919872400001623,colour2,0.3592592592592593,-0.09166666666666666,1,0,0,5.3538164000201505,number3,True,True,True,13,3,2019_Nov_12_1658,MA_Theta_Exp,3.0.7,61.34453730400269,
video/Experiment/zh_sp07_Ad_We_1_NVocInAudio_GlobalThetaInVideo.avi,vocoded,plusVideo,sp07,Ad,We,1,1,1,flow/blocks/NVocInAudio_GlobalThetaInVideo_A.csv,,,,,,,,,0,1,1,1,0,30,30,12,-0.3699074074074074,0.2708333333333333,1,0,0,4.342262899997877,call1,-0.02546296296296296,-0.31527777777777777,1,0,0,4.946006200014381,colour4,0.42314814814814816,0.30972222222222223,1,0,0,5.710522900015349,number1,True,True,True,13,3,2019_Nov_12_1658,MA_Theta_Exp,3.0.7,61.34453730400269,
video/Experiment/zh_sp01_Ad_Gr_2_NVocInAudio_GlobalThetaInVideo.avi,vocoded,plusVideo,sp01,Ad,Gr,2,1,1,flow/blocks/NVocInAudio_GlobalThetaInVideo_A.csv,,,,,,,,,0,1,1,1,0,31,31,5,-0.37777777777777777,0.2791666666666667,1,0,0,5.130364099983126,call1,0.005555555555555556,0.14027777777777778,1,0,0,5.573520700010704,colour2,0.4078703703703704,0.11388888888888889,1,0,0,6.0093277000123635,number2,True,True,True,13,3,2019_Nov_12_1658,MA_Theta_Exp,3.0.7,61.34453730400269,
video/Experiment/zh_sp07_Dr_Gr_1_NoThetaInAudio_NoVideo.avi,noTheta,noVideo,sp07,Dr,Gr,1,2,4,flow/blocks/NoThetaInAudio_NoVideo_A.csv,,,,,,,,,0,2,2,2,0,0,0,20,-0.32685185185185184,0.29444444444444445,1,0,0,4.5161530999757815,call1,-0.0032407407407407406,0.10833333333333334,1,0,0,4.91498890001094,colour2,0.34814814814814815,0.29583333333333334,1,0,0,5.326170000014827,number1,False,True,True,13,3,2019_Nov_12_1658,MA_Theta_Exp,3.0.7,61.34453730400269,
video/Experiment/zh_sp07_Ad_Gr_1_NoThetaInAudio_NoVideo.avi,noTheta,noVideo,sp07,Ad,Gr,1,2,4,flow/blocks/NoThetaInAudio_NoVideo_A.csv,,,,,,,,,0,2,2,2,0,1,1,4,-0.36666666666666664,0.31527777777777777,1,0,0,4.4776711000013165,call1,0.000925925925925926,0.125,1,0,0,5.082457399985287,colour2,0.4217592592592593,0.28055555555555556,1,0,0,5.580231800006004,number1,True,True,True,13,3,2019_Nov_12_1658,MA_Theta_Exp,3.0.7,61.34453730400269,
video/Experiment/zh_sp01_Dr_Ro_2_NoThetaInAudio_NoVideo.avi,noTheta,noVideo,sp01,Dr,Ro,2,2,4,flow/blocks/NoThetaInAudio_NoVideo_A.csv,,,,,,,,,0,2,2,2,0,2,2,25,-0.37083333333333335,0.29583333333333334,1,0,0,5.434706700005336,call1,-0.011111111111111112,0.31666666666666665,1,0,0,5.809499800001504,colour1,0.37083333333333335,0.13333333333333333,1,0,0,6.268538800009992,number2,False,False,True,13,3,2019_Nov_12_1658,MA_Theta_Exp,3.0.7,61.34453730400269,
video/Experiment/zh_sp01_Ad_Ro_4_NoThetaInAudio_NoVideo.avi,noTheta,noVideo,sp01,Ad,Ro,4,2,4,flow/blocks/NoThetaInAudio_NoVideo_A.csv,,,,,,,,,0,2,2,2,0,3,3,11,-0.36944444444444446,0.28055555555555556,1,0,0,5.041908099985449,call1,-0.031018518518518518,0.28888888888888886,1,0,0,5.425179600017145,colour1,0.3787037037037037,-0.29583333333333334,1,0,0,6.106027300003916,number4,True,False,True,13,3,2019_Nov_12_1658,MA_Theta_Exp,3.0.7,61.34453730400269,
video/Experiment/zh_sp01_Dr_We_3_NoThetaInAudio_NoVideo.avi,noTheta,noVideo,sp01,Dr,We,3,2,4,flow/blocks/NoThetaInAudio_NoVideo_A.csv,,,,,,,,,0,2,2,2,0,4,4,30,-0.39305555555555555,0.1361111111111111,1,0,0,4.929862999997567,call2,0.017592592592592594,-0.26805555555555555,1,0,0,5.439391299994895,colour4,0.37037037037037035,-0.08472222222222223,1,0,0,5.901283999992302,number3,True,True,True,13,3,2019_Nov_12_1658,MA_Theta_Exp,3.0.7,61.34453730400269,
video/Experiment/zh_sp01_Ad_We_2_NoThetaInAudio_NoVideo.avi,noTheta,noVideo,sp01,Ad,We,2,2,4,flow/blocks/NoThetaInAudio_NoVideo_A.csv,,,,,,,,,0,2,2,2,0,5,5,13,-0.37083333333333335,0.30972222222222223,1,0,0,4.9929607000085525,call1,-0.0125,0.0763888888888889,1,0,0,6.116486000013538,colour2,0.40370370370370373,0.09305555555555556,1,0,0,6.535149499977706,number2,True,False,True,13,3,2019_Nov_12_1658,MA_Theta_Exp,3.0.7,61.34453730400269,
video/Experiment/zh_sp07_Dr_Ro_1_NoThetaInAudio_NoVideo.avi,noTheta,noVideo,sp07,Dr,Ro,1,2,4,flow/blocks/NoThetaInAudio_NoVideo_A.csv,,,,,,,,,0,2,2,2,0,6,6,24,-0.33240740740740743,0.275,1,0,0,4.309025099995779,call1,0.017592592592592594,-0.08194444444444444,1,0,0,4.7929585999809206,colour3,0.4689814814814815,0.32083333333333336,1,0,0,5.271800299989991,number1,False,True,True,13,3,2019_Nov_12_1658,MA_Theta_Exp,3.0.7,61.34453730400269,
video/Experiment/zh_sp01_Ad_We_4_NoThetaInAudio_NoVideo.avi,noTheta,noVideo,sp01,Ad,We,4,2,4,flow/blocks/NoThetaInAudio_NoVideo_A.csv,,,,,,,,,0,2,2,2,0,7,7,15,-0.3861111111111111,0.30277777777777776,1,0,0,4.946910500002559,call1,-0.011574074074074073,-0.31666666666666665,1,0,0,5.54837370000314,colour4,0.4009259259259259,-0.2833333333333333,1,0,0,6.102531000011368,number4,True,True,True,13,3,2019_Nov_12_1658,MA_Theta_Exp,3.0.7,61.34453730400269,
video/Experiment/zh_sp07_Ad_Gr_2_NoThetaInAudio_NoVideo.avi,noTheta,noVideo,sp07,Ad,Gr,2,2,4,flow/blocks/NoThetaInAudio_NoVideo_A.csv,,,,,,,,,0,2,2,2,0,8,8,5,-0.3921296296296296,0.2847222222222222,1,0,0,4.449603399989428,call1,-0.007407407407407408,0.10277777777777777,1,0,0,4.862474199995631,colour2,0.4148148148148148,0.10416666666666667,1,0,0,5.274797899997793,number2,True,True,True,13,3,2019_Nov_12_1658,MA_Theta_Exp,3.0.7,61.34453730400269,
video/Experiment/zh_sp01_Dr_Ro_4_NoThetaInAudio_NoVideo.avi,noTheta,noVideo,sp01,Dr,Ro,4,2,4,flow/blocks/NoThetaInAudio_NoVideo_A.csv,,,,,,,,,0,2,2,2,0,9,9,27,-0.3541666666666667,0.11388888888888889,1,0,0,4.939124000025913,call2,0.009259259259259259,0.08333333333333333,1,0,0,5.303204099996947,colour2,0.3675925925925926,-0.2791666666666667,1,0,0,6.087177300010808,number4,True,False,True,13,3,2019_Nov_12_1658,MA_Theta_Exp,3.0.7,61.34453730400269,
video/Experiment/zh_sp07_Dr_Gr_2_NoThetaInAudio_NoVideo.avi,noTheta,noVideo,sp07,Dr,Gr,2,2,4,flow/blocks/NoThetaInAudio_NoVideo_A.csv,,,,,,,,,0,2,2,2,0,10,10,21,-0.39305555555555555,0.10972222222222222,1,0,0,4.635378200007835,call2,0.025,0.09722222222222222,1,0,0,5.019364200008567,colour2,0.3384259259259259,0.10277777777777777,1,0,0,5.447769899998093,number2,True,True,True,13,3,2019_Nov_12_1658,MA_Theta_Exp,3.0.7,61.34453730400269,
video/Experiment/zh_sp01_Ad_Gr_3_NoThetaInAudio_NoVideo.avi,noTheta,noVideo,sp01,Ad,Gr,3,2,4,flow/blocks/NoThetaInAudio_NoVideo_A.csv,,,,,,,,,0,2,2,2,0,11,11,6,-0.40879629629629627,0.29305555555555557,1,0,0,4.925775000010617,call1,-0.018518518518518517,0.15,1,0,0,5.316745599993737,colour2,0.36203703703703705,-0.07916666666666666,1,0,0,5.842727400013246,number3,True,True,True,13,3,2019_Nov_12_1658,MA_Theta_Exp,3.0.7,61.34453730400269,
video/Experiment/zh_sp07_Dr_We_4_NoThetaInAudio_NoVideo.avi,noTheta,noVideo,sp07,Dr,We,4,2,4,flow/blocks/NoThetaInAudio_NoVideo_A.csv,,,,,,,,,0,2,2,2,0,12,12,31,-0.3680555555555556,0.1111111111111111,1,0,0,4.528367499995511,call2,-0.012962962962962963,-0.27361111111111114,1,0,0,4.988329099986004,colour4,0.43703703703703706,-0.32222222222222224,1,0,0,5.480089499993483,number4,True,True,True,13,3,2019_Nov_12_1658,MA_Theta_Exp,3.0.7,61.34453730400269,
video/Experiment/zh_sp07_Ad_Ge_2_NoThetaInAudio_NoVideo.avi,noTheta,noVideo,sp07,Ad,Ge,2,2,4,flow/blocks/NoThetaInAudio_NoVideo_A.csv,,,,,,,,,0,2,2,2,0,13,13,1,-0.36527777777777776,0.2875,1,0,0,4.189149400015594,call1,-0.010185185185185186,0.32222222222222224,1,0,0,4.5628104000061285,colour1,0.38564814814814813,0.11527777777777778,1,0,0,5.105799799988745,number2,True,True,True,13,3,2019_Nov_12_1658,MA_Theta_Exp,3.0.7,61.34453730400269,
video/Experiment/zh_sp01_Ad_Ro_3_NoThetaInAudio_NoVideo.avi,noTheta,noVideo,sp01,Ad,Ro,3,2,4,flow/blocks/NoThetaInAudio_NoVideo_A.csv,,,,,,,,,0,2,2,2,0,14,14,10,-0.45185185185185184,0.10277777777777777,1,0,0,5.49532580000232,call2,-0.034722222222222224,0.26944444444444443,1,0,0,5.91797520002001,colour1,0.3402777777777778,-0.05416666666666667,1,0,0,6.317590999999084,number3,False,False,True,13,3,2019_Nov_12_1658,MA_Theta_Exp,3.0.7,61.34453730400269,
video/Experiment/zh_sp07_Dr_Ge_4_NoThetaInAudio_NoVideo.avi,noTheta,noVideo,sp07,Dr,Ge,4,2,4,flow/blocks/NoThetaInAudio_NoVideo_A.csv,,,,,,,,,0,2,2,2,0,15,15,19,-0.425,0.2763888888888889,1,0,0,4.377776600013021,call1,-0.004166666666666667,0.30833333333333335,1,0,0,4.825230500020552,colour1,0.39814814814814814,-0.31666666666666665,1,0,0,5.526857199991355,number4,False,True,True,13,3,2019_Nov_12_1658,MA_Theta_Exp,3.0.7,61.34453730400269,
video/Experiment/zh_sp07_Ad_Ge_4_NoThetaInAudio_NoVideo.avi,noTheta,noVideo,sp07,Ad,Ge,4,2,4,flow/blocks/NoThetaInAudio_NoVideo_A.csv,,,,,,,,,0,2,2,2,0,16,16,3,-0.30324074074074076,0.3263888888888889,1,0,0,4.601234200003091,call1,0.028703703703703703,0.31805555555555554,1,0,0,5.564565300010145,colour1,0.39861111111111114,-0.26944444444444443,1,0,0,6.032204599992838,number4,True,True,True,13,3,2019_Nov_12_1658,MA_Theta_Exp,3.0.7,61.34453730400269,
video/Experiment/zh_sp01_Ad_Ge_3_NoThetaInAudio_NoVideo.avi,noTheta,noVideo,sp01,Ad,Ge,3,2,4,flow/blocks/NoThetaInAudio_NoVideo_A.csv,,,,,,,,,0,2,2,2,0,17,17,2,-0.3976851851851852,0.26666666666666666,1,0,0,4.588398199994117,call1,-0.06574074074074074,0.29583333333333334,1,0,0,5.011389999999665,colour1,0.3787037037037037,-0.3347222222222222,1,0,0,5.839475999993738,number4,True,True,False,13,3,2019_Nov_12_1658,MA_Theta_Exp,3.0.7,61.34453730400269,
video/Experiment/zh_sp07_Dr_Ge_1_NoThetaInAudio_NoVideo.avi,noTheta,noVideo,sp07,Dr,Ge,1,2,4,flow/blocks/NoThetaInAudio_NoVideo_A.csv,,,,,,,,,0,2,2,2,0,18,18,16,-0.37083333333333335,0.2847222222222222,1,0,0,4.319631799997296,call1,0.020370370370370372,0.30833333333333335,1,0,0,4.659872299991548,colour1,0.4722222222222222,0.30416666666666664,1,0,0,5.156061200017575,number1,False,True,True,13,3,2019_Nov_12_1658,MA_Theta_Exp,3.0.7,61.34453730400269,
video/Experiment/zh_sp07_Ad_Ro_1_NoThetaInAudio_NoVideo.avi,noTheta,noVideo,sp07,Ad,Ro,1,2,4,flow/blocks/NoThetaInAudio_NoVideo_A.csv,,,,,,,,,0,2,2,2,0,19,19,8,-0.3680555555555556,0.2902777777777778,1,0,0,4.110650199989323,call1,0.005092592592592593,-0.09722222222222222,1,0,0,4.578749199979939,colour3,0.36666666666666664,0.23333333333333334,1,0,0,5.0020961000118405,number1,True,True,True,13,3,2019_Nov_12_1658,MA_Theta_Exp,3.0.7,61.34453730400269,
video/Experiment/zh_sp01_Dr_Gr_4_NoThetaInAudio_NoVideo.avi,noTheta,noVideo,sp01,Dr,Gr,4,2,4,flow/blocks/NoThetaInAudio_NoVideo_A.csv,,,,,,,,,0,2,2,2,0,20,20,23,-0.3976851851851852,0.07222222222222222,1,0,0,5.018700799992075,call2,-0.031018518518518518,0.12222222222222222,1,0,0,5.334539400006179,colour2,0.3648148148148148,-0.2972222222222222,1,0,0,5.8080544999975245,number4,True,True,True,13,3,2019_Nov_12_1658,MA_Theta_Exp,3.0.7,61.34453730400269,
video/Experiment/zh_sp07_Dr_Ge_2_NoThetaInAudio_NoVideo.avi,noTheta,noVideo,sp07,Dr,Ge,2,2,4,flow/blocks/NoThetaInAudio_NoVideo_A.csv,,,,,,,,,0,2,2,2,0,21,21,17,-0.3888888888888889,0.3402777777777778,1,0,0,4.480838799994672,call1,-0.026851851851851852,0.3472222222222222,1,0,0,4.845403700019233,colour1,0.3592592592592593,0.07777777777777778,1,0,0,5.223033400019631,number2,False,True,True,13,3,2019_Nov_12_1658,MA_Theta_Exp,3.0.7,61.34453730400269,
video/Experiment/zh_sp01_Ad_We_1_NoThetaInAudio_NoVideo.avi,noTheta,noVideo,sp01,Ad,We,1,2,4,flow/blocks/NoThetaInAudio_NoVideo_A.csv,,,,,,,,,0,2,2,2,0,22,22,12,-0.39444444444444443,0.2722222222222222,1,0,0,5.066855500015663,call1,0.005092592592592593,0.09444444444444444,1,0,0,5.639836100017419,colour2,0.39537037037037037,0.2722222222222222,1,0,0,6.1345140999765135,number1,True,False,True,13,3,2019_Nov_12_1658,MA_Theta_Exp,3.0.7,61.34453730400269,
video/Experiment/zh_sp07_Dr_Gr_3_NoThetaInAudio_NoVideo.avi,noTheta,noVideo,sp07,Dr,Gr,3,2,4,flow/blocks/NoThetaInAudio_NoVideo_A.csv,,,,,,,,,0,2,2,2,0,23,23,22,-0.350462962962963,0.30972222222222223,1,0,0,4.570391299988842,call1,0.013425925925925926,0.07083333333333333,1,0,0,5.05553080001846,colour2,0.4148148148148148,-0.1388888888888889,1,0,0,5.4828585000068415,number3,False,True,True,13,3,2019_Nov_12_1658,MA_Theta_Exp,3.0.7,61.34453730400269,
video/Experiment/zh_sp07_Ad_Ro_2_NoThetaInAudio_NoVideo.avi,noTheta,noVideo,sp07,Ad,Ro,2,2,4,flow/blocks/NoThetaInAudio_NoVideo_A.csv,,,,,,,,,0,2,2,2,0,24,24,9,-0.4097222222222222,0.27361111111111114,1,0,0,4.543874900002265,call1,-0.05740740740740741,-0.10972222222222222,1,0,0,4.962699600000633,colour3,0.4078703703703704,0.1125,1,0,0,5.399774600024102,number2,True,True,True,13,3,2019_Nov_12_1658,MA_Theta_Exp,3.0.7,61.34453730400269,
video/Experiment/zh_sp07_Ad_Ge_1_NoThetaInAudio_NoVideo.avi,noTheta,noVideo,sp07,Ad,Ge,1,2,4,flow/blocks/NoThetaInAudio_NoVideo_A.csv,,,,,,,,,0,2,2,2,0,25,25,0,-0.36944444444444446,0.27361111111111114,1,0,0,4.227506600000197,call1,0.004166666666666667,0.275,1,0,0,4.794173799979035,colour1,0.41898148148148145,0.27361111111111114,1,0,0,5.249091899982886,number1,True,True,True,13,3,2019_Nov_12_1658,MA_Theta_Exp,3.0.7,61.34453730400269,
video/Experiment/zh_sp01_Ad_We_3_NoThetaInAudio_NoVideo.avi,noTheta,noVideo,sp01,Ad,We,3,2,4,flow/blocks/NoThetaInAudio_NoVideo_A.csv,,,,,,,,,0,2,2,2,0,26,26,14,-0.4791666666666667,0.2875,1,0,0,4.835739600006491,call1,-0.01712962962962963,-0.3277777777777778,1,0,0,5.488875300012296,colour4,0.387037037037037,-0.11944444444444445,1,0,0,5.984884300007252,number3,True,True,True,13,3,2019_Nov_12_1658,MA_Theta_Exp,3.0.7,61.34453730400269,
video/Experiment/zh_sp01_Dr_We_2_NoThetaInAudio_NoVideo.avi,noTheta,noVideo,sp01,Dr,We,2,2,4,flow/blocks/NoThetaInAudio_NoVideo_A.csv,,,,,,,,,0,2,2,2,0,27,27,29,-0.4305555555555556,0.07916666666666666,1,0,0,5.043479399988428,call2,-0.014351851851851852,-0.2847222222222222,1,0,0,5.517045799992047,colour4,0.4203703703703704,0.08194444444444444,1,0,0,6.069355199986603,number2,True,True,True,13,3,2019_Nov_12_1658,MA_Theta_Exp,3.0.7,61.34453730400269,
video/Experiment/zh_sp01_Dr_We_1_NoThetaInAudio_NoVideo.avi,noTheta,noVideo,sp01,Dr,We,1,2,4,flow/blocks/NoThetaInAudio_NoVideo_A.csv,,,,,,,,,0,2,2,2,0,28,28,28,-0.43472222222222223,0.2902777777777778,1,0,0,5.145160599990049,call1,-0.032407407407407406,-0.29305555555555557,1,0,0,5.821859099989524,colour4,0.38981481481481484,0.2708333333333333,1,0,0,6.431684400013182,number1,False,True,True,13,3,2019_Nov_12_1658,MA_Theta_Exp,3.0.7,61.34453730400269,
video/Experiment/zh_sp01_Dr_Ge_3_NoThetaInAudio_NoVideo.avi,noTheta,noVideo,sp01,Dr,Ge,3,2,4,flow/blocks/NoThetaInAudio_NoVideo_A.csv,,,,,,,,,0,2,2,2,0,29,29,18,-0.4083333333333333,0.09444444444444444,1,0,0,6.147898199997144,call2,-0.021296296296296296,0.25972222222222224,1,0,0,7.019440499978373,colour1,0.38564814814814813,-0.1111111111111111,1,0,0,7.825277500000084,number3,True,True,True,13,3,2019_Nov_12_1658,MA_Theta_Exp,3.0.7,61.34453730400269,
video/Experiment/zh_sp07_Ad_Gr_4_NoThetaInAudio_NoVideo.avi,noTheta,noVideo,sp07,Ad,Gr,4,2,4,flow/blocks/NoThetaInAudio_NoVideo_A.csv,,,,,,,,,0,2,2,2,0,30,30,7,-0.34444444444444444,0.24583333333333332,1,0,0,4.398655500001041,call1,-0.000462962962962963,0.07222222222222222,1,0,0,4.785176000004867,colour2,0.3416666666666667,-0.2569444444444444,1,0,0,5.236412800004473,number4,True,True,True,13,3,2019_Nov_12_1658,MA_Theta_Exp,3.0.7,61.34453730400269,
video/Experiment/zh_sp01_Dr_Ro_3_NoThetaInAudio_NoVideo.avi,noTheta,noVideo,sp01,Dr,Ro,3,2,4,flow/blocks/NoThetaInAudio_NoVideo_A.csv,,,,,,,,,0,2,2,2,0,31,31,26,-0.41388888888888886,0.09166666666666666,1,0,0,5.309532300016144,call2,0.03611111111111111,-0.12222222222222222,1,0,0,6.728472899994813,colour3,0.42916666666666664,-0.11388888888888889,1,0,0,7.399300399993081,number3,True,True,True,13,3,2019_Nov_12_1658,MA_Theta_Exp,3.0.7,61.34453730400269,
video/Experiment/zh_sp01_Ad_Gr_2_NVocInAudio_NoVideo.avi,vocoded,noVideo,sp01,Ad,Gr,2,3,2,flow/blocks/NVocInAudio_NoVideo_A.csv,,,,,,,,,0,3,3,3,0,0,0,5,-0.38333333333333336,0.26666666666666666,1,0,0,5.2652464999991935,call1,0.052314814814814814,0.03888888888888889,1,0,0,5.66992049998953,colour2,0.4634259259259259,0.10555555555555556,1,0,0,6.0167855999898165,number2,True,True,True,13,3,2019_Nov_12_1658,MA_Theta_Exp,3.0.7,61.34453730400269,
video/Experiment/zh_sp01_Ad_Gr_3_NVocInAudio_NoVideo.avi,vocoded,noVideo,sp01,Ad,Gr,3,3,2,flow/blocks/NVocInAudio_NoVideo_A.csv,,,,,,,,,0,3,3,3,0,1,1,6,-0.4,0.32083333333333336,1,0,0,4.885993900010362,call1,-0.02962962962962963,0.1375,1,0,0,5.259264499996789,colour2,0.36342592592592593,-0.12083333333333333,1,0,0,5.670898699987447,number3,True,True,True,13,3,2019_Nov_12_1658,MA_Theta_Exp,3.0.7,61.34453730400269,
video/Experiment/zh_sp07_Ad_Ge_1_NVocInAudio_NoVideo.avi,vocoded,noVideo,sp07,Ad,Ge,1,3,2,flow/blocks/NVocInAudio_NoVideo_A.csv,,,,,,,,,0,3,3,3,0,2,2,0,-0.3685185185185185,0.29444444444444445,1,0,0,4.239472899993416,call1,-0.022685185185185187,0.3138888888888889,1,0,0,4.543225000001257,colour1,0.37175925925925923,0.3125,1,0,0,4.8914826000109315,number1,True,True,True,13,3,2019_Nov_12_1658,MA_Theta_Exp,3.0.7,61.34453730400269,
video/Experiment/zh_sp07_Dr_Ge_2_NVocInAudio_NoVideo.avi,vocoded,noVideo,sp07,Dr,Ge,2,3,2,flow/blocks/NVocInAudio_NoVideo_A.csv,,,,,,,,,0,3,3,3,0,3,3,17,-0.37916666666666665,0.06805555555555555,1,0,0,4.425237199990079,call2,-0.06018518518518518,0.26666666666666666,1,0,0,4.893225099978736,colour1,0.4300925925925926,0.06805555555555555,1,0,0,5.305839899985585,number2,True,True,True,13,3,2019_Nov_12_1658,MA_Theta_Exp,3.0.7,61.34453730400269,
video/Experiment/zh_sp07_Dr_Ge_3_NVocInAudio_NoVideo.avi,vocoded,noVideo,sp07,Dr,Ge,3,3,2,flow/blocks/NVocInAudio_NoVideo_A.csv,,,,,,,,,0,3,3,3,0,4,4,18,-0.37083333333333335,0.13055555555555556,1,0,0,4.335686100006569,call2,0.006481481481481481,0.2875,1,0,0,4.788729499996407,colour1,0.3925925925925926,-0.10138888888888889,1,0,0,5.247040700021898,number3,True,True,True,13,3,2019_Nov_12_1658,MA_Theta_Exp,3.0.7,61.34453730400269,
video/Experiment/zh_sp07_Ad_Gr_1_NVocInAudio_NoVideo.avi,vocoded,noVideo,sp07,Ad,Gr,1,3,2,flow/blocks/NVocInAudio_NoVideo_A.csv,,,,,,,,,0,3,3,3,0,5,5,4,-0.3597222222222222,0.30694444444444446,1,0,0,4.30288269999437,call1,-0.0032407407407407406,0.0875,1,0,0,4.6717534000054,colour2,0.33611111111111114,0.29444444444444445,1,0,0,4.992119500006083,number1,True,True,True,13,3,2019_Nov_12_1658,MA_Theta_Exp,3.0.7,61.34453730400269,
video/Experiment/zh_sp07_Dr_Gr_3_NVocInAudio_NoVideo.avi,vocoded,noVideo,sp07,Dr,Gr,3,3,2,flow/blocks/NVocInAudio_NoVideo_A.csv,,,,,,,,,0,3,3,3,0,6,6,22,-0.35555555555555557,0.1111111111111111,1,0,0,4.439409699989483,call2,0.003703703703703704,0.11388888888888889,1,0,0,4.784127999999328,colour2,0.4023148148148148,-0.08194444444444444,1,0,0,5.270080699992832,number3,True,True,True,13,3,2019_Nov_12_1658,MA_Theta_Exp,3.0.7,61.34453730400269,
video/Experiment/zh_sp07_Dr_Gr_2_NVocInAudio_NoVideo.avi,vocoded,noVideo,sp07,Dr,Gr,2,3,2,flow/blocks/NVocInAudio_NoVideo_A.csv,,,,,,,,,0,3,3,3,0,7,7,21,-0.43472222222222223,0.12777777777777777,1,0,0,4.444475500000408,call2,0.06620370370370371,0.10833333333333334,1,0,0,5.239470800006529,colour2,0.3578703703703704,0.10833333333333334,1,0,0,6.4541783000167925,number2,True,True,True,13,3,2019_Nov_12_1658,MA_Theta_Exp,3.0.7,61.34453730400269,
video/Experiment/zh_sp01_Ad_We_3_NVocInAudio_NoVideo.avi,vocoded,noVideo,sp01,Ad,We,3,3,2,flow/blocks/NVocInAudio_NoVideo_A.csv,,,,,,,,,0,3,3,3,0,8,8,14,-0.40694444444444444,0.30833333333333335,1,0,0,5.881225999997696,call1,-0.01574074074074074,-0.2875,1,0,0,6.563947599992389,colour4,0.4027777777777778,-0.1,1,0,0,7.454904600017471,number3,True,True,True,13,3,2019_Nov_12_1658,MA_Theta_Exp,3.0.7,61.34453730400269,
video/Experiment/zh_sp01_Ad_Gr_4_NVocInAudio_NoVideo.avi,vocoded,noVideo,sp01,Ad,Gr,4,3,2,flow/blocks/NVocInAudio_NoVideo_A.csv,,,,,,,,,0,3,3,3,0,9,9,7,-0.4013888888888889,0.27361111111111114,1,0,0,5.02007150001009,call1,-0.022685185185185187,0.10138888888888889,1,0,0,5.456597200012766,colour2,0.39814814814814814,-0.33055555555555555,1,0,0,5.923501200013561,number4,True,True,True,13,3,2019_Nov_12_1658,MA_Theta_Exp,3.0.7,61.34453730400269,
video/Experiment/zh_sp01_Ad_We_4_NVocInAudio_NoVideo.avi,vocoded,noVideo,sp01,Ad,We,4,3,2,flow/blocks/NVocInAudio_NoVideo_A.csv,,,,,,,,,0,3,3,3,0,10,10,15,-0.375,0.3347222222222222,1,0,0,5.1336573000007775,call1,-0.01712962962962963,-0.30833333333333335,1,0,0,5.705207499995595,colour4,0.3939814814814815,-0.2763888888888889,1,0,0,6.12761060000048,number4,True,True,True,13,3,2019_Nov_12_1658,MA_Theta_Exp,3.0.7,61.34453730400269,
video/Experiment/zh_sp01_Ad_Ro_3_NVocInAudio_NoVideo.avi,vocoded,noVideo,sp01,Ad,Ro,3,3,2,flow/blocks/NVocInAudio_NoVideo_A.csv,,,,,,,,,0,3,3,3,0,11,11,10,-0.3458333333333333,0.2916666666666667,1,0,0,4.991009099991061,call1,0.060648148148148145,-0.1125,1,0,0,5.4587302999862,colour3,0.37037037037037035,-0.09861111111111111,1,0,0,5.843161600001622,number3,True,True,True,13,3,2019_Nov_12_1658,MA_Theta_Exp,3.0.7,61.34453730400269,
video/Experiment/zh_sp01_Ad_Ge_3_NVocInAudio_NoVideo.avi,vocoded,noVideo,sp01,Ad,Ge,3,3,2,flow/blocks/NVocInAudio_NoVideo_A.csv,,,,,,,,,0,3,3,3,0,12,12,2,-0.4375,0.3263888888888889,1,0,0,4.995057799998904,call1,-0.011574074074074073,0.2972222222222222,1,0,0,5.370625499985181,colour1,0.38472222222222224,-0.02361111111111111,1,0,0,5.750497400003951,number3,True,True,True,13,3,2019_Nov_12_1658,MA_Theta_Exp,3.0.7,61.34453730400269,
video/Experiment/zh_sp07_Dr_We_1_NVocInAudio_NoVideo.avi,vocoded,noVideo,sp07,Dr,We,1,3,2,flow/blocks/NVocInAudio_NoVideo_A.csv,,,,,,,,,0,3,3,3,0,13,13,28,-0.3726851851851852,0.13194444444444445,1,0,0,4.362259399989853,call2,-0.046296296296296294,-0.25555555555555554,1,0,0,4.768495900003472,colour4,0.3819444444444444,0.22916666666666666,1,0,0,5.180620200000703,number1,True,True,True,13,3,2019_Nov_12_1658,MA_Theta_Exp,3.0.7,61.34453730400269,
video/Experiment/zh_sp01_Ad_Ge_2_NVocInAudio_NoVideo.avi,vocoded,noVideo,sp01,Ad,Ge,2,3,2,flow/blocks/NVocInAudio_NoVideo_A.csv,,,,,,,,,0,3,3,3,0,14,14,1,-0.3458333333333333,0.31805555555555554,1,0,0,5.018828400003258,call1,0.06342592592592593,0.275,1,0,0,5.58645850000903,colour1,0.4583333333333333,0.08055555555555556,1,0,0,5.988503900007345,number2,True,True,True,13,3,2019_Nov_12_1658,MA_Theta_Exp,3.0.7,61.34453730400269,
video/Experiment/zh_sp07_Dr_Ge_4_NVocInAudio_NoVideo.avi,vocoded,noVideo,sp07,Dr,Ge,4,3,2,flow/blocks/NVocInAudio_NoVideo_A.csv,,,,,,,,,0,3,3,3,0,15,15,19,-0.4337962962962963,0.11805555555555555,1,0,0,4.56644339999184,call2,0.022222222222222223,0.2861111111111111,1,0,0,5.088820099976147,colour1,0.42314814814814816,-0.3472222222222222,1,0,0,5.743544299999485,number4,True,True,True,13,3,2019_Nov_12_1658,MA_Theta_Exp,3.0.7,61.34453730400269,
video/Experiment/zh_sp07_Ad_We_1_NVocInAudio_NoVideo.avi,vocoded,noVideo,sp07,Ad,We,1,3,2,flow/blocks/NVocInAudio_NoVideo_A.csv,,,,,,,,,0,3,3,3,0,16,16,12,-0.4222222222222222,0.38333333333333336,1,0,0,4.2461905000091065,call1,-0.01990740740740741,-0.2986111111111111,1,0,0,5.0018691000004765,colour4,0.3592592592592593,0.2916666666666667,1,0,0,5.8027957000012975,number1,True,True,True,13,3,2019_Nov_12_1658,MA_Theta_Exp,3.0.7,61.34453730400269,
video/Experiment/zh_sp01_Ad_We_2_NVocInAudio_NoVideo.avi,vocoded,noVideo,sp01,Ad,We,2,3,2,flow/blocks/NVocInAudio_NoVideo_A.csv,,,,,,,,,0,3,3,3,0,17,17,13,-0.42685185185185187,0.29305555555555557,1,0,0,5.018049600010272,call1,-0.024074074074074074,-0.26666666666666666,1,0,0,5.6230541999975685,colour4,0.3814814814814815,0.0875,1,0,0,6.207712699979311,number2,True,True,True,13,3,2019_Nov_12_1658,MA_Theta_Exp,3.0.7,61.34453730400269,
video/Experiment/zh_sp07_Ad_Ro_1_NVocInAudio_NoVideo.avi,vocoded,noVideo,sp07,Ad,Ro,1,3,2,flow/blocks/NVocInAudio_NoVideo_A.csv,,,,,,,,,0,3,3,3,0,18,18,8,-0.3712962962962963,0.25833333333333336,1,0,0,4.292214300017804,call1,0.03425925925925926,-0.09027777777777778,1,0,0,4.7176662000129,colour3,0.4439814814814815,0.26666666666666666,1,0,0,5.273722500016447,number1,True,True,True,13,3,2019_Nov_12_1658,MA_Theta_Exp,3.0.7,61.34453730400269,
video/Experiment/zh_sp07_Dr_We_2_NVocInAudio_NoVideo.avi,vocoded,noVideo,sp07,Dr,We,2,3,2,flow/blocks/NVocInAudio_NoVideo_A.csv,,,,,,,,,0,3,3,3,0,19,19,29,-0.4074074074074074,0.1125,1,0,0,4.574139100004686,call2,-0.0060185185185185185,-0.3375,1,0,0,5.031508699990809,colour4,0.4425925925925926,0.06944444444444445,1,0,0,5.662578299990855,number2,True,True,True,13,3,2019_Nov_12_1658,MA_Theta_Exp,3.0.7,61.34453730400269,
video/Experiment/zh_sp07_Ad_Ge_4_NVocInAudio_NoVideo.avi,vocoded,noVideo,sp07,Ad,Ge,4,3,2,flow/blocks/NVocInAudio_NoVideo_A.csv,,,,,,,,,0,3,3,3,0,20,20,3,-0.4337962962962963,0.2638888888888889,1,0,0,4.5586947000119835,call1,0.027777777777777776,0.2861111111111111,1,0,0,4.944590999977663,colour1,0.3800925925925926,-0.3138888888888889,1,0,0,5.978026099997805,number4,True,True,True,13,3,2019_Nov_12_1658,MA_Theta_Exp,3.0.7,61.34453730400269,
video/Experiment/zh_sp01_Dr_Ro_3_NVocInAudio_NoVideo.avi,vocoded,noVideo,sp01,Dr,Ro,3,3,2,flow/blocks/NVocInAudio_NoVideo_A.csv,,,,,,,,,0,3,3,3,0,21,21,26,-0.375,0.125,1,0,0,4.956679399998393,call2,0.017592592592592594,-0.03611111111111111,1,0,0,6.342437300016172,colour3,0.41759259259259257,-0.08472222222222223,1,0,0,6.73689669999294,number3,True,True,True,13,3,2019_Nov_12_1658,MA_Theta_Exp,3.0.7,61.34453730400269,
video/Experiment/zh_sp07_Dr_Ro_2_NVocInAudio_NoVideo.avi,vocoded,noVideo,sp07,Dr,Ro,2,3,2,flow/blocks/NVocInAudio_NoVideo_A.csv,,,,,,,,,0,3,3,3,0,22,22,25,-0.33611111111111114,0.09027777777777778,1,0,0,4.673666000016965,call2,0.024537037037037038,-0.10138888888888889,1,0,0,5.000934199983021,colour3,0.35648148148148145,0.075,1,0,0,5.33992849997594,number2,True,True,True,13,3,2019_Nov_12_1658,MA_Theta_Exp,3.0.7,61.34453730400269,
video/Experiment/zh_sp01_Dr_We_3_NVocInAudio_NoVideo.avi,vocoded,noVideo,sp01,Dr,We,3,3,2,flow/blocks/NVocInAudio_NoVideo_A.csv,,,,,,,,,0,3,3,3,0,23,23,30,-0.31712962962962965,0.09583333333333334,1,0,0,5.025954100012314,call2,0.022222222222222223,-0.33611111111111114,1,0,0,5.55330669999239,colour4,0.38981481481481484,-0.12361111111111112,1,0,0,6.013981900003273,number3,True,True,True,13,3,2019_Nov_12_1658,MA_Theta_Exp,3.0.7,61.34453730400269,
video/Experiment/zh_sp01_Dr_Ro_4_NVocInAudio_NoVideo.avi,vocoded,noVideo,sp01,Dr,Ro,4,3,2,flow/blocks/NVocInAudio_NoVideo_A.csv,,,,,,,,,0,3,3,3,0,24,24,27,-0.38472222222222224,0.08611111111111111,1,0,0,4.889851499989163,call2,0.03888888888888889,-0.09722222222222222,1,0,0,5.315013299987186,colour3,0.3523148148148148,-0.29305555555555557,1,0,0,5.722092499985592,number4,True,True,True,13,3,2019_Nov_12_1658,MA_Theta_Exp,3.0.7,61.34453730400269,
video/Experiment/zh_sp07_Ad_Ro_4_NVocInAudio_NoVideo.avi,vocoded,noVideo,sp07,Ad,Ro,4,3,2,flow/blocks/NVocInAudio_NoVideo_A.csv,,,,,,,,,0,3,3,3,0,25,25,11,-0.3375,0.26944444444444443,1,0,0,4.503140699991491,call1,0.03287037037037037,-0.10138888888888889,1,0,0,5.121390599990264,colour3,0.4023148148148148,-0.3277777777777778,1,0,0,5.642427299986593,number4,True,True,True,13,3,2019_Nov_12_1658,MA_Theta_Exp,3.0.7,61.34453730400269,
video/Experiment/zh_sp07_Ad_Ro_2_NVocInAudio_NoVideo.avi,vocoded,noVideo,sp07,Ad,Ro,2,3,2,flow/blocks/NVocInAudio_NoVideo_A.csv,,,,,,,,,0,3,3,3,0,26,26,9,-0.375,0.29444444444444445,1,0,0,4.4261937999981456,call1,-0.018055555555555554,-0.07916666666666666,1,0,0,4.971057399990968,colour3,0.4287037037037037,0.1,1,0,0,5.480774900002871,number2,True,True,True,13,3,2019_Nov_12_1658,MA_Theta_Exp,3.0.7,61.34453730400269,
video/Experiment/zh_sp01_Dr_We_4_NVocInAudio_NoVideo.avi,vocoded,noVideo,sp01,Dr,We,4,3,2,flow/blocks/NVocInAudio_NoVideo_A.csv,,,,,,,,,0,3,3,3,0,27,27,31,-0.44166666666666665,0.13055555555555556,1,0,0,5.0039630999963265,call2,-0.04861111111111111,-0.3013888888888889,1,0,0,5.507401300012134,colour4,0.3523148148148148,-0.31527777777777777,1,0,0,6.054007700004149,number4,True,True,True,13,3,2019_Nov_12_1658,MA_Theta_Exp,3.0.7,61.34453730400269,
video/Experiment/zh_sp01_Dr_Ro_1_NVocInAudio_NoVideo.avi,vocoded,noVideo,sp01,Dr,Ro,1,3,2,flow/blocks/NVocInAudio_NoVideo_A.csv,,,,,,,,,0,3,3,3,0,28,28,24,-0.3638888888888889,0.075,1,0,0,5.355733700009296,call2,-0.011574074074074073,-0.04861111111111111,1,0,0,5.812458000000333,colour3,0.3625,0.2611111111111111,1,0,0,6.266338799992809,number1,True,True,True,13,3,2019_Nov_12_1658,MA_Theta_Exp,3.0.7,61.34453730400269,
video/Experiment/zh_sp07_Dr_Gr_1_NVocInAudio_NoVideo.avi,vocoded,noVideo,sp07,Dr,Gr,1,3,2,flow/blocks/NVocInAudio_NoVideo_A.csv,,,,,,,,,0,3,3,3,0,29,29,20,-0.34444444444444444,0.07777777777777778,1,0,0,4.4846810000017285,call2,0.009259259259259259,0.06111111111111111,1,0,0,4.834239199990407,colour2,0.3314814814814815,0.27361111111111114,1,0,0,5.2177506999869365,number1,True,True,True,13,3,2019_Nov_12_1658,MA_Theta_Exp,3.0.7,61.34453730400269,
video/Experiment/zh_sp01_Dr_Gr_4_NVocInAudio_NoVideo.avi,vocoded,noVideo,sp01,Dr,Gr,4,3,2,flow/blocks/NVocInAudio_NoVideo_A.csv,,,,,,,,,0,3,3,3,0,30,30,23,-0.3902777777777778,0.1125,1,0,0,4.936833799991291,call2,-0.01990740740740741,0.125,1,0,0,5.353408099996159,colour2,0.34814814814814815,-0.30833333333333335,1,0,0,5.855893299973104,number4,True,True,True,13,3,2019_Nov_12_1658,MA_Theta_Exp,3.0.7,61.34453730400269,
video/Experiment/zh_sp01_Dr_Ge_1_NVocInAudio_NoVideo.avi,vocoded,noVideo,sp01,Dr,Ge,1,3,2,flow/blocks/NVocInAudio_NoVideo_A.csv,,,,,,,,,0,3,3,3,0,31,31,16,-0.42083333333333334,0.1361111111111111,1,0,0,5.08354110000073,call2,-0.030555555555555555,0.2513888888888889,1,0,0,5.461397400009446,colour1,0.42592592592592593,0.29583333333333334,1,0,0,5.870170900016092,number1,True,True,True,13,3,2019_Nov_12_1658,MA_Theta_Exp,3.0.7,61.34453730400269,
video/Experiment/zh_sp07_Ad_We_4_NoThetaInAudio_GlobalThetaInVideo.avi,noTheta,plusVideo,sp07,Ad,We,4,4,3,flow/blocks/NoThetaInAudio_GlobalThetaInVideo_A.csv,,,,,,,,,0,4,4,4,0,0,0,15,-0.4097222222222222,0.2569444444444444,1,0,0,5.248424600024009,call1,-0.08101851851851852,0.30972222222222223,1,0,0,5.66833869999391,colour1,0.35,-0.3736111111111111,1,0,0,6.314756199979456,number4,True,False,True,13,3,2019_Nov_12_1658,MA_Theta_Exp,3.0.7,61.34453730400269,
video/Experiment/zh_sp01_Ad_Ge_3_NoThetaInAudio_GlobalThetaInVideo.avi,noTheta,plusVideo,sp01,Ad,Ge,3,4,3,flow/blocks/NoThetaInAudio_GlobalThetaInVideo_A.csv,,,,,,,,,0,4,4,4,0,1,1,2,-0.44074074074074077,0.32222222222222224,1,0,0,4.784879799990449,call1,-0.01712962962962963,0.30694444444444446,1,0,0,5.192999499995494,colour1,0.41203703703703703,-0.10694444444444444,1,0,0,6.286016199999722,number3,True,True,True,13,3,2019_Nov_12_1658,MA_Theta_Exp,3.0.7,61.34453730400269,
video/Experiment/zh_sp01_Dr_Gr_2_NoThetaInAudio_GlobalThetaInVideo.avi,noTheta,plusVideo,sp01,Dr,Gr,2,4,3,flow/blocks/NoThetaInAudio_GlobalThetaInVideo_A.csv,,,,,,,,,0,4,4,4,0,2,2,21,-0.3958333333333333,0.11944444444444445,1,0,0,5.1037073000043165,call2,0.000925925925925926,0.09305555555555556,1,0,0,5.538579300016863,colour2,0.35509259259259257,0.10833333333333334,1,0,0,5.9013673000154085,number2,True,True,True,13,3,2019_Nov_12_1658,MA_Theta_Exp,3.0.7,61.34453730400269,
video/Experiment/zh_sp01_Ad_Gr_1_NoThetaInAudio_GlobalThetaInVideo.avi,noTheta,plusVideo,sp01,Ad,Gr,1,4,3,flow/blocks/NoThetaInAudio_GlobalThetaInVideo_A.csv,,,,,,,,,0,4,4,4,0,3,3,4,-0.3875,0.35694444444444445,1,0,0,5.1291749000083655,call1,-0.01574074074074074,0.08888888888888889,1,0,0,5.50278719997732,colour2,0.3773148148148148,0.28194444444444444,1,0,0,5.928671200003009,number1,True,True,True,13,3,2019_Nov_12_1658,MA_Theta_Exp,3.0.7,61.34453730400269,
video/Experiment/zh_sp07_Ad_Ge_1_NoThetaInAudio_GlobalThetaInVideo.avi,noTheta,plusVideo,sp07,Ad,Ge,1,4,3,flow/blocks/NoThetaInAudio_GlobalThetaInVideo_A.csv,,,,,,,,,0,4,4,4,0,4,4,0,-0.41388888888888886,0.2986111111111111,1,0,0,4.2882174999977,call1,-0.022685185185185187,0.3013888888888889,1,0,0,4.641051900020102,colour1,0.3523148148148148,0.2972222222222222,1,0,0,5.058444499998586,number1,True,True,True,13,3,2019_Nov_12_1658,MA_Theta_Exp,3.0.7,61.34453730400269,
video/Experiment/zh_sp07_Ad_We_1_NoThetaInAudio_GlobalThetaInVideo.avi,noTheta,plusVideo,sp07,Ad,We,1,4,3,flow/blocks/NoThetaInAudio_GlobalThetaInVideo_A.csv,,,,,,,,,0,4,4,4,0,5,5,12,-0.39444444444444443,0.3236111111111111,1,0,0,4.462132899992866,call1,-0.02962962962962963,-0.2625,1,0,0,5.084519800002454,colour4,0.3287037037037037,0.275,1,0,0,5.668186299997615,number1,True,True,True,13,3,2019_Nov_12_1658,MA_Theta_Exp,3.0.7,61.34453730400269,
video/Experiment/zh_sp01_Ad_Gr_3_NoThetaInAudio_GlobalThetaInVideo.avi,noTheta,plusVideo,sp01,Ad,Gr,3,4,3,flow/blocks/NoThetaInAudio_GlobalThetaInVideo_A.csv,,,,,,,,,0,4,4,4,0,6,6,6,-0.3,0.3,1,0,0,5.069934800005285,call1,-0.026851851851851852,0.12222222222222222,1,0,0,5.95317810002598,colour2,0.37175925925925923,-0.12083333333333333,1,0,0,6.406919000000926,number3,True,True,True,13,3,2019_Nov_12_1658,MA_Theta_Exp,3.0.7,61.34453730400269,
video/Experiment/zh_sp07_Ad_Ro_1_NoThetaInAudio_GlobalThetaInVideo.avi,noTheta,plusVideo,sp07,Ad,Ro,1,4,3,flow/blocks/NoThetaInAudio_GlobalThetaInVideo_A.csv,,,,,,,,,0,4,4,4,0,7,7,8,-0.4083333333333333,0.2611111111111111,1,0,0,4.192576200002804,call1,0.04814814814814815,-0.13333333333333333,1,0,0,4.837963199999649,colour3,0.399537037037037,0.25416666666666665,1,0,0,5.425172200019006,number1,True,True,True,13,3,2019_Nov_12_1658,MA_Theta_Exp,3.0.7,61.34453730400269,
video/Experiment/zh_sp01_Ad_Ro_3_NoThetaInAudio_GlobalThetaInVideo.avi,noTheta,plusVideo,sp01,Ad,Ro,3,4,3,flow/blocks/NoThetaInAudio_GlobalThetaInVideo_A.csv,,,,,,,,,0,4,4,4,0,8,8,10,-0.4013888888888889,0.28055555555555556,1,0,0,5.073008799983654,call1,-0.000462962962962963,-0.1486111111111111,1,0,0,5.553023700020276,colour3,0.387037037037037,-0.11944444444444445,1,0,0,5.918644899997162,number3,True,True,True,13,3,2019_Nov_12_1658,MA_Theta_Exp,3.0.7,61.34453730400269,
video/Experiment/zh_sp07_Dr_Gr_1_NoThetaInAudio_GlobalThetaInVideo.avi,noTheta,plusVideo,sp07,Dr,Gr,1,4,3,flow/blocks/NoThetaInAudio_GlobalThetaInVideo_A.csv,,,,,,,,,0,4,4,4,0,9,9,20,-0.4337962962962963,0.0875,1,0,0,4.374361599999247,call2,0.009259259259259259,0.10555555555555556,1,0,0,4.766877299989574,colour2,0.34814814814814815,0.24305555555555555,1,0,0,5.161181299976306,number1,True,True,True,13,3,2019_Nov_12_1658,MA_Theta_Exp,3.0.7,61.34453730400269,
video/Experiment/zh_sp01_Dr_Ro_2_NoThetaInAudio_GlobalThetaInVideo.avi,noTheta,plusVideo,sp01,Dr,Ro,2,4,3,flow/blocks/NoThetaInAudio_GlobalThetaInVideo_A.csv,,,,,,,,,0,4,4,4,0,10,10,25,-0.4236111111111111,0.10416666666666667,1,0,0,4.985733299981803,call2,-0.02962962962962963,-0.10416666666666667,1,0,0,5.46310649998486,colour3,0.3675925925925926,0.06527777777777778,1,0,0,5.886408499995014,number2,True,True,True,13,3,2019_Nov_12_1658,MA_Theta_Exp,3.0.7,61.34453730400269,
video/Experiment/zh_sp01_Ad_Ge_4_NoThetaInAudio_GlobalThetaInVideo.avi,noTheta,plusVideo,sp01,Ad,Ge,4,4,3,flow/blocks/NoThetaInAudio_GlobalThetaInVideo_A.csv,,,,,,,,,0,4,4,4,0,11,11,3,-0.4046296296296296,0.2972222222222222,1,0,0,5.001366999989841,call1,0.03287037037037037,0.3055555555555556,1,0,0,5.307037999999011,colour1,0.4273148148148148,-0.2847222222222222,1,0,0,5.913437600014731,number4,True,True,True,13,3,2019_Nov_12_1658,MA_Theta_Exp,3.0.7,61.34453730400269,
video/Experiment/zh_sp07_Dr_Gr_4_NoThetaInAudio_GlobalThetaInVideo.avi,noTheta,plusVideo,sp07,Dr,Gr,4,4,3,flow/blocks/NoThetaInAudio_GlobalThetaInVideo_A.csv,,,,,,,,,0,4,4,4,0,12,12,23,-0.42777777777777776,0.325,1,0,0,4.821563499979675,call1,-0.018055555555555554,0.15833333333333333,1,0,0,5.342175300000235,colour2,0.33287037037037037,-0.2847222222222222,1,0,0,5.903461599984439,number4,False,True,True,13,3,2019_Nov_12_1658,MA_Theta_Exp,3.0.7,61.34453730400269,
video/Experiment/zh_sp07_Ad_We_3_NoThetaInAudio_GlobalThetaInVideo.avi,noTheta,plusVideo,sp07,Ad,We,3,4,3,flow/blocks/NoThetaInAudio_GlobalThetaInVideo_A.csv,,,,,,,,,0,4,4,4,0,13,13,14,-0.4199074074074074,0.30694444444444446,1,0,0,4.224137899989728,call1,-0.01712962962962963,-0.2708333333333333,1,0,0,4.713132799981395,colour4,0.3912037037037037,-0.32083333333333336,1,0,0,5.226180600002408,number4,True,True,False,13,3,2019_Nov_12_1658,MA_Theta_Exp,3.0.7,61.34453730400269,
video/Experiment/zh_sp01_Ad_Gr_2_NoThetaInAudio_GlobalThetaInVideo.avi,noTheta,plusVideo,sp01,Ad,Gr,2,4,3,flow/blocks/NoThetaInAudio_GlobalThetaInVideo_A.csv,,,,,,,,,0,4,4,4,0,14,14,5,-0.3888888888888889,0.29444444444444445,1,0,0,5.317554700013716,call1,-0.041666666666666664,0.10416666666666667,1,0,0,5.6414793000149075,colour2,0.3578703703703704,0.10555555555555556,1,0,0,5.927948399999877,number2,True,True,True,13,3,2019_Nov_12_1658,MA_Theta_Exp,3.0.7,61.34453730400269,
video/Experiment/zh_sp07_Dr_We_2_NoThetaInAudio_GlobalThetaInVideo.avi,noTheta,plusVideo,sp07,Dr,We,2,4,3,flow/blocks/NoThetaInAudio_GlobalThetaInVideo_A.csv,,,,,,,,,0,4,4,4,0,15,15,29,-0.37777777777777777,0.12222222222222222,1,0,0,5.300191799993627,call2,-0.049074074074074076,-0.2875,1,0,0,6.248278499988373,colour4,0.39814814814814814,0.09861111111111111,1,0,0,6.713577299989993,number2,True,True,True,13,3,2019_Nov_12_1658,MA_Theta_Exp,3.0.7,61.34453730400269,
video/Experiment/zh_sp07_Ad_Gr_4_NoThetaInAudio_GlobalThetaInVideo.avi,noTheta,plusVideo,sp07,Ad,Gr,4,4,3,flow/blocks/NoThetaInAudio_GlobalThetaInVideo_A.csv,,,,,,,,,0,4,4,4,0,16,16,7,-0.3819444444444444,0.29444444444444445,1,0,0,4.438178899988998,call1,0.02361111111111111,0.07083333333333333,1,0,0,4.89828920000582,colour2,0.3486111111111111,-0.3,1,0,0,5.381353599979775,number4,True,True,True,13,3,2019_Nov_12_1658,MA_Theta_Exp,3.0.7,61.34453730400269,
video/Experiment/zh_sp07_Dr_Ro_1_NoThetaInAudio_GlobalThetaInVideo.avi,noTheta,plusVideo,sp07,Dr,Ro,1,4,3,flow/blocks/NoThetaInAudio_GlobalThetaInVideo_A.csv,,,,,,,,,0,4,4,4,0,17,17,24,-0.38472222222222224,0.31666666666666665,1,0,0,4.402086699992651,call1,0.05092592592592592,-0.125,1,0,0,5.040279399981955,colour3,0.37453703703703706,0.2847222222222222,1,0,0,5.517547099996591,number1,False,True,True,13,3,2019_Nov_12_1658,MA_Theta_Exp,3.0.7,61.34453730400269,
video/Experiment/zh_sp01_Ad_Ro_2_NoThetaInAudio_GlobalThetaInVideo.avi,noTheta,plusVideo,sp01,Ad,Ro,2,4,3,flow/blocks/NoThetaInAudio_GlobalThetaInVideo_A.csv,,,,,,,,,0,4,4,4,0,18,18,9,-0.4074074074074074,0.2916666666666667,1,0,0,4.94498990001739,call1,-0.06157407407407407,-0.08611111111111111,1,0,0,5.425760699989041,colour3,0.45416666666666666,0.08611111111111111,1,0,0,5.852737400011392,number2,True,True,True,13,3,2019_Nov_12_1658,MA_Theta_Exp,3.0.7,61.34453730400269,
video/Experiment/zh_sp01_Dr_Ge_2_NoThetaInAudio_GlobalThetaInVideo.avi,noTheta,plusVideo,sp01,Dr,Ge,2,4,3,flow/blocks/NoThetaInAudio_GlobalThetaInVideo_A.csv,,,,,,,,,0,4,4,4,0,19,19,17,-0.33055555555555555,0.24861111111111112,1,0,0,5.175357000000076,call1,0.09953703703703703,0.2652777777777778,1,0,0,5.499771500006318,colour1,0.39814814814814814,0.05416666666666667,1,0,0,6.937258199992357,number2,False,True,True,13,3,2019_Nov_12_1658,MA_Theta_Exp,3.0.7,61.34453730400269,
video/Experiment/zh_sp07_Ad_Ge_2_NoThetaInAudio_GlobalThetaInVideo.avi,noTheta,plusVideo,sp07,Ad,Ge,2,4,3,flow/blocks/NoThetaInAudio_GlobalThetaInVideo_A.csv,,,,,,,,,0,4,4,4,0,20,20,1,-0.3976851851851852,0.275,1,0,0,4.23757480000495,call1,-0.05324074074074074,0.3,1,0,0,4.5565586000157055,colour1,0.3675925925925926,0.1111111111111111,1,0,0,4.929239299992332,number2,True,True,True,13,3,2019_Nov_12_1658,MA_Theta_Exp,3.0.7,61.34453730400269,
video/Experiment/zh_sp07_Ad_We_2_NoThetaInAudio_GlobalThetaInVideo.avi,noTheta,plusVideo,sp07,Ad,We,2,4,3,flow/blocks/NoThetaInAudio_GlobalThetaInVideo_A.csv,,,,,,,,,0,4,4,4,0,21,21,13,-0.3685185185185185,0.2625,1,0,0,4.320025299995905,call1,-0.04212962962962963,-0.3,1,0,0,4.930471800005762,colour4,0.39814814814814814,0.059722222222222225,1,0,0,5.576425500010373,number2,True,True,True,13,3,2019_Nov_12_1658,MA_Theta_Exp,3.0.7,61.34453730400269,
video/Experiment/zh_sp07_Dr_Ge_1_NoThetaInAudio_GlobalThetaInVideo.avi,noTheta,plusVideo,sp07,Dr,Ge,1,4,3,flow/blocks/NoThetaInAudio_GlobalThetaInVideo_A.csv,,,,,,,,,0,4,4,4,0,22,22,16,-0.3712962962962963,0.29444444444444445,1,0,0,4.330702700011898,call1,0.001388888888888889,0.2916666666666667,1,0,0,4.931068400008371,colour1,0.41759259259259257,0.29444444444444445,1,0,0,5.31453619999229,number1,False,True,True,13,3,2019_Nov_12_1658,MA_Theta_Exp,3.0.7,61.34453730400269,
video/Experiment/zh_sp01_Dr_Ge_3_NoThetaInAudio_GlobalThetaInVideo.avi,noTheta,plusVideo,sp01,Dr,Ge,3,4,3,flow/blocks/NoThetaInAudio_GlobalThetaInVideo_A.csv,,,,,,,,,0,4,4,4,0,23,23,18,-0.3574074074074074,0.1486111111111111,1,0,0,4.773723599995719,call2,-0.02546296296296296,0.27361111111111114,1,0,0,5.111687800002983,colour1,0.3578703703703704,-0.08333333333333333,1,0,0,5.566293599986238,number3,True,True,True,13,3,2019_Nov_12_1658,MA_Theta_Exp,3.0.7,61.34453730400269,
video/Experiment/zh_sp07_Dr_We_1_NoThetaInAudio_GlobalThetaInVideo.avi,noTheta,plusVideo,sp07,Dr,We,1,4,3,flow/blocks/NoThetaInAudio_GlobalThetaInVideo_A.csv,,,,,,,,,0,4,4,4,0,24,24,28,-0.38333333333333336,0.12361111111111112,1,0,0,4.3379492000094615,call2,-0.008796296296296297,-0.29444444444444445,1,0,0,4.785928199999034,colour4,0.3162037037037037,0.25,1,0,0,5.260670899995603,number1,True,True,True,13,3,2019_Nov_12_1658,MA_Theta_Exp,3.0.7,61.34453730400269,
video/Experiment/zh_sp01_Dr_Ge_4_NoThetaInAudio_GlobalThetaInVideo.avi,noTheta,plusVideo,sp01,Dr,Ge,4,4,3,flow/blocks/NoThetaInAudio_GlobalThetaInVideo_A.csv,,,,,,,,,0,4,4,4,0,25,25,19,-0.37777777777777777,0.28888888888888886,1,0,0,5.660444000008283,call1,0.03564814814814815,0.28888888888888886,1,0,0,6.032954299997073,colour1,0.3439814814814815,-0.3111111111111111,1,0,0,7.332574900006875,number4,False,True,True,13,3,2019_Nov_12_1658,MA_Theta_Exp,3.0.7,61.34453730400269,
video/Experiment/zh_sp01_Dr_We_3_NoThetaInAudio_GlobalThetaInVideo.avi,noTheta,plusVideo,sp01,Dr,We,3,4,3,flow/blocks/NoThetaInAudio_GlobalThetaInVideo_A.csv,,,,,,,,,0,4,4,4,0,26,26,30,-0.41388888888888886,0.10555555555555556,1,0,0,4.842395599989686,call2,0.009259259259259259,-0.3125,1,0,0,5.362918099999661,colour4,0.4305555555555556,-0.11666666666666667,1,0,0,5.912549100001343,number3,True,True,True,13,3,2019_Nov_12_1658,MA_Theta_Exp,3.0.7,61.34453730400269,
video/Experiment/zh_sp01_Dr_We_4_NoThetaInAudio_GlobalThetaInVideo.avi,noTheta,plusVideo,sp01,Dr,We,4,4,3,flow/blocks/NoThetaInAudio_GlobalThetaInVideo_A.csv,,,,,,,,,0,4,4,4,0,27,27,31,-0.42407407407407405,0.08194444444444444,1,0,0,4.921167299995432,call2,0.024537037037037038,-0.3625,1,0,0,5.407830600015586,colour4,0.43287037037037035,-0.32083333333333336,1,0,0,5.87268810000387,number4,True,True,True,13,3,2019_Nov_12_1658,MA_Theta_Exp,3.0.7,61.34453730400269,
video/Experiment/zh_sp07_Dr_Ro_3_NoThetaInAudio_GlobalThetaInVideo.avi,noTheta,plusVideo,sp07,Dr,Ro,3,4,3,flow/blocks/NoThetaInAudio_GlobalThetaInVideo_A.csv,,,,,,,,,0,4,4,4,0,28,28,26,-0.34444444444444444,0.07777777777777778,1,0,0,4.370973800017964,call2,0.03564814814814815,-0.13194444444444445,1,0,0,4.74725430001854,colour3,0.324537037037037,-0.13333333333333333,1,0,0,5.077441600005841,number3,True,True,True,13,3,2019_Nov_12_1658,MA_Theta_Exp,3.0.7,61.34453730400269,
video/Experiment/zh_sp07_Dr_Ro_4_NoThetaInAudio_GlobalThetaInVideo.avi,noTheta,plusVideo,sp07,Dr,Ro,4,4,3,flow/blocks/NoThetaInAudio_GlobalThetaInVideo_A.csv,,,,,,,,,0,4,4,4,0,29,29,27,-0.425462962962963,0.12777777777777777,1,0,0,4.414418600004865,call2,0.000925925925925926,-0.13194444444444445,1,0,0,4.902712899987819,colour3,0.4564814814814815,-0.31527777777777777,1,0,0,5.322802699985914,number4,True,True,True,13,3,2019_Nov_12_1658,MA_Theta_Exp,3.0.7,61.34453730400269,
video/Experiment/zh_sp01_Dr_Gr_3_NoThetaInAudio_GlobalThetaInVideo.avi,noTheta,plusVideo,sp01,Dr,Gr,3,4,3,flow/blocks/NoThetaInAudio_GlobalThetaInVideo_A.csv,,,,,,,,,0,4,4,4,0,30,30,22,-0.37777777777777777,0.1111111111111111,1,0,0,5.520441300002858,call2,-0.001851851851851852,-0.3125,1,0,0,6.1921895000268705,colour4,0.3680555555555556,-0.10833333333333334,1,0,0,6.647744500020053,number3,True,False,True,13,3,2019_Nov_12_1658,MA_Theta_Exp,3.0.7,61.34453730400269,
video/Experiment/zh_sp01_Ad_Ro_4_NoThetaInAudio_GlobalThetaInVideo.avi,noTheta,plusVideo,sp01,Ad,Ro,4,4,3,flow/blocks/NoThetaInAudio_GlobalThetaInVideo_A.csv,,,,,,,,,0,4,4,4,0,31,31,11,-0.44074074074074077,0.3013888888888889,1,0,0,5.043498999992153,call1,-0.0763888888888889,-0.0763888888888889,1,0,0,5.54181370002334,colour3,0.3592592592592593,-0.32916666666666666,1,0,0,6.070372499991208,number4,True,True,True,13,3,2019_Nov_12_1658,MA_Theta_Exp,3.0.7,61.34453730400269,
