videoFile,condition,video,speaker,callSign,colour,number,seq,id,block,exp.thisRepN,exp.thisTrialN,exp.thisN,exp.thisIndex,training.thisRepN,training.thisTrialN,training.thisN,training.thisIndex,firstHalf.thisRepN,firstHalf.thisTrialN,firstHalf.thisN,firstHalf.thisIndex,blocksA.thisRepN,blocksA.thisTrialN,blocksA.thisN,blocksA.thisIndex,mouseClickOnCall.x,mouseClickOnCall.y,mouseClickOnCall.leftButton,mouseClickOnCall.midButton,mouseClickOnCall.rightButton,mouseClickOnCall.time,mouseClickOnCall.clicked_name,mouseClickOnColour.x,mouseClickOnColour.y,mouseClickOnColour.leftButton,mouseClickOnColour.midButton,mouseClickOnColour.rightButton,mouseClickOnColour.time,mouseClickOnColour.clicked_name,mouseClickOnNumber.x,mouseClickOnNumber.y,mouseClickOnNumber.leftButton,mouseClickOnNumber.midButton,mouseClickOnNumber.rightButton,mouseClickOnNumber.time,mouseClickOnNumber.clicked_name,callSignCorrect,colourCorrect,numberCorrect,participant,order,date,expName,psychopyVersion,frameRate,
video/Training/zh_sp01_Ad_We_4_NVocInAudio_NoVideo.avi,vocoded,noVideo,sp01,Ad,We,4,,,,,,,,0,0,0,0,,,,,,,,,-0.4027777777777778,0.2824074074074074,1,0,0,5.806929899961688,call1,-0.013888888888888888,-0.35138888888888886,1,0,0,7.477375100017525,colour4,0.39861111111111114,-0.3375,1,0,0,8.356669300002977,number4,True,True,True,14,4,2019_Nov_14_1001,MA_Theta_Exp,3.0.7,60.681305427465524,
video/Training/zh_sp07_Ad_Ge_3_NVocInAudio_NoVideo.avi,vocoded,noVideo,sp07,Ad,Ge,3,,,,,,,,0,1,1,1,,,,,,,,,-0.3541666666666667,0.2777777777777778,1,0,0,4.781332000042312,call1,0.06388888888888888,0.2777777777777778,1,0,0,5.56216349999886,colour1,0.39305555555555555,-0.1425925925925926,1,0,0,6.561588899989147,number3,True,True,True,14,4,2019_Nov_14_1001,MA_Theta_Exp,3.0.7,60.681305427465524,
video/Training/zh_sp01_Dr_Ro_3_NVocInAudio_GlobalThetaInVideo.avi,vocoded,plusVideo,sp01,Dr,Ro,3,,,,,,,,0,2,2,2,,,,,,,,,-0.034722222222222224,-0.08333333333333333,1,0,0,5.090945900010411,call2,0.004166666666666667,-0.062037037037037036,1,0,0,8.708510699972976,colour3,0.3972222222222222,-0.08703703703703704,1,0,0,9.439669600047637,number3,True,True,True,14,4,2019_Nov_14_1001,MA_Theta_Exp,3.0.7,60.681305427465524,
video/Training/zh_sp07_Dr_Gr_4_NVocInAudio_GlobalThetaInVideo.avi,vocoded,plusVideo,sp07,Dr,Gr,4,,,,,,,,0,3,3,3,,,,,,,,,-0.42777777777777776,0.0625,1,0,0,5.8539009999949485,call2,-0.004166666666666667,0.06666666666666667,1,0,0,6.705053300014697,colour2,0.425,-0.27175925925925926,1,0,0,7.404021400026977,number4,True,True,True,14,4,2019_Nov_14_1001,MA_Theta_Exp,3.0.7,60.681305427465524,
video/Training/zh_sp01_Ti_Gr_2_NoThetaInAudio_NoVideo.avi,noTheta,noVideo,sp01,Ti,Gr,2,,,,,,,,0,4,4,4,,,,,,,,,-0.4375,-0.2953703703703704,1,0,0,7.513771100027952,call4,-0.009722222222222222,0.1,1,0,0,8.381153499998618,colour2,0.3333333333333333,0.05185185185185185,1,0,0,9.310367800004315,number2,False,True,True,14,4,2019_Nov_14_1001,MA_Theta_Exp,3.0.7,60.681305427465524,
video/Training/zh_sp07_Ti_Ro_1_NoThetaInAudio_NoVideo.avi,noTheta,noVideo,sp07,Ti,Ro,1,,,,,,,,0,5,5,5,,,,,,,,,-0.3486111111111111,-0.09953703703703703,1,0,0,4.614773300010711,call3,-0.018055555555555554,-0.11342592592592593,1,0,0,5.317696899990551,colour3,0.35138888888888886,0.3138888888888889,1,0,0,6.279050699959043,number1,True,True,True,14,4,2019_Nov_14_1001,MA_Theta_Exp,3.0.7,60.681305427465524,
video/Training/zh_sp01_Un_Ge_1_NoThetaInAudio_GlobalThetaInVideo.avi,noTheta,plusVideo,sp01,Un,Ge,1,,,,,,,,0,6,6,6,,,,,,,,,-0.38333333333333336,-0.2953703703703704,1,0,0,7.270253099966794,call4,0.05694444444444444,-0.07083333333333333,1,0,0,8.134019199991599,colour3,0.38472222222222224,0.3375,1,0,0,8.917644899978768,number1,True,False,True,14,4,2019_Nov_14_1001,MA_Theta_Exp,3.0.7,60.681305427465524,
video/Training/zh_sp07_Un_We_2_NoThetaInAudio_GlobalThetaInVideo.avi,noTheta,plusVideo,sp07,Un,We,2,,,,,,,,0,7,7,7,,,,,,,,,-0.37083333333333335,0.01990740740740741,1,0,0,5.795113299973309,call2,-0.008333333333333333,0.03611111111111111,1,0,0,7.712777500040829,colour2,0.4305555555555556,-0.09953703703703703,1,0,0,9.080142499995418,number3,False,False,False,14,4,2019_Nov_14_1001,MA_Theta_Exp,3.0.7,60.681305427465524,
video/Training/zh_sp01_Ad_Ge_1_GlobalTheta_NoVideo.avi,globalTheta,noVideo,sp01,Ad,Ge,1,,,,,,,,0,8,8,8,,,,,,,,,-0.4,-0.09398148148148149,1,0,0,6.169695199991111,call3,-0.02638888888888889,-0.08287037037037037,1,0,0,7.007486400019843,colour3,0.3902777777777778,0.2972222222222222,1,0,0,7.87646160001168,number1,False,False,True,14,4,2019_Nov_14_1001,MA_Theta_Exp,3.0.7,60.681305427465524,
video/Training/zh_sp07_Ad_Ro_3_GlobalTheta_NoVideo.avi,globalTheta,noVideo,sp07,Ad,Ro,3,,,,,,,,0,9,9,9,,,,,,,,,-0.36527777777777776,0.30462962962962964,1,0,0,5.142725999990944,call1,-0.02638888888888889,-0.30648148148148147,1,0,0,6.653171699959785,colour4,0.3597222222222222,-0.23981481481481481,1,0,0,7.599207099992782,number4,True,False,False,14,4,2019_Nov_14_1001,MA_Theta_Exp,3.0.7,60.681305427465524,
video/Experiment/zh_sp01_Dr_Ro_3_NVocInAudio_GlobalThetaInVideo.avi,vocoded,plusVideo,sp01,Dr,Ro,3,0,1,flow/blocks/NVocInAudio_GlobalThetaInVideo_A.csv,,,,,,,,,0,0,0,0,0,0,0,26,-0.3902777777777778,0.08194444444444444,1,0,0,5.2746486000251025,call2,0.041666666666666664,-0.06620370370370371,1,0,0,6.191306799999438,colour3,0.3736111111111111,-0.12037037037037036,1,0,0,7.610105499974452,number3,True,True,True,14,4,2019_Nov_14_1001,MA_Theta_Exp,3.0.7,60.681305427465524,
video/Experiment/zh_sp07_Ad_Ro_3_NVocInAudio_GlobalThetaInVideo.avi,vocoded,plusVideo,sp07,Ad,Ro,3,0,1,flow/blocks/NVocInAudio_GlobalThetaInVideo_A.csv,,,,,,,,,0,0,0,0,0,1,1,10,-0.38333333333333336,0.2962962962962963,1,0,0,4.817149999958929,call1,0.004166666666666667,-0.13564814814814816,1,0,0,5.81651180004701,colour3,0.3736111111111111,-0.15231481481481482,1,0,0,7.031745099986438,number3,True,True,True,14,4,2019_Nov_14_1001,MA_Theta_Exp,3.0.7,60.681305427465524,
video/Experiment/zh_sp07_Dr_Gr_3_NVocInAudio_GlobalThetaInVideo.avi,vocoded,plusVideo,sp07,Dr,Gr,3,0,1,flow/blocks/NVocInAudio_GlobalThetaInVideo_A.csv,,,,,,,,,0,0,0,0,0,2,2,22,-0.3625,0.08888888888888889,1,0,0,5.533552800014149,call2,-0.016666666666666666,-0.04259259259259259,1,0,0,6.502554000006057,colour3,0.3472222222222222,-0.12037037037037036,1,0,0,7.617953400011174,number3,True,False,True,14,4,2019_Nov_14_1001,MA_Theta_Exp,3.0.7,60.681305427465524,
video/Experiment/zh_sp07_Ad_Ge_1_NVocInAudio_GlobalThetaInVideo.avi,vocoded,plusVideo,sp07,Ad,Ge,1,0,1,flow/blocks/NVocInAudio_GlobalThetaInVideo_A.csv,,,,,,,,,0,0,0,0,0,3,3,0,-0.4166666666666667,0.27361111111111114,1,0,0,4.697167499980424,call1,-0.022222222222222223,0.2671296296296296,1,0,0,5.527831499988679,colour1,0.37916666666666665,0.2847222222222222,1,0,0,7.308193499979097,number1,True,True,True,14,4,2019_Nov_14_1001,MA_Theta_Exp,3.0.7,60.681305427465524,
video/Experiment/zh_sp07_Ad_Ge_3_NVocInAudio_GlobalThetaInVideo.avi,vocoded,plusVideo,sp07,Ad,Ge,3,0,1,flow/blocks/NVocInAudio_GlobalThetaInVideo_A.csv,,,,,,,,,0,0,0,0,0,4,4,2,-0.4041666666666667,0.2638888888888889,1,0,0,5.094061599986162,call1,-0.011111111111111112,0.25462962962962965,1,0,0,6.081478199979756,colour1,0.38333333333333336,-0.05925925925925926,1,0,0,6.926014600030612,number3,True,True,True,14,4,2019_Nov_14_1001,MA_Theta_Exp,3.0.7,60.681305427465524,
video/Experiment/zh_sp01_Dr_Ro_2_NVocInAudio_GlobalThetaInVideo.avi,vocoded,plusVideo,sp01,Dr,Ro,2,0,1,flow/blocks/NVocInAudio_GlobalThetaInVideo_A.csv,,,,,,,,,0,0,0,0,0,5,5,25,-0.40555555555555556,0.06527777777777778,1,0,0,5.216223000024911,call2,0.05555555555555555,-0.11064814814814815,1,0,0,6.017949000000954,colour3,0.39861111111111114,0.07083333333333333,1,0,0,6.971722999995109,number2,True,True,True,14,4,2019_Nov_14_1001,MA_Theta_Exp,3.0.7,60.681305427465524,
video/Experiment/zh_sp01_Ad_Gr_4_NVocInAudio_GlobalThetaInVideo.avi,vocoded,plusVideo,sp01,Ad,Gr,4,0,1,flow/blocks/NVocInAudio_GlobalThetaInVideo_A.csv,,,,,,,,,0,0,0,0,0,6,6,7,-0.3972222222222222,0.29212962962962963,1,0,0,5.241070300049614,call1,-0.015277777777777777,-0.12453703703703704,1,0,0,7.886912200017832,colour3,0.37777777777777777,-0.33287037037037037,1,0,0,8.655027100001462,number4,True,False,True,14,4,2019_Nov_14_1001,MA_Theta_Exp,3.0.7,60.681305427465524,
video/Experiment/zh_sp07_Dr_Ro_4_NVocInAudio_GlobalThetaInVideo.avi,vocoded,plusVideo,sp07,Dr,Ro,4,0,1,flow/blocks/NVocInAudio_GlobalThetaInVideo_A.csv,,,,,,,,,0,0,0,0,0,7,7,27,-0.3888888888888889,0.10138888888888889,1,0,0,4.7401884000282735,call2,0.005555555555555556,-0.09259259259259259,1,0,0,5.376593299966771,colour3,0.40555555555555556,-0.28564814814814815,1,0,0,6.406910500023514,number4,True,True,True,14,4,2019_Nov_14_1001,MA_Theta_Exp,3.0.7,60.681305427465524,
video/Experiment/zh_sp01_Ad_Ge_4_NVocInAudio_GlobalThetaInVideo.avi,vocoded,plusVideo,sp01,Ad,Ge,4,0,1,flow/blocks/NVocInAudio_GlobalThetaInVideo_A.csv,,,,,,,,,0,0,0,0,0,8,8,3,-0.4361111111111111,0.29768518518518516,1,0,0,5.216201099974569,call1,0.029166666666666667,0.29444444444444445,1,0,0,7.384228199953213,colour1,0.36666666666666664,-0.28564814814814815,1,0,0,8.352440999995451,number4,True,True,True,14,4,2019_Nov_14_1001,MA_Theta_Exp,3.0.7,60.681305427465524,
video/Experiment/zh_sp01_Ad_We_3_NVocInAudio_GlobalThetaInVideo.avi,vocoded,plusVideo,sp01,Ad,We,3,0,1,flow/blocks/NVocInAudio_GlobalThetaInVideo_A.csv,,,,,,,,,0,0,0,0,0,9,9,14,-0.39166666666666666,0.2777777777777778,1,0,0,5.3915761999669485,call1,-0.005555555555555556,-0.3050925925925926,1,0,0,6.477990200044587,colour4,0.3875,-0.11527777777777778,1,0,0,7.3620953999925405,number3,True,True,True,14,4,2019_Nov_14_1001,MA_Theta_Exp,3.0.7,60.681305427465524,
video/Experiment/zh_sp01_Dr_We_4_NVocInAudio_GlobalThetaInVideo.avi,vocoded,plusVideo,sp01,Dr,We,4,0,1,flow/blocks/NVocInAudio_GlobalThetaInVideo_A.csv,,,,,,,,,0,0,0,0,0,10,10,31,-0.4097222222222222,0.07407407407407407,1,0,0,5.073467200039886,call2,-0.020833333333333332,-0.3439814814814815,1,0,0,6.0114101999788545,colour4,0.3861111111111111,-0.3194444444444444,1,0,0,6.859424799971748,number4,True,True,True,14,4,2019_Nov_14_1001,MA_Theta_Exp,3.0.7,60.681305427465524,
video/Experiment/zh_sp01_Ad_We_4_NVocInAudio_GlobalThetaInVideo.avi,vocoded,plusVideo,sp01,Ad,We,4,0,1,flow/blocks/NVocInAudio_GlobalThetaInVideo_A.csv,,,,,,,,,0,0,0,0,0,11,11,15,-0.39861111111111114,0.3,1,0,0,5.0506914999568835,call1,0.025,-0.29398148148148145,1,0,0,5.997256800008472,colour4,0.4166666666666667,-0.3458333333333333,1,0,0,6.953213699976914,number4,True,True,True,14,4,2019_Nov_14_1001,MA_Theta_Exp,3.0.7,60.681305427465524,
video/Experiment/zh_sp01_Dr_Gr_2_NVocInAudio_GlobalThetaInVideo.avi,vocoded,plusVideo,sp01,Dr,Gr,2,0,1,flow/blocks/NVocInAudio_GlobalThetaInVideo_A.csv,,,,,,,,,0,0,0,0,0,12,12,21,-0.3902777777777778,0.12916666666666668,1,0,0,5.80722680001054,call2,0.013888888888888888,0.10046296296296296,1,0,0,7.355131899996195,colour2,0.36666666666666664,0.06712962962962964,1,0,0,8.088943200011272,number2,True,True,True,14,4,2019_Nov_14_1001,MA_Theta_Exp,3.0.7,60.681305427465524,
video/Experiment/zh_sp07_Dr_We_3_NVocInAudio_GlobalThetaInVideo.avi,vocoded,plusVideo,sp07,Dr,We,3,0,1,flow/blocks/NVocInAudio_GlobalThetaInVideo_A.csv,,,,,,,,,0,0,0,0,0,13,13,30,-0.3263888888888889,0.07407407407407407,1,0,0,4.53076009999495,call2,-0.04027777777777778,-0.3050925925925926,1,0,0,5.635547700047027,colour4,0.4,-0.17083333333333334,1,0,0,6.451064400025643,number3,True,True,True,14,4,2019_Nov_14_1001,MA_Theta_Exp,3.0.7,60.681305427465524,
video/Experiment/zh_sp01_Ad_Ge_2_NVocInAudio_GlobalThetaInVideo.avi,vocoded,plusVideo,sp01,Ad,Ge,2,0,1,flow/blocks/NVocInAudio_GlobalThetaInVideo_A.csv,,,,,,,,,0,0,0,0,0,14,14,1,-0.3458333333333333,0.2712962962962963,1,0,0,5.121784599963576,call1,-0.011111111111111112,0.2569444444444444,1,0,0,5.973016700008884,colour1,0.41805555555555557,0.08935185185185185,1,0,0,6.67139719997067,number2,True,True,True,14,4,2019_Nov_14_1001,MA_Theta_Exp,3.0.7,60.681305427465524,
video/Experiment/zh_sp07_Ad_We_1_NVocInAudio_GlobalThetaInVideo.avi,vocoded,plusVideo,sp07,Ad,We,1,0,1,flow/blocks/NVocInAudio_GlobalThetaInVideo_A.csv,,,,,,,,,0,0,0,0,0,15,15,12,-0.4013888888888889,0.30694444444444446,1,0,0,4.423480800003745,call1,-0.005555555555555556,-0.28564814814814815,1,0,0,5.278695499990135,colour4,0.39166666666666666,0.32083333333333336,1,0,0,6.239177600014955,number1,True,True,True,14,4,2019_Nov_14_1001,MA_Theta_Exp,3.0.7,60.681305427465524,
video/Experiment/zh_sp01_Dr_Gr_1_NVocInAudio_GlobalThetaInVideo.avi,vocoded,plusVideo,sp01,Dr,Gr,1,0,1,flow/blocks/NVocInAudio_GlobalThetaInVideo_A.csv,,,,,,,,,0,0,0,0,0,16,16,20,-0.4152777777777778,0.12638888888888888,1,0,0,5.711568100028671,call2,-0.03194444444444444,0.11157407407407408,1,0,0,6.317284799995832,colour2,0.39305555555555555,0.2902777777777778,1,0,0,7.119639199983794,number1,True,True,True,14,4,2019_Nov_14_1001,MA_Theta_Exp,3.0.7,60.681305427465524,
video/Experiment/zh_sp07_Ad_Ro_1_NVocInAudio_GlobalThetaInVideo.avi,vocoded,plusVideo,sp07,Ad,Ro,1,0,1,flow/blocks/NVocInAudio_GlobalThetaInVideo_A.csv,,,,,,,,,0,0,0,0,0,17,17,8,-0.3736111111111111,0.3013888888888889,1,0,0,4.447103199956473,call1,-0.013888888888888888,-0.12037037037037036,1,0,0,5.181714600010309,colour3,0.36944444444444446,0.2722222222222222,1,0,0,6.015679800009821,number1,True,True,True,14,4,2019_Nov_14_1001,MA_Theta_Exp,3.0.7,60.681305427465524,
video/Experiment/zh_sp01_Ad_We_2_NVocInAudio_GlobalThetaInVideo.avi,vocoded,plusVideo,sp01,Ad,We,2,0,1,flow/blocks/NVocInAudio_GlobalThetaInVideo_A.csv,,,,,,,,,0,0,0,0,0,18,18,13,-0.40694444444444444,0.25,1,0,0,5.246097999974154,call1,-0.05138888888888889,-0.32731481481481484,1,0,0,6.130517600046005,colour4,0.39166666666666666,0.08194444444444444,1,0,0,6.967960199981462,number2,True,True,True,14,4,2019_Nov_14_1001,MA_Theta_Exp,3.0.7,60.681305427465524,
video/Experiment/zh_sp07_Ad_Ro_2_NVocInAudio_GlobalThetaInVideo.avi,vocoded,plusVideo,sp07,Ad,Ro,2,0,1,flow/blocks/NVocInAudio_GlobalThetaInVideo_A.csv,,,,,,,,,0,0,0,0,0,19,19,9,-0.3736111111111111,0.29212962962962963,1,0,0,4.697213299979921,call1,0.008333333333333333,-0.062037037037037036,1,0,0,5.446921800030395,colour3,0.39305555555555555,0.08611111111111111,1,0,0,6.400376299978234,number2,True,True,True,14,4,2019_Nov_14_1001,MA_Theta_Exp,3.0.7,60.681305427465524,
video/Experiment/zh_sp01_Dr_Ge_2_NVocInAudio_GlobalThetaInVideo.avi,vocoded,plusVideo,sp01,Dr,Ge,2,0,1,flow/blocks/NVocInAudio_GlobalThetaInVideo_A.csv,,,,,,,,,0,0,0,0,0,20,20,17,-0.3486111111111111,0.05555555555555555,1,0,0,5.224599900015164,call2,-0.06666666666666667,0.2847222222222222,1,0,0,5.877351599978283,colour1,0.4625,0.08657407407407407,1,0,0,6.641453400021419,number2,True,True,True,14,4,2019_Nov_14_1001,MA_Theta_Exp,3.0.7,60.681305427465524,
video/Experiment/zh_sp07_Ad_Ro_4_NVocInAudio_GlobalThetaInVideo.avi,vocoded,plusVideo,sp07,Ad,Ro,4,0,1,flow/blocks/NVocInAudio_GlobalThetaInVideo_A.csv,,,,,,,,,0,0,0,0,0,21,21,11,-0.40555555555555556,0.27361111111111114,1,0,0,4.64523000002373,call1,-0.05277777777777778,-0.08981481481481482,1,0,0,5.514615399995819,colour3,0.3958333333333333,-0.3162037037037037,1,0,0,6.645132099976763,number4,True,True,True,14,4,2019_Nov_14_1001,MA_Theta_Exp,3.0.7,60.681305427465524,
video/Experiment/zh_sp01_Dr_Ge_1_NVocInAudio_GlobalThetaInVideo.avi,vocoded,plusVideo,sp01,Dr,Ge,1,0,1,flow/blocks/NVocInAudio_GlobalThetaInVideo_A.csv,,,,,,,,,0,0,0,0,0,22,22,16,-0.33194444444444443,0.06018518518518518,1,0,0,5.280026199994609,call2,0.05,0.28194444444444444,1,0,0,6.0554294000030495,colour1,0.3819444444444444,0.2462962962962963,1,0,0,6.99647620000178,number1,True,True,True,14,4,2019_Nov_14_1001,MA_Theta_Exp,3.0.7,60.681305427465524,
video/Experiment/zh_sp07_Ad_Gr_1_NVocInAudio_GlobalThetaInVideo.avi,vocoded,plusVideo,sp07,Ad,Gr,1,0,1,flow/blocks/NVocInAudio_GlobalThetaInVideo_A.csv,,,,,,,,,0,0,0,0,0,23,23,4,-0.42916666666666664,0.3111111111111111,1,0,0,4.632256500015501,call1,-0.011111111111111112,0.11805555555555555,1,0,0,5.6960428999736905,colour2,0.3902777777777778,0.275,1,0,0,6.583170499943662,number1,True,True,True,14,4,2019_Nov_14_1001,MA_Theta_Exp,3.0.7,60.681305427465524,
video/Experiment/zh_sp01_Dr_Gr_4_NVocInAudio_GlobalThetaInVideo.avi,vocoded,plusVideo,sp01,Dr,Gr,4,0,1,flow/blocks/NVocInAudio_GlobalThetaInVideo_A.csv,,,,,,,,,0,0,0,0,0,24,24,23,-0.3763888888888889,0.09861111111111111,1,0,0,5.427222099970095,call2,-0.02638888888888889,0.08657407407407407,1,0,0,6.542953700001817,colour2,0.37083333333333335,-0.28703703703703703,1,0,0,7.493035199993756,number4,True,True,True,14,4,2019_Nov_14_1001,MA_Theta_Exp,3.0.7,60.681305427465524,
video/Experiment/zh_sp07_Dr_Ge_3_NVocInAudio_GlobalThetaInVideo.avi,vocoded,plusVideo,sp07,Dr,Ge,3,0,1,flow/blocks/NVocInAudio_GlobalThetaInVideo_A.csv,,,,,,,,,0,0,0,0,0,25,25,18,-0.41805555555555557,0.09768518518518518,1,0,0,4.536172899999656,call2,0.02361111111111111,0.2708333333333333,1,0,0,6.301859899947885,colour1,0.37916666666666665,-0.10648148148148148,1,0,0,7.400938700011466,number3,True,True,True,14,4,2019_Nov_14_1001,MA_Theta_Exp,3.0.7,60.681305427465524,
video/Experiment/zh_sp07_Dr_Ge_4_NVocInAudio_GlobalThetaInVideo.avi,vocoded,plusVideo,sp07,Dr,Ge,4,0,1,flow/blocks/NVocInAudio_GlobalThetaInVideo_A.csv,,,,,,,,,0,0,0,0,0,26,26,19,-0.39861111111111114,0.09444444444444444,1,0,0,4.594092199986335,call2,-0.001388888888888889,0.29583333333333334,1,0,0,5.261088600032963,colour1,0.3958333333333333,-0.2884259259259259,1,0,0,6.08215560001554,number4,True,True,True,14,4,2019_Nov_14_1001,MA_Theta_Exp,3.0.7,60.681305427465524,
video/Experiment/zh_sp01_Dr_We_2_NVocInAudio_GlobalThetaInVideo.avi,vocoded,plusVideo,sp01,Dr,We,2,0,1,flow/blocks/NVocInAudio_GlobalThetaInVideo_A.csv,,,,,,,,,0,0,0,0,0,27,27,29,-0.37777777777777777,0.07222222222222222,1,0,0,5.1656750999973156,call2,-0.0125,-0.2773148148148148,1,0,0,5.965357400011271,colour4,0.3861111111111111,0.10555555555555556,1,0,0,7.440552199957892,number2,True,True,True,14,4,2019_Nov_14_1001,MA_Theta_Exp,3.0.7,60.681305427465524,
video/Experiment/zh_sp07_Dr_We_1_NVocInAudio_GlobalThetaInVideo.avi,vocoded,plusVideo,sp07,Dr,We,1,0,1,flow/blocks/NVocInAudio_GlobalThetaInVideo_A.csv,,,,,,,,,0,0,0,0,0,28,28,28,-0.37083333333333335,0.08194444444444444,1,0,0,4.464031599985901,call2,0.001388888888888889,-0.2537037037037037,1,0,0,5.246749199985061,colour4,0.37222222222222223,0.25833333333333336,1,0,0,6.129446699982509,number1,True,True,True,14,4,2019_Nov_14_1001,MA_Theta_Exp,3.0.7,60.681305427465524,
video/Experiment/zh_sp07_Ad_Gr_3_NVocInAudio_GlobalThetaInVideo.avi,vocoded,plusVideo,sp07,Ad,Gr,3,0,1,flow/blocks/NVocInAudio_GlobalThetaInVideo_A.csv,,,,,,,,,0,0,0,0,0,29,29,6,-0.3236111111111111,0.0625,1,0,0,4.665529499994591,call2,-0.027777777777777776,0.12222222222222222,1,0,0,5.219305900041945,colour2,0.3680555555555556,-0.08703703703703704,1,0,0,5.937662300013471,number3,False,True,True,14,4,2019_Nov_14_1001,MA_Theta_Exp,3.0.7,60.681305427465524,
video/Experiment/zh_sp01_Ad_Gr_2_NVocInAudio_GlobalThetaInVideo.avi,vocoded,plusVideo,sp01,Ad,Gr,2,0,1,flow/blocks/NVocInAudio_GlobalThetaInVideo_A.csv,,,,,,,,,0,0,0,0,0,30,30,5,-0.425,0.2847222222222222,1,0,0,5.189982799987774,call1,-0.043055555555555555,0.07407407407407407,1,0,0,5.8613599999807775,colour2,0.39166666666666666,0.10555555555555556,1,0,0,6.659868899965659,number2,True,True,True,14,4,2019_Nov_14_1001,MA_Theta_Exp,3.0.7,60.681305427465524,
video/Experiment/zh_sp07_Dr_Ro_1_NVocInAudio_GlobalThetaInVideo.avi,vocoded,plusVideo,sp07,Dr,Ro,1,0,1,flow/blocks/NVocInAudio_GlobalThetaInVideo_A.csv,,,,,,,,,0,0,0,0,0,31,31,24,-0.4152777777777778,0.1111111111111111,1,0,0,4.554031100007705,call2,-0.015277777777777777,-0.08703703703703704,1,0,0,5.255212499992922,colour3,0.3638888888888889,0.2569444444444444,1,0,0,6.0664956999826245,number1,True,True,True,14,4,2019_Nov_14_1001,MA_Theta_Exp,3.0.7,60.681305427465524,
video/Experiment/zh_sp01_Ad_We_4_NoThetaInAudio_NoVideo.avi,noTheta,noVideo,sp01,Ad,We,4,1,4,flow/blocks/NoThetaInAudio_NoVideo_A.csv,,,,,,,,,0,1,1,1,0,0,0,15,-0.36527777777777776,0.29212962962962963,1,0,0,6.383039099979214,call1,0.03611111111111111,-0.32037037037037036,1,0,0,7.1854800000437535,colour4,0.4375,-0.3125,1,0,0,7.920595999981742,number4,True,True,True,14,4,2019_Nov_14_1001,MA_Theta_Exp,3.0.7,60.681305427465524,
video/Experiment/zh_sp07_Dr_Gr_2_NoThetaInAudio_NoVideo.avi,noTheta,noVideo,sp07,Dr,Gr,2,1,4,flow/blocks/NoThetaInAudio_NoVideo_A.csv,,,,,,,,,0,1,1,1,0,1,1,21,-0.4125,0.2513888888888889,1,0,0,5.29879610001808,call1,0.025,0.08935185185185185,1,0,0,5.984854999987874,colour2,0.4527777777777778,0.08935185185185185,1,0,0,6.890712500025984,number2,False,True,True,14,4,2019_Nov_14_1001,MA_Theta_Exp,3.0.7,60.681305427465524,
video/Experiment/zh_sp01_Dr_Ro_3_NoThetaInAudio_NoVideo.avi,noTheta,noVideo,sp01,Dr,Ro,3,1,4,flow/blocks/NoThetaInAudio_NoVideo_A.csv,,,,,,,,,0,1,1,1,0,2,2,26,-0.3736111111111111,0.029166666666666667,1,0,0,6.663884599984158,call2,-0.03611111111111111,-0.06481481481481481,1,0,0,8.02689169999212,colour3,0.3972222222222222,-0.07314814814814814,1,0,0,8.775622100045439,number3,True,True,True,14,4,2019_Nov_14_1001,MA_Theta_Exp,3.0.7,60.681305427465524,
video/Experiment/zh_sp07_Ad_Ro_1_NoThetaInAudio_NoVideo.avi,noTheta,noVideo,sp07,Ad,Ro,1,1,4,flow/blocks/NoThetaInAudio_NoVideo_A.csv,,,,,,,,,0,1,1,1,0,3,3,8,-0.41388888888888886,0.28379629629629627,1,0,0,4.400812599982601,call1,0.008333333333333333,-0.07175925925925926,1,0,0,5.33435549994465,colour3,0.3958333333333333,0.24166666666666667,1,0,0,6.169098299986217,number1,True,True,True,14,4,2019_Nov_14_1001,MA_Theta_Exp,3.0.7,60.681305427465524,
video/Experiment/zh_sp07_Dr_Gr_1_NoThetaInAudio_NoVideo.avi,noTheta,noVideo,sp07,Dr,Gr,1,1,4,flow/blocks/NoThetaInAudio_NoVideo_A.csv,,,,,,,,,0,1,1,1,0,4,4,20,-0.3541666666666667,0.03333333333333333,1,0,0,5.259363799996208,call2,-0.06111111111111111,0.10694444444444444,1,0,0,5.813141999999061,colour2,0.3611111111111111,0.24166666666666667,1,0,0,6.591041400039103,number1,True,True,True,14,4,2019_Nov_14_1001,MA_Theta_Exp,3.0.7,60.681305427465524,
video/Experiment/zh_sp01_Ad_Ge_3_NoThetaInAudio_NoVideo.avi,noTheta,noVideo,sp01,Ad,Ge,3,1,4,flow/blocks/NoThetaInAudio_NoVideo_A.csv,,,,,,,,,0,1,1,1,0,5,5,2,-0.38333333333333336,0.33101851851851855,1,0,0,4.83467060001567,call1,0.005555555555555556,0.27824074074074073,1,0,0,5.564759599976242,colour1,0.40555555555555556,-0.11481481481481481,1,0,0,6.412116499966942,number3,True,True,True,14,4,2019_Nov_14_1001,MA_Theta_Exp,3.0.7,60.681305427465524,
video/Experiment/zh_sp07_Ad_Ro_2_NoThetaInAudio_NoVideo.avi,noTheta,noVideo,sp07,Ad,Ro,2,1,4,flow/blocks/NoThetaInAudio_NoVideo_A.csv,,,,,,,,,0,1,1,1,0,6,6,9,-0.4222222222222222,0.28888888888888886,1,0,0,4.522220399987418,call1,-0.05277777777777778,-0.07592592592592592,1,0,0,5.290557200030889,colour3,0.35833333333333334,0.05416666666666667,1,0,0,5.909454400010873,number2,True,True,True,14,4,2019_Nov_14_1001,MA_Theta_Exp,3.0.7,60.681305427465524,
video/Experiment/zh_sp01_Dr_We_3_NoThetaInAudio_NoVideo.avi,noTheta,noVideo,sp01,Dr,We,3,1,4,flow/blocks/NoThetaInAudio_NoVideo_A.csv,,,,,,,,,0,1,1,1,0,7,7,30,-0.41944444444444445,0.1,1,0,0,4.930759399954695,call2,0.008333333333333333,-0.28564814814814815,1,0,0,5.644434200017713,colour4,0.4152777777777778,-0.11342592592592593,1,0,0,6.300342299975455,number3,True,True,True,14,4,2019_Nov_14_1001,MA_Theta_Exp,3.0.7,60.681305427465524,
video/Experiment/zh_sp01_Ad_We_3_NoThetaInAudio_NoVideo.avi,noTheta,noVideo,sp01,Ad,We,3,1,4,flow/blocks/NoThetaInAudio_NoVideo_A.csv,,,,,,,,,0,1,1,1,0,8,8,14,-0.4361111111111111,0.28055555555555556,1,0,0,4.988390699960291,call1,0.03888888888888889,-0.324537037037037,1,0,0,5.838165900029708,colour4,0.3819444444444444,-0.09861111111111111,1,0,0,6.636523600027431,number3,True,True,True,14,4,2019_Nov_14_1001,MA_Theta_Exp,3.0.7,60.681305427465524,
video/Experiment/zh_sp01_Ad_We_2_NoThetaInAudio_NoVideo.avi,noTheta,noVideo,sp01,Ad,We,2,1,4,flow/blocks/NoThetaInAudio_NoVideo_A.csv,,,,,,,,,0,1,1,1,0,9,9,13,-0.43194444444444446,0.26157407407407407,1,0,0,5.0711919000023045,call1,-0.034722222222222224,-0.26342592592592595,1,0,0,5.918160800007172,colour4,0.43472222222222223,0.0625,1,0,0,6.7522824999759905,number2,True,True,True,14,4,2019_Nov_14_1001,MA_Theta_Exp,3.0.7,60.681305427465524,
video/Experiment/zh_sp01_Dr_Ro_4_NoThetaInAudio_NoVideo.avi,noTheta,noVideo,sp01,Dr,Ro,4,1,4,flow/blocks/NoThetaInAudio_NoVideo_A.csv,,,,,,,,,0,1,1,1,0,10,10,27,-0.38055555555555554,0.12268518518518519,1,0,0,5.839811699988786,call2,-0.05416666666666667,-0.08009259259259259,1,0,0,7.108483699965291,colour3,0.43472222222222223,-0.35509259259259257,1,0,0,8.19166980002774,number4,True,True,True,14,4,2019_Nov_14_1001,MA_Theta_Exp,3.0.7,60.681305427465524,
video/Experiment/zh_sp01_Dr_Gr_4_NoThetaInAudio_NoVideo.avi,noTheta,noVideo,sp01,Dr,Gr,4,1,4,flow/blocks/NoThetaInAudio_NoVideo_A.csv,,,,,,,,,0,1,1,1,0,11,11,23,-0.3638888888888889,0.05462962962962963,1,0,0,5.277938499988522,call2,-0.08472222222222223,0.0763888888888889,1,0,0,5.906375399965327,colour2,0.3888888888888889,-0.3648148148148148,1,0,0,6.827593400026672,number4,True,True,True,14,4,2019_Nov_14_1001,MA_Theta_Exp,3.0.7,60.681305427465524,
video/Experiment/zh_sp07_Ad_Gr_2_NoThetaInAudio_NoVideo.avi,noTheta,noVideo,sp07,Ad,Gr,2,1,4,flow/blocks/NoThetaInAudio_NoVideo_A.csv,,,,,,,,,0,1,1,1,0,12,12,5,-0.3972222222222222,0.1,1,0,0,5.022242500039283,call2,0.020833333333333332,0.09490740740740741,1,0,0,5.574679900018964,colour2,0.37083333333333335,0.10416666666666667,1,0,0,6.2068960999604315,number2,False,True,True,14,4,2019_Nov_14_1001,MA_Theta_Exp,3.0.7,60.681305427465524,
video/Experiment/zh_sp07_Dr_Ge_4_NoThetaInAudio_NoVideo.avi,noTheta,noVideo,sp07,Dr,Ge,4,1,4,flow/blocks/NoThetaInAudio_NoVideo_A.csv,,,,,,,,,0,1,1,1,0,13,13,19,-0.37083333333333335,0.09212962962962963,1,0,0,4.65569740004139,call2,-0.043055555555555555,0.2875,1,0,0,5.555601099971682,colour1,0.39305555555555555,-0.29583333333333334,1,0,0,6.390639799996279,number4,True,True,True,14,4,2019_Nov_14_1001,MA_Theta_Exp,3.0.7,60.681305427465524,
video/Experiment/zh_sp07_Ad_Ge_1_NoThetaInAudio_NoVideo.avi,noTheta,noVideo,sp07,Ad,Ge,1,1,4,flow/blocks/NoThetaInAudio_NoVideo_A.csv,,,,,,,,,0,1,1,1,0,14,14,0,-0.3902777777777778,0.28379629629629627,1,0,0,4.4212850000476465,call1,-0.05694444444444444,0.29907407407407405,1,0,0,5.170335299975704,colour1,0.4027777777777778,0.26990740740740743,1,0,0,5.934763800003566,number1,True,True,True,14,4,2019_Nov_14_1001,MA_Theta_Exp,3.0.7,60.681305427465524,
video/Experiment/zh_sp07_Dr_Ge_1_NoThetaInAudio_NoVideo.avi,noTheta,noVideo,sp07,Dr,Ge,1,1,4,flow/blocks/NoThetaInAudio_NoVideo_A.csv,,,,,,,,,0,1,1,1,0,15,15,16,-0.325,0.287962962962963,1,0,0,4.450744800036773,call1,-0.001388888888888889,0.29907407407407405,1,0,0,5.184533499996178,colour1,0.3763888888888889,0.27546296296296297,1,0,0,6.019313600030728,number1,False,True,True,14,4,2019_Nov_14_1001,MA_Theta_Exp,3.0.7,60.681305427465524,
video/Experiment/zh_sp07_Dr_Ro_1_NoThetaInAudio_NoVideo.avi,noTheta,noVideo,sp07,Dr,Ro,1,1,4,flow/blocks/NoThetaInAudio_NoVideo_A.csv,,,,,,,,,0,1,1,1,0,16,16,24,-0.3902777777777778,0.2638888888888889,1,0,0,4.300984099972993,call1,-0.027777777777777776,-0.05648148148148148,1,0,0,5.036090300010983,colour3,0.44583333333333336,0.2763888888888889,1,0,0,5.8203210000065155,number1,False,True,True,14,4,2019_Nov_14_1001,MA_Theta_Exp,3.0.7,60.681305427465524,
video/Experiment/zh_sp01_Dr_We_2_NoThetaInAudio_NoVideo.avi,noTheta,noVideo,sp01,Dr,We,2,1,4,flow/blocks/NoThetaInAudio_NoVideo_A.csv,,,,,,,,,0,1,1,1,0,17,17,29,-0.4027777777777778,0.06666666666666667,1,0,0,5.579787199967541,call2,-0.011111111111111112,-0.324537037037037,1,0,0,6.428848700015806,colour4,0.3861111111111111,0.10462962962962963,1,0,0,7.292381400009617,number2,True,True,True,14,4,2019_Nov_14_1001,MA_Theta_Exp,3.0.7,60.681305427465524,
video/Experiment/zh_sp07_Ad_Ge_4_NoThetaInAudio_NoVideo.avi,noTheta,noVideo,sp07,Ad,Ge,4,1,4,flow/blocks/NoThetaInAudio_NoVideo_A.csv,,,,,,,,,0,1,1,1,0,18,18,3,-0.3875,0.2875,1,0,0,4.604092300054617,call1,0.09166666666666666,0.03518518518518519,1,0,0,6.053177799971309,colour2,0.3625,-0.28425925925925927,1,0,0,7.301659699995071,number4,True,False,True,14,4,2019_Nov_14_1001,MA_Theta_Exp,3.0.7,60.681305427465524,
video/Experiment/zh_sp07_Dr_Gr_3_NoThetaInAudio_NoVideo.avi,noTheta,noVideo,sp07,Dr,Gr,3,1,4,flow/blocks/NoThetaInAudio_NoVideo_A.csv,,,,,,,,,0,1,1,1,0,19,19,22,-0.35,0.28379629629629627,1,0,0,4.5396680000121705,call1,0.002777777777777778,0.1087962962962963,1,0,0,5.119987200014293,colour2,0.4111111111111111,-0.09953703703703703,1,0,0,5.841153899964411,number3,False,True,True,14,4,2019_Nov_14_1001,MA_Theta_Exp,3.0.7,60.681305427465524,
video/Experiment/zh_sp01_Ad_Gr_3_NoThetaInAudio_NoVideo.avi,noTheta,noVideo,sp01,Ad,Gr,3,1,4,flow/blocks/NoThetaInAudio_NoVideo_A.csv,,,,,,,,,0,1,1,1,0,20,20,6,-0.37916666666666665,0.3101851851851852,1,0,0,5.484194900025614,call1,0.006944444444444444,0.12962962962962962,1,0,0,6.2688373000128195,colour2,0.37083333333333335,-0.11064814814814815,1,0,0,7.252162999997381,number3,True,True,True,14,4,2019_Nov_14_1001,MA_Theta_Exp,3.0.7,60.681305427465524,
video/Experiment/zh_sp07_Ad_Gr_1_NoThetaInAudio_NoVideo.avi,noTheta,noVideo,sp07,Ad,Gr,1,1,4,flow/blocks/NoThetaInAudio_NoVideo_A.csv,,,,,,,,,0,1,1,1,0,21,21,4,-0.4027777777777778,0.3013888888888889,1,0,0,4.460933800030034,call1,-0.03888888888888889,0.11574074074074074,1,0,0,5.056243699975312,colour2,0.3472222222222222,0.275,1,0,0,5.6744194000493735,number1,True,True,True,14,4,2019_Nov_14_1001,MA_Theta_Exp,3.0.7,60.681305427465524,
video/Experiment/zh_sp01_Ad_Ro_3_NoThetaInAudio_NoVideo.avi,noTheta,noVideo,sp01,Ad,Ro,3,1,4,flow/blocks/NoThetaInAudio_NoVideo_A.csv,,,,,,,,,0,1,1,1,0,22,22,10,-0.4111111111111111,0.32916666666666666,1,0,0,5.7013871999806724,call1,-0.06666666666666667,0.047685185185185185,1,0,0,6.884260100021493,colour2,0.39444444444444443,-0.14814814814814814,1,0,0,7.60463700001128,number3,True,False,True,14,4,2019_Nov_14_1001,MA_Theta_Exp,3.0.7,60.681305427465524,
video/Experiment/zh_sp01_Ad_We_1_NoThetaInAudio_NoVideo.avi,noTheta,noVideo,sp01,Ad,We,1,1,4,flow/blocks/NoThetaInAudio_NoVideo_A.csv,,,,,,,,,0,1,1,1,0,23,23,12,-0.3736111111111111,0.2708333333333333,1,0,0,5.11230749997776,call1,0.022222222222222223,-0.2967592592592593,1,0,0,6.011091199994553,colour4,0.35,0.2791666666666667,1,0,0,6.858148500032257,number1,True,True,True,14,4,2019_Nov_14_1001,MA_Theta_Exp,3.0.7,60.681305427465524,
video/Experiment/zh_sp01_Dr_Ge_3_NoThetaInAudio_NoVideo.avi,noTheta,noVideo,sp01,Dr,Ge,3,1,4,flow/blocks/NoThetaInAudio_NoVideo_A.csv,,,,,,,,,0,1,1,1,0,24,24,18,-0.39166666666666666,0.12962962962962962,1,0,0,5.534652300004382,call2,-0.011111111111111112,0.2777777777777778,1,0,0,6.7527054999955,colour1,0.37083333333333335,-0.09259259259259259,1,0,0,7.5691321000340395,number3,True,True,True,14,4,2019_Nov_14_1001,MA_Theta_Exp,3.0.7,60.681305427465524,
video/Experiment/zh_sp01_Dr_We_1_NoThetaInAudio_NoVideo.avi,noTheta,noVideo,sp01,Dr,We,1,1,4,flow/blocks/NoThetaInAudio_NoVideo_A.csv,,,,,,,,,0,1,1,1,0,25,25,28,-0.3527777777777778,0.10416666666666667,1,0,0,5.312990700011142,call2,0.03194444444444444,-0.29398148148148145,1,0,0,6.264668399991933,colour4,0.39861111111111114,0.25972222222222224,1,0,0,7.078425699961372,number1,True,True,True,14,4,2019_Nov_14_1001,MA_Theta_Exp,3.0.7,60.681305427465524,
video/Experiment/zh_sp01_Dr_Ro_2_NoThetaInAudio_NoVideo.avi,noTheta,noVideo,sp01,Dr,Ro,2,1,4,flow/blocks/NoThetaInAudio_NoVideo_A.csv,,,,,,,,,0,1,1,1,0,26,26,25,-0.4125,0.29444444444444445,1,0,0,5.750835000013467,call1,-0.0125,-0.08842592592592592,1,0,0,6.587516099971253,colour3,0.40555555555555556,0.08611111111111111,1,0,0,7.620599999965634,number2,False,True,True,14,4,2019_Nov_14_1001,MA_Theta_Exp,3.0.7,60.681305427465524,
video/Experiment/zh_sp07_Dr_We_4_NoThetaInAudio_NoVideo.avi,noTheta,noVideo,sp07,Dr,We,4,1,4,flow/blocks/NoThetaInAudio_NoVideo_A.csv,,,,,,,,,0,1,1,1,0,27,27,31,-0.44722222222222224,0.10416666666666667,1,0,0,4.5806139999767765,call2,0.0125,-0.3662037037037037,1,0,0,8.258107400033623,colour4,0.35,-0.3763888888888889,1,0,0,8.849596999993082,number4,True,True,True,14,4,2019_Nov_14_1001,MA_Theta_Exp,3.0.7,60.681305427465524,
video/Experiment/zh_sp01_Ad_Ro_4_NoThetaInAudio_NoVideo.avi,noTheta,noVideo,sp01,Ad,Ro,4,1,4,flow/blocks/NoThetaInAudio_NoVideo_A.csv,,,,,,,,,0,1,1,1,0,28,28,11,-0.4111111111111111,0.36435185185185187,1,0,0,5.21464369999012,call1,0.0,-0.05787037037037037,1,0,0,5.999370999983512,colour3,0.38055555555555554,-0.3162037037037037,1,0,0,6.7330249000224285,number4,True,True,True,14,4,2019_Nov_14_1001,MA_Theta_Exp,3.0.7,60.681305427465524,
video/Experiment/zh_sp07_Ad_Gr_4_NoThetaInAudio_NoVideo.avi,noTheta,noVideo,sp07,Ad,Gr,4,1,4,flow/blocks/NoThetaInAudio_NoVideo_A.csv,,,,,,,,,0,1,1,1,0,29,29,7,-0.3958333333333333,0.29074074074074074,1,0,0,4.320188699988648,call1,-0.020833333333333332,0.0962962962962963,1,0,0,4.906397900020238,colour2,0.3638888888888889,-0.2800925925925926,1,0,0,5.791667499986943,number4,True,True,True,14,4,2019_Nov_14_1001,MA_Theta_Exp,3.0.7,60.681305427465524,
video/Experiment/zh_sp07_Dr_Ge_2_NoThetaInAudio_NoVideo.avi,noTheta,noVideo,sp07,Dr,Ge,2,1,4,flow/blocks/NoThetaInAudio_NoVideo_A.csv,,,,,,,,,0,1,1,1,0,30,30,17,-0.4041666666666667,0.2875,1,0,0,5.110171599953901,call1,-0.06388888888888888,0.30694444444444446,1,0,0,5.91641800000798,colour1,0.3458333333333333,0.09768518518518518,1,0,0,6.678280899999663,number2,False,True,True,14,4,2019_Nov_14_1001,MA_Theta_Exp,3.0.7,60.681305427465524,
video/Experiment/zh_sp07_Ad_Ge_2_NoThetaInAudio_NoVideo.avi,noTheta,noVideo,sp07,Ad,Ge,2,1,4,flow/blocks/NoThetaInAudio_NoVideo_A.csv,,,,,,,,,0,1,1,1,0,31,31,1,-0.4027777777777778,0.3194444444444444,1,0,0,4.511400700022932,call1,0.011111111111111112,0.3143518518518518,1,0,0,5.277587399992626,colour1,0.3472222222222222,0.14907407407407408,1,0,0,6.061469000007492,number2,True,True,True,14,4,2019_Nov_14_1001,MA_Theta_Exp,3.0.7,60.681305427465524,
video/Experiment/zh_sp01_Ad_Gr_2_NVocInAudio_NoVideo.avi,vocoded,noVideo,sp01,Ad,Gr,2,2,2,flow/blocks/NVocInAudio_NoVideo_A.csv,,,,,,,,,0,2,2,2,0,0,0,5,-0.4152777777777778,0.26435185185185184,1,0,0,6.093777799978852,call1,0.07222222222222222,0.09027777777777778,1,0,0,6.911174500011839,colour2,0.3902777777777778,0.1125,1,0,0,7.560097099980339,number2,True,True,True,14,4,2019_Nov_14_1001,MA_Theta_Exp,3.0.7,60.681305427465524,
video/Experiment/zh_sp07_Dr_Ge_2_NVocInAudio_NoVideo.avi,vocoded,noVideo,sp07,Dr,Ge,2,2,2,flow/blocks/NVocInAudio_NoVideo_A.csv,,,,,,,,,0,2,2,2,0,1,1,17,-0.4236111111111111,0.10277777777777777,1,0,0,4.600169899989851,call2,-0.05694444444444444,0.29583333333333334,1,0,0,5.405225099995732,colour1,0.37083333333333335,0.08888888888888889,1,0,0,6.18559050001204,number2,True,True,True,14,4,2019_Nov_14_1001,MA_Theta_Exp,3.0.7,60.681305427465524,
video/Experiment/zh_sp07_Ad_Ge_4_NVocInAudio_NoVideo.avi,vocoded,noVideo,sp07,Ad,Ge,4,2,2,flow/blocks/NVocInAudio_NoVideo_A.csv,,,,,,,,,0,2,2,2,0,2,2,3,-0.45416666666666666,0.2708333333333333,1,0,0,4.658620300004259,call1,-0.001388888888888889,0.28935185185185186,1,0,0,5.476254599983804,colour1,0.375,-0.29259259259259257,1,0,0,6.422765099967364,number4,True,True,True,14,4,2019_Nov_14_1001,MA_Theta_Exp,3.0.7,60.681305427465524,
video/Experiment/zh_sp01_Dr_Ro_4_NVocInAudio_NoVideo.avi,vocoded,noVideo,sp01,Dr,Ro,4,2,2,flow/blocks/NVocInAudio_NoVideo_A.csv,,,,,,,,,0,2,2,2,0,3,3,27,-0.3958333333333333,0.10555555555555556,1,0,0,5.2836123000015505,call2,0.009722222222222222,-0.07592592592592592,1,0,0,6.041555999952834,colour3,0.4041666666666667,-0.3162037037037037,1,0,0,6.716807699995115,number4,True,True,True,14,4,2019_Nov_14_1001,MA_Theta_Exp,3.0.7,60.681305427465524,
video/Experiment/zh_sp01_Dr_Gr_4_NVocInAudio_NoVideo.avi,vocoded,noVideo,sp01,Dr,Gr,4,2,2,flow/blocks/NVocInAudio_NoVideo_A.csv,,,,,,,,,0,2,2,2,0,4,4,23,-0.3763888888888889,0.10324074074074074,1,0,0,5.151755099999718,call2,-0.011111111111111112,0.07685185185185185,1,0,0,5.882687300036196,colour2,0.3527777777777778,-0.33055555555555555,1,0,0,6.9354882999905385,number4,True,True,True,14,4,2019_Nov_14_1001,MA_Theta_Exp,3.0.7,60.681305427465524,
video/Experiment/zh_sp01_Ad_Gr_3_NVocInAudio_NoVideo.avi,vocoded,noVideo,sp01,Ad,Gr,3,2,2,flow/blocks/NVocInAudio_NoVideo_A.csv,,,,,,,,,0,2,2,2,0,5,5,6,-0.3902777777777778,0.31527777777777777,1,0,0,5.204710600024555,call1,0.043055555555555555,0.08935185185185185,1,0,0,5.9876949999597855,colour2,0.375,-0.11342592592592593,1,0,0,7.1198815000243485,number3,True,True,True,14,4,2019_Nov_14_1001,MA_Theta_Exp,3.0.7,60.681305427465524,
video/Experiment/zh_sp07_Ad_Ro_1_NVocInAudio_NoVideo.avi,vocoded,noVideo,sp07,Ad,Ro,1,2,2,flow/blocks/NVocInAudio_NoVideo_A.csv,,,,,,,,,0,2,2,2,0,6,6,8,-0.375,0.2712962962962963,1,0,0,4.743782599980477,call1,-0.016666666666666666,-0.07731481481481481,1,0,0,5.524623300007079,colour3,0.38333333333333336,0.34305555555555556,1,0,0,6.278843400010373,number1,True,True,True,14,4,2019_Nov_14_1001,MA_Theta_Exp,3.0.7,60.681305427465524,
video/Experiment/zh_sp07_Dr_Gr_2_NVocInAudio_NoVideo.avi,vocoded,noVideo,sp07,Dr,Gr,2,2,2,flow/blocks/NVocInAudio_NoVideo_A.csv,,,,,,,,,0,2,2,2,0,7,7,21,-0.35138888888888886,0.10555555555555556,1,0,0,4.603823100042064,call2,-0.02361111111111111,0.11990740740740741,1,0,0,5.256176399998367,colour2,0.3680555555555556,0.07685185185185185,1,0,0,5.972018199972808,number2,True,True,True,14,4,2019_Nov_14_1001,MA_Theta_Exp,3.0.7,60.681305427465524,
video/Experiment/zh_sp07_Dr_Gr_3_NVocInAudio_NoVideo.avi,vocoded,noVideo,sp07,Dr,Gr,3,2,2,flow/blocks/NVocInAudio_NoVideo_A.csv,,,,,,,,,0,2,2,2,0,8,8,22,-0.31527777777777777,0.075,1,0,0,4.531954700010829,call2,-0.016666666666666666,0.08888888888888889,1,0,0,5.184738199983258,colour2,0.37916666666666665,-0.11898148148148148,1,0,0,5.984286900027655,number3,True,True,True,14,4,2019_Nov_14_1001,MA_Theta_Exp,3.0.7,60.681305427465524,
video/Experiment/zh_sp07_Ad_Ro_2_NVocInAudio_NoVideo.avi,vocoded,noVideo,sp07,Ad,Ro,2,2,2,flow/blocks/NVocInAudio_NoVideo_A.csv,,,,,,,,,0,2,2,2,0,9,9,9,-0.35555555555555557,0.31666666666666665,1,0,0,4.698781899991445,call1,0.015277777777777777,-0.07314814814814814,1,0,0,5.499437500024214,colour3,0.4638888888888889,0.07083333333333333,1,0,0,6.346505399968009,number2,True,True,True,14,4,2019_Nov_14_1001,MA_Theta_Exp,3.0.7,60.681305427465524,
video/Experiment/zh_sp07_Dr_Gr_1_NVocInAudio_NoVideo.avi,vocoded,noVideo,sp07,Dr,Gr,1,2,2,flow/blocks/NVocInAudio_NoVideo_A.csv,,,,,,,,,0,2,2,2,0,10,10,20,-0.3875,0.08472222222222223,1,0,0,4.857977599953301,call2,-0.04722222222222222,0.10138888888888889,1,0,0,5.407623299979605,colour2,0.3486111111111111,0.29305555555555557,1,0,0,6.190649399999529,number1,True,True,True,14,4,2019_Nov_14_1001,MA_Theta_Exp,3.0.7,60.681305427465524,
video/Experiment/zh_sp07_Ad_Ro_4_NVocInAudio_NoVideo.avi,vocoded,noVideo,sp07,Ad,Ro,4,2,2,flow/blocks/NVocInAudio_NoVideo_A.csv,,,,,,,,,0,2,2,2,0,11,11,11,-0.375,0.30277777777777776,1,0,0,5.0357359000481665,call1,-0.0125,-0.08148148148148149,1,0,0,5.821254300011788,colour3,0.4083333333333333,-0.30092592592592593,1,0,0,6.407127199985553,number4,True,True,True,14,4,2019_Nov_14_1001,MA_Theta_Exp,3.0.7,60.681305427465524,
video/Experiment/zh_sp07_Dr_We_2_NVocInAudio_NoVideo.avi,vocoded,noVideo,sp07,Dr,We,2,2,2,flow/blocks/NVocInAudio_NoVideo_A.csv,,,,,,,,,0,2,2,2,0,12,12,29,-0.3902777777777778,0.09907407407407408,1,0,0,4.472876299987547,call2,0.001388888888888889,-0.2773148148148148,1,0,0,5.251510900037829,colour4,0.3541666666666667,0.06388888888888888,1,0,0,6.003844199993182,number2,True,True,True,14,4,2019_Nov_14_1001,MA_Theta_Exp,3.0.7,60.681305427465524,
video/Experiment/zh_sp01_Ad_Gr_4_NVocInAudio_NoVideo.avi,vocoded,noVideo,sp01,Ad,Gr,4,2,2,flow/blocks/NVocInAudio_NoVideo_A.csv,,,,,,,,,0,2,2,2,0,13,13,7,-0.38333333333333336,0.31527777777777777,1,0,0,5.299482100002933,call1,-0.030555555555555555,0.15046296296296297,1,0,0,5.896823499992024,colour2,0.35,-0.26064814814814813,1,0,0,6.829817399964668,number4,True,True,True,14,4,2019_Nov_14_1001,MA_Theta_Exp,3.0.7,60.681305427465524,
video/Experiment/zh_sp01_Ad_Ge_3_NVocInAudio_NoVideo.avi,vocoded,noVideo,sp01,Ad,Ge,3,2,2,flow/blocks/NVocInAudio_NoVideo_A.csv,,,,,,,,,0,2,2,2,0,14,14,2,-0.44027777777777777,0.2861111111111111,1,0,0,4.9574388999608345,call1,-0.06111111111111111,0.26990740740740743,1,0,0,5.671575899992604,colour1,0.38055555555555554,-0.13703703703703704,1,0,0,6.4596970999846235,number3,True,True,True,14,4,2019_Nov_14_1001,MA_Theta_Exp,3.0.7,60.681305427465524,
video/Experiment/zh_sp01_Ad_Ge_2_NVocInAudio_NoVideo.avi,vocoded,noVideo,sp01,Ad,Ge,2,2,2,flow/blocks/NVocInAudio_NoVideo_A.csv,,,,,,,,,0,2,2,2,0,15,15,1,-0.43194444444444446,0.33935185185185185,1,0,0,5.350770600023679,call1,-0.06527777777777778,0.29212962962962963,1,0,0,6.152520600007847,colour1,0.4527777777777778,0.07407407407407407,1,0,0,6.883637300052214,number2,True,True,True,14,4,2019_Nov_14_1001,MA_Theta_Exp,3.0.7,60.681305427465524,
video/Experiment/zh_sp01_Dr_Ro_1_NVocInAudio_NoVideo.avi,vocoded,noVideo,sp01,Dr,Ro,1,2,2,flow/blocks/NVocInAudio_NoVideo_A.csv,,,,,,,,,0,2,2,2,0,16,16,24,-0.3611111111111111,0.05277777777777778,1,0,0,5.137586899974849,call2,-0.008333333333333333,-0.09814814814814815,1,0,0,6.054665699950419,colour3,0.3541666666666667,0.27361111111111114,1,0,0,6.789599600015208,number1,True,True,True,14,4,2019_Nov_14_1001,MA_Theta_Exp,3.0.7,60.681305427465524,
video/Experiment/zh_sp01_Ad_Ro_3_NVocInAudio_NoVideo.avi,vocoded,noVideo,sp01,Ad,Ro,3,2,2,flow/blocks/NVocInAudio_NoVideo_A.csv,,,,,,,,,0,2,2,2,0,17,17,10,-0.4166666666666667,0.28379629629629627,1,0,0,5.001676000014413,call1,0.009722222222222222,-0.14675925925925926,1,0,0,5.938369999988936,colour3,0.44166666666666665,-0.14444444444444443,1,0,0,6.557975899951998,number3,True,True,True,14,4,2019_Nov_14_1001,MA_Theta_Exp,3.0.7,60.681305427465524,
video/Experiment/zh_sp07_Ad_Ge_1_NVocInAudio_NoVideo.avi,vocoded,noVideo,sp07,Ad,Ge,1,2,2,flow/blocks/NVocInAudio_NoVideo_A.csv,,,,,,,,,0,2,2,2,0,18,18,0,-0.4,0.29444444444444445,1,0,0,4.435705700016115,call1,-0.02638888888888889,0.2935185185185185,1,0,0,4.98421279998729,colour1,0.38472222222222224,0.27361111111111114,1,0,0,5.979340699966997,number1,True,True,True,14,4,2019_Nov_14_1001,MA_Theta_Exp,3.0.7,60.681305427465524,
video/Experiment/zh_sp07_Dr_Ge_4_NVocInAudio_NoVideo.avi,vocoded,noVideo,sp07,Dr,Ge,4,2,2,flow/blocks/NVocInAudio_NoVideo_A.csv,,,,,,,,,0,2,2,2,0,19,19,19,-0.37777777777777777,0.09166666666666666,1,0,0,4.560822800034657,call2,-0.03333333333333333,0.31527777777777777,1,0,0,5.221131599973887,colour1,0.3472222222222222,-0.2550925925925926,1,0,0,6.065110599971376,number4,True,True,True,14,4,2019_Nov_14_1001,MA_Theta_Exp,3.0.7,60.681305427465524,
video/Experiment/zh_sp07_Dr_Ge_3_NVocInAudio_NoVideo.avi,vocoded,noVideo,sp07,Dr,Ge,3,2,2,flow/blocks/NVocInAudio_NoVideo_A.csv,,,,,,,,,0,2,2,2,0,20,20,18,-0.4388888888888889,0.1,1,0,0,4.603820799966343,call2,-0.05416666666666667,0.26805555555555555,1,0,0,5.320325100037735,colour1,0.3638888888888889,-0.1259259259259259,1,0,0,6.265078300028108,number3,True,True,True,14,4,2019_Nov_14_1001,MA_Theta_Exp,3.0.7,60.681305427465524,
video/Experiment/zh_sp07_Ad_Gr_1_NVocInAudio_NoVideo.avi,vocoded,noVideo,sp07,Ad,Gr,1,2,2,flow/blocks/NVocInAudio_NoVideo_A.csv,,,,,,,,,0,2,2,2,0,21,21,4,-0.3958333333333333,0.30416666666666664,1,0,0,4.559106200002134,call1,0.03888888888888889,0.13796296296296295,1,0,0,5.2600221000029705,colour2,0.3763888888888889,0.26666666666666666,1,0,0,5.961380699998699,number1,True,True,True,14,4,2019_Nov_14_1001,MA_Theta_Exp,3.0.7,60.681305427465524,
video/Experiment/zh_sp07_Dr_We_1_NVocInAudio_NoVideo.avi,vocoded,noVideo,sp07,Dr,We,1,2,2,flow/blocks/NVocInAudio_NoVideo_A.csv,,,,,,,,,0,2,2,2,0,22,22,28,-0.3388888888888889,0.056018518518518516,1,0,0,5.115393000014592,call2,-0.05694444444444444,-0.2884259259259259,1,0,0,5.842860999982804,colour4,0.3861111111111111,0.3013888888888889,1,0,0,6.650407499982975,number1,True,True,True,14,4,2019_Nov_14_1001,MA_Theta_Exp,3.0.7,60.681305427465524,
video/Experiment/zh_sp01_Ad_We_3_NVocInAudio_NoVideo.avi,vocoded,noVideo,sp01,Ad,We,3,2,2,flow/blocks/NVocInAudio_NoVideo_A.csv,,,,,,,,,0,2,2,2,0,23,23,14,-0.41388888888888886,0.300462962962963,1,0,0,5.451816999993753,call1,-0.0125,-0.3148148148148148,1,0,0,6.2378171000164,colour4,0.3638888888888889,-0.13472222222222222,1,0,0,6.939647299994249,number3,True,True,True,14,4,2019_Nov_14_1001,MA_Theta_Exp,3.0.7,60.681305427465524,
video/Experiment/zh_sp01_Dr_Ro_3_NVocInAudio_NoVideo.avi,vocoded,noVideo,sp01,Dr,Ro,3,2,2,flow/blocks/NVocInAudio_NoVideo_A.csv,,,,,,,,,0,2,2,2,0,24,24,26,-0.3736111111111111,0.08333333333333333,1,0,0,5.906057700049132,call2,0.020833333333333332,-0.052314814814814814,1,0,0,6.788506000011694,colour3,0.3875,-0.1300925925925926,1,0,0,7.4247619999805465,number3,True,True,True,14,4,2019_Nov_14_1001,MA_Theta_Exp,3.0.7,60.681305427465524,
video/Experiment/zh_sp01_Dr_We_4_NVocInAudio_NoVideo.avi,vocoded,noVideo,sp01,Dr,We,4,2,2,flow/blocks/NVocInAudio_NoVideo_A.csv,,,,,,,,,0,2,2,2,0,25,25,31,-0.36944444444444446,0.1111111111111111,1,0,0,5.250396799994633,call2,-0.016666666666666666,-0.28425925925925927,1,0,0,5.979096699971706,colour4,0.46111111111111114,-0.34675925925925927,1,0,0,6.582191800000146,number4,True,True,True,14,4,2019_Nov_14_1001,MA_Theta_Exp,3.0.7,60.681305427465524,
video/Experiment/zh_sp07_Ad_We_1_NVocInAudio_NoVideo.avi,vocoded,noVideo,sp07,Ad,We,1,2,2,flow/blocks/NVocInAudio_NoVideo_A.csv,,,,,,,,,0,2,2,2,0,26,26,12,-0.39444444444444443,0.23472222222222222,1,0,0,5.9398587999749,call1,-0.025,-0.31342592592592594,1,0,0,6.6062416000058874,colour4,0.38333333333333336,0.3347222222222222,1,0,0,7.300288700032979,number1,True,True,True,14,4,2019_Nov_14_1001,MA_Theta_Exp,3.0.7,60.681305427465524,
video/Experiment/zh_sp01_Dr_Ge_1_NVocInAudio_NoVideo.avi,vocoded,noVideo,sp01,Dr,Ge,1,2,2,flow/blocks/NVocInAudio_NoVideo_A.csv,,,,,,,,,0,2,2,2,0,27,27,16,-0.36666666666666664,0.10601851851851851,1,0,0,5.474049200012814,call2,-0.009722222222222222,0.25833333333333336,1,0,0,6.15752780000912,colour1,0.35694444444444445,0.2490740740740741,1,0,0,6.860048500006087,number1,True,True,True,14,4,2019_Nov_14_1001,MA_Theta_Exp,3.0.7,60.681305427465524,
video/Experiment/zh_sp07_Dr_Ro_2_NVocInAudio_NoVideo.avi,vocoded,noVideo,sp07,Dr,Ro,2,2,2,flow/blocks/NVocInAudio_NoVideo_A.csv,,,,,,,,,0,2,2,2,0,28,28,25,-0.3597222222222222,0.08935185185185185,1,0,0,4.5809344999725,call2,-0.020833333333333332,-0.09398148148148149,1,0,0,5.156576700042933,colour3,0.3958333333333333,0.058333333333333334,1,0,0,5.955764300015289,number2,True,True,True,14,4,2019_Nov_14_1001,MA_Theta_Exp,3.0.7,60.681305427465524,
video/Experiment/zh_sp01_Ad_We_2_NVocInAudio_NoVideo.avi,vocoded,noVideo,sp01,Ad,We,2,2,2,flow/blocks/NVocInAudio_NoVideo_A.csv,,,,,,,,,0,2,2,2,0,29,29,13,-0.35138888888888886,0.2935185185185185,1,0,0,5.230211500020232,call1,-0.034722222222222224,-0.29398148148148145,1,0,0,6.280434200016316,colour4,0.4097222222222222,0.04722222222222222,1,0,0,6.9994843999738805,number2,True,True,True,14,4,2019_Nov_14_1001,MA_Theta_Exp,3.0.7,60.681305427465524,
video/Experiment/zh_sp01_Ad_We_4_NVocInAudio_NoVideo.avi,vocoded,noVideo,sp01,Ad,We,4,2,2,flow/blocks/NVocInAudio_NoVideo_A.csv,,,,,,,,,0,2,2,2,0,30,30,15,-0.3333333333333333,0.3236111111111111,1,0,0,4.961437700025272,call1,0.0,-0.24259259259259258,1,0,0,5.763745500007644,colour4,0.36944444444444446,-0.3398148148148148,1,0,0,6.466485099983402,number4,True,True,True,14,4,2019_Nov_14_1001,MA_Theta_Exp,3.0.7,60.681305427465524,
video/Experiment/zh_sp01_Dr_We_3_NVocInAudio_NoVideo.avi,vocoded,noVideo,sp01,Dr,We,3,2,2,flow/blocks/NVocInAudio_NoVideo_A.csv,,,,,,,,,0,2,2,2,0,31,31,30,-0.3861111111111111,0.07962962962962963,1,0,0,5.094601499964483,call2,-0.02361111111111111,-0.3384259259259259,1,0,0,6.408565299992915,colour4,0.37083333333333335,-0.11805555555555555,1,0,0,7.139672999968752,number3,True,True,True,14,4,2019_Nov_14_1001,MA_Theta_Exp,3.0.7,60.681305427465524,
