videoFile,condition,video,speaker,callSign,colour,number,seq,id,block,exp.thisRepN,exp.thisTrialN,exp.thisN,exp.thisIndex,training.thisRepN,training.thisTrialN,training.thisN,training.thisIndex,firstHalf.thisRepN,firstHalf.thisTrialN,firstHalf.thisN,firstHalf.thisIndex,blocksA.thisRepN,blocksA.thisTrialN,blocksA.thisN,blocksA.thisIndex,mouseClickOnCall.x,mouseClickOnCall.y,mouseClickOnCall.leftButton,mouseClickOnCall.midButton,mouseClickOnCall.rightButton,mouseClickOnCall.time,mouseClickOnCall.clicked_name,callSignCorrect,colourCorrect,numberCorrect,mouseClickOnColour.x,mouseClickOnColour.y,mouseClickOnColour.leftButton,mouseClickOnColour.midButton,mouseClickOnColour.rightButton,mouseClickOnColour.time,mouseClickOnColour.clicked_name,mouseClickOnNumber.x,mouseClickOnNumber.y,mouseClickOnNumber.leftButton,mouseClickOnNumber.midButton,mouseClickOnNumber.rightButton,mouseClickOnNumber.time,mouseClickOnNumber.clicked_name,participant,order,date,expName,psychopyVersion,frameRate,
video/Training/zh_sp01_Ad_We_4_NVocInAudio_NoVideo.avi,vocoded,noVideo,sp01,Ad,We,4,,,,,,,,0,0,0,0,,,,,,,,,-0.35185185185185186,0.2796296296296296,1,0,0,7.860252600046806,call1,True,NO_ANSW,NO_ANSW,,,,,,,,,,,,,,,17,2,2019_Nov_14_1310,MA_Theta_Exp,3.0.7,59.92433954574285,
video/Training/zh_sp07_Ad_Ge_3_NVocInAudio_NoVideo.avi,vocoded,noVideo,sp07,Ad,Ge,3,,,,,,,,0,1,1,1,,,,,,,,,-0.3425925925925926,0.2953703703703704,1,0,0,5.918600699980743,call1,True,True,True,-0.013425925925925926,0.2708333333333333,1,0,0,7.532776900043245,colour1,0.42314814814814816,-0.12083333333333333,1,0,0,8.497636599990074,number3,17,2,2019_Nov_14_1310,MA_Theta_Exp,3.0.7,59.92433954574285,
video/Training/zh_sp01_Dr_Ro_3_NVocInAudio_GlobalThetaInVideo.avi,vocoded,plusVideo,sp01,Dr,Ro,3,,,,,,,,0,2,2,2,,,,,,,,,-0.38055555555555554,0.075,1,0,0,8.263672599976417,call2,True,False,True,0.014814814814814815,0.26435185185185184,1,0,0,10.354321699996945,colour1,0.4050925925925926,-0.15601851851851853,1,0,0,11.34748200001195,number3,17,2,2019_Nov_14_1310,MA_Theta_Exp,3.0.7,59.92433954574285,
video/Training/zh_sp07_Dr_Gr_4_NVocInAudio_GlobalThetaInVideo.avi,vocoded,plusVideo,sp07,Dr,Gr,4,,,,,,,,0,3,3,3,,,,,,,,,-0.3814814814814815,0.0912037037037037,1,0,0,8.307017699989956,call2,True,True,True,0.002777777777777778,0.10046296296296296,1,0,0,9.28945520002162,colour2,0.3902777777777778,-0.2833333333333333,1,0,0,10.421302500006277,number4,17,2,2019_Nov_14_1310,MA_Theta_Exp,3.0.7,59.92433954574285,
video/Training/zh_sp01_Ti_Gr_2_NoThetaInAudio_NoVideo.avi,noTheta,noVideo,sp01,Ti,Gr,2,,,,,,,,0,4,4,4,,,,,,,,,-0.3421296296296296,0.06435185185185185,1,0,0,10.886033899965696,call2,False,True,True,-0.05555555555555555,0.04351851851851852,1,0,0,11.683568999986164,colour2,0.3527777777777778,0.06620370370370371,1,0,0,13.421303999959491,number2,17,2,2019_Nov_14_1310,MA_Theta_Exp,3.0.7,59.92433954574285,
video/Training/zh_sp07_Ti_Ro_1_NoThetaInAudio_NoVideo.avi,noTheta,noVideo,sp07,Ti,Ro,1,,,,,,,,0,5,5,5,,,,,,,,,-0.37962962962962965,0.10601851851851851,1,0,0,9.141437000012957,call2,False,False,False,-0.0787037037037037,0.08842592592592592,1,0,0,10.07369839999592,colour2,0.3365740740740741,0.07175925925925926,1,0,0,10.874139300023671,number2,17,2,2019_Nov_14_1310,MA_Theta_Exp,3.0.7,59.92433954574285,
video/Training/zh_sp01_Un_Ge_1_NoThetaInAudio_GlobalThetaInVideo.avi,noTheta,plusVideo,sp01,Un,Ge,1,,,,,,,,0,6,6,6,,,,,,,,,-0.4078703703703704,0.2796296296296296,1,0,0,10.23616689996561,call1,False,True,True,-0.012037037037037037,0.2574074074074074,1,0,0,12.103042200033087,colour1,0.33796296296296297,0.2712962962962963,1,0,0,13.337142999982461,number1,17,2,2019_Nov_14_1310,MA_Theta_Exp,3.0.7,59.92433954574285,
video/Training/zh_sp07_Un_We_2_NoThetaInAudio_GlobalThetaInVideo.avi,noTheta,plusVideo,sp07,Un,We,2,,,,,,,,0,7,7,7,,,,,,,,,-0.38564814814814813,0.2652777777777778,1,0,0,7.018678900029045,call1,False,False,False,0.038425925925925926,0.2523148148148148,1,0,0,7.700012999994215,colour1,0.37083333333333335,0.2884259259259259,1,0,0,8.759934800036717,number1,17,2,2019_Nov_14_1310,MA_Theta_Exp,3.0.7,59.92433954574285,
video/Training/zh_sp01_Ad_Ge_1_GlobalTheta_NoVideo.avi,globalTheta,noVideo,sp01,Ad,Ge,1,,,,,,,,0,8,8,8,,,,,,,,,0.04212962962962963,0.2986111111111111,1,0,0,5.878200599981938,call1,True,True,False,-0.059722222222222225,0.3,1,0,0,9.14616709999973,colour1,0.3351851851851852,0.10787037037037037,1,0,0,9.895806199987419,number2,17,2,2019_Nov_14_1310,MA_Theta_Exp,3.0.7,59.92433954574285,
video/Training/zh_sp07_Ad_Ro_3_GlobalTheta_NoVideo.avi,globalTheta,noVideo,sp07,Ad,Ro,3,,,,,,,,0,9,9,9,,,,,,,,,-0.3574074074074074,0.25925925925925924,1,0,0,8.274369399994612,call1,True,False,True,0.037037037037037035,0.2518518518518518,1,0,0,8.930326399975456,colour1,0.36064814814814816,-0.04953703703703704,1,0,0,9.826877899991814,number3,17,2,2019_Nov_14_1310,MA_Theta_Exp,3.0.7,59.92433954574285,
video/Experiment/zh_sp01_Dr_Gr_2_NoThetaInAudio_GlobalThetaInVideo.avi,noTheta,plusVideo,sp01,Dr,Gr,2,0,3,flow/blocks/NoThetaInAudio_GlobalThetaInVideo_A.csv,,,,,,,,,0,0,0,0,0,0,0,21,-0.3625,0.2791666666666667,1,0,0,10.983446399972308,call1,False,NO_ANSW,NO_ANSW,,,,,,,,,,,,,,,17,2,2019_Nov_14_1310,MA_Theta_Exp,3.0.7,59.92433954574285,
video/Experiment/zh_sp01_Dr_Ge_3_NoThetaInAudio_GlobalThetaInVideo.avi,noTheta,plusVideo,sp01,Dr,Ge,3,0,3,flow/blocks/NoThetaInAudio_GlobalThetaInVideo_A.csv,,,,,,,,,0,0,0,0,0,1,1,18,-0.350462962962963,0.2726851851851852,1,0,0,7.357773400028236,call1,False,True,True,0.016666666666666666,0.2638888888888889,1,0,0,7.94217789999675,colour1,0.3611111111111111,-0.10277777777777777,1,0,0,9.024252799979877,number3,17,2,2019_Nov_14_1310,MA_Theta_Exp,3.0.7,59.92433954574285,
video/Experiment/zh_sp07_Dr_We_1_NoThetaInAudio_GlobalThetaInVideo.avi,noTheta,plusVideo,sp07,Dr,We,1,0,3,flow/blocks/NoThetaInAudio_GlobalThetaInVideo_A.csv,,,,,,,,,0,0,0,0,0,2,2,28,-0.3592592592592593,0.29305555555555557,1,0,0,6.280034199997317,call1,False,False,False,-0.06111111111111111,0.2671296296296296,1,0,0,7.194630100042559,colour1,0.3958333333333333,0.06111111111111111,1,0,0,9.260978600010276,number2,17,2,2019_Nov_14_1310,MA_Theta_Exp,3.0.7,59.92433954574285,
video/Experiment/zh_sp07_Dr_Gr_4_NoThetaInAudio_GlobalThetaInVideo.avi,noTheta,plusVideo,sp07,Dr,Gr,4,0,3,flow/blocks/NoThetaInAudio_GlobalThetaInVideo_A.csv,,,,,,,,,0,0,0,0,0,3,3,23,-0.3439814814814815,0.28194444444444444,1,0,0,6.8015471999533474,call1,False,False,False,-0.0412037037037037,0.3,1,0,0,7.516728000016883,colour1,0.36944444444444446,-0.09583333333333334,1,0,0,8.48356339999009,number3,17,2,2019_Nov_14_1310,MA_Theta_Exp,3.0.7,59.92433954574285,
video/Experiment/zh_sp07_Ad_Ge_1_NoThetaInAudio_GlobalThetaInVideo.avi,noTheta,plusVideo,sp07,Ad,Ge,1,0,3,flow/blocks/NoThetaInAudio_GlobalThetaInVideo_A.csv,,,,,,,,,0,0,0,0,0,4,4,0,-0.37407407407407406,0.23194444444444445,1,0,0,8.148934400000144,call1,True,True,True,-0.06342592592592593,0.25277777777777777,1,0,0,8.870403899985831,colour1,0.36574074074074076,0.27824074074074073,1,0,0,10.013766399992164,number1,17,2,2019_Nov_14_1310,MA_Theta_Exp,3.0.7,59.92433954574285,
video/Experiment/zh_sp07_Dr_Ro_1_NoThetaInAudio_GlobalThetaInVideo.avi,noTheta,plusVideo,sp07,Dr,Ro,1,0,3,flow/blocks/NoThetaInAudio_GlobalThetaInVideo_A.csv,,,,,,,,,0,0,0,0,0,5,5,24,-0.40370370370370373,0.2875,1,0,0,9.45285880001029,call1,False,False,True,-0.05555555555555555,0.26944444444444443,1,0,0,11.139181800012011,colour1,0.3972222222222222,0.2662037037037037,1,0,0,12.486245799984317,number1,17,2,2019_Nov_14_1310,MA_Theta_Exp,3.0.7,59.92433954574285,
video/Experiment/zh_sp07_Dr_Ge_1_NoThetaInAudio_GlobalThetaInVideo.avi,noTheta,plusVideo,sp07,Dr,Ge,1,0,3,flow/blocks/NoThetaInAudio_GlobalThetaInVideo_A.csv,,,,,,,,,0,0,0,0,0,6,6,16,-0.3731481481481482,0.30324074074074076,1,0,0,6.8365441999631,call1,False,True,True,0.03194444444444444,0.29074074074074074,1,0,0,7.539156000013463,colour1,0.3458333333333333,0.24027777777777778,1,0,0,8.619427099998575,number1,17,2,2019_Nov_14_1310,MA_Theta_Exp,3.0.7,59.92433954574285,
video/Experiment/zh_sp01_Ad_Ro_4_NoThetaInAudio_GlobalThetaInVideo.avi,noTheta,plusVideo,sp01,Ad,Ro,4,0,3,flow/blocks/NoThetaInAudio_GlobalThetaInVideo_A.csv,,,,,,,,,0,0,0,0,0,7,7,11,-0.4125,-0.1037037037037037,1,0,0,8.141094800026622,call3,False,False,True,0.04953703703703704,0.24166666666666667,1,0,0,10.110550899989903,colour1,0.3958333333333333,-0.26990740740740743,1,0,0,11.022445500013418,number4,17,2,2019_Nov_14_1310,MA_Theta_Exp,3.0.7,59.92433954574285,
video/Experiment/zh_sp07_Ad_Ro_1_NoThetaInAudio_GlobalThetaInVideo.avi,noTheta,plusVideo,sp07,Ad,Ro,1,0,3,flow/blocks/NoThetaInAudio_GlobalThetaInVideo_A.csv,,,,,,,,,0,0,0,0,0,8,8,8,-0.35,0.27824074074074073,1,0,0,8.106712399981916,call1,True,False,True,-0.06435185185185185,0.29074074074074074,1,0,0,8.790797000052407,colour1,0.33796296296296297,0.2601851851851852,1,0,0,9.956944500037935,number1,17,2,2019_Nov_14_1310,MA_Theta_Exp,3.0.7,59.92433954574285,
video/Experiment/zh_sp01_Dr_Ge_4_NoThetaInAudio_GlobalThetaInVideo.avi,noTheta,plusVideo,sp01,Dr,Ge,4,0,3,flow/blocks/NoThetaInAudio_GlobalThetaInVideo_A.csv,,,,,,,,,0,0,0,0,0,9,9,19,-0.37777777777777777,0.2828703703703704,1,0,0,6.316627299995162,call1,False,True,True,-0.08009259259259259,0.3111111111111111,1,0,0,6.983632099989336,colour1,0.35138888888888886,-0.28935185185185186,1,0,0,7.887377699953504,number4,17,2,2019_Nov_14_1310,MA_Theta_Exp,3.0.7,59.92433954574285,
video/Experiment/zh_sp07_Ad_Ge_2_NoThetaInAudio_GlobalThetaInVideo.avi,noTheta,plusVideo,sp07,Ad,Ge,2,0,3,flow/blocks/NoThetaInAudio_GlobalThetaInVideo_A.csv,,,,,,,,,0,0,0,0,0,10,10,1,,,,,,,,NO_ANSW,NO_ANSW,NO_ANSW,,,,,,,,,,,,,,,17,2,2019_Nov_14_1310,MA_Theta_Exp,3.0.7,59.92433954574285,
video/Experiment/zh_sp01_Dr_Gr_3_NoThetaInAudio_GlobalThetaInVideo.avi,noTheta,plusVideo,sp01,Dr,Gr,3,0,3,flow/blocks/NoThetaInAudio_GlobalThetaInVideo_A.csv,,,,,,,,,0,0,0,0,0,11,11,22,-0.009259259259259259,0.06620370370370371,1,0,0,7.8422293000039645,call2,True,True,True,-0.024074074074074074,0.07083333333333333,1,0,0,10.174558800004888,colour2,0.39861111111111114,-0.1162037037037037,1,0,0,10.94080350000877,number3,17,2,2019_Nov_14_1310,MA_Theta_Exp,3.0.7,59.92433954574285,
video/Experiment/zh_sp07_Dr_Gr_1_NoThetaInAudio_GlobalThetaInVideo.avi,noTheta,plusVideo,sp07,Dr,Gr,1,0,3,flow/blocks/NoThetaInAudio_GlobalThetaInVideo_A.csv,,,,,,,,,0,0,0,0,0,12,12,20,-0.39861111111111114,-0.1037037037037037,1,0,0,10.260734000010416,call3,False,NO_ANSW,NO_ANSW,,,,,,,,,,,,,,,17,2,2019_Nov_14_1310,MA_Theta_Exp,3.0.7,59.92433954574285,
video/Experiment/zh_sp01_Ad_Ro_3_NoThetaInAudio_GlobalThetaInVideo.avi,noTheta,plusVideo,sp01,Ad,Ro,3,0,3,flow/blocks/NoThetaInAudio_GlobalThetaInVideo_A.csv,,,,,,,,,0,0,0,0,0,13,13,10,-0.3648148148148148,-0.2967592592592593,1,0,0,5.729169099999126,call4,False,False,True,-0.011111111111111112,0.2800925925925926,1,0,0,6.696960899978876,colour1,0.33101851851851855,-0.052314814814814814,1,0,0,7.56597039999906,number3,17,2,2019_Nov_14_1310,MA_Theta_Exp,3.0.7,59.92433954574285,
video/Experiment/zh_sp07_Ad_We_4_NoThetaInAudio_GlobalThetaInVideo.avi,noTheta,plusVideo,sp07,Ad,We,4,0,3,flow/blocks/NoThetaInAudio_GlobalThetaInVideo_A.csv,,,,,,,,,0,0,0,0,0,14,14,15,-0.3439814814814815,0.08055555555555556,1,0,0,5.92753410001751,call2,False,False,True,0.000462962962962963,0.062037037037037036,1,0,0,6.472688599955291,colour2,0.4152777777777778,-0.3453703703703704,1,0,0,7.17627390002599,number4,17,2,2019_Nov_14_1310,MA_Theta_Exp,3.0.7,59.92433954574285,
video/Experiment/zh_sp01_Dr_We_4_NoThetaInAudio_GlobalThetaInVideo.avi,noTheta,plusVideo,sp01,Dr,We,4,0,3,flow/blocks/NoThetaInAudio_GlobalThetaInVideo_A.csv,,,,,,,,,0,0,0,0,0,15,15,31,-0.3509259259259259,0.24814814814814815,1,0,0,6.374245600018185,call1,False,False,True,0.025,-0.09768518518518518,1,0,0,7.320160900009796,colour3,0.38472222222222224,-0.3175925925925926,1,0,0,7.988990299985744,number4,17,2,2019_Nov_14_1310,MA_Theta_Exp,3.0.7,59.92433954574285,
video/Experiment/zh_sp07_Ad_We_2_NoThetaInAudio_GlobalThetaInVideo.avi,noTheta,plusVideo,sp07,Ad,We,2,0,3,flow/blocks/NoThetaInAudio_GlobalThetaInVideo_A.csv,,,,,,,,,0,0,0,0,0,16,16,13,-0.35555555555555557,0.287962962962963,1,0,0,9.135968499991577,call1,True,NO_ANSW,NO_ANSW,,,,,,,,,,,,,,,17,2,2019_Nov_14_1310,MA_Theta_Exp,3.0.7,59.92433954574285,
video/Experiment/zh_sp01_Ad_Gr_1_NoThetaInAudio_GlobalThetaInVideo.avi,noTheta,plusVideo,sp01,Ad,Gr,1,0,3,flow/blocks/NoThetaInAudio_GlobalThetaInVideo_A.csv,,,,,,,,,0,0,0,0,0,17,17,4,-0.36574074074074076,0.11296296296296296,1,0,0,6.607446699985303,call2,False,False,True,-0.019444444444444445,-0.0824074074074074,1,0,0,7.357514000032097,colour3,0.35185185185185186,0.28194444444444444,1,0,0,8.256748599989805,number1,17,2,2019_Nov_14_1310,MA_Theta_Exp,3.0.7,59.92433954574285,
video/Experiment/zh_sp07_Dr_We_2_NoThetaInAudio_GlobalThetaInVideo.avi,noTheta,plusVideo,sp07,Dr,We,2,0,3,flow/blocks/NoThetaInAudio_GlobalThetaInVideo_A.csv,,,,,,,,,0,0,0,0,0,18,18,29,,,,,,,,NO_ANSW,NO_ANSW,NO_ANSW,,,,,,,,,,,,,,,17,2,2019_Nov_14_1310,MA_Theta_Exp,3.0.7,59.92433954574285,
video/Experiment/zh_sp07_Ad_Gr_4_NoThetaInAudio_GlobalThetaInVideo.avi,noTheta,plusVideo,sp07,Ad,Gr,4,0,3,flow/blocks/NoThetaInAudio_GlobalThetaInVideo_A.csv,,,,,,,,,0,0,0,0,0,19,19,7,-0.3592592592592593,-0.06851851851851852,1,0,0,5.505275100003928,call3,False,False,True,-0.021296296296296296,-0.1,1,0,0,6.270438799983822,colour3,0.3837962962962963,-0.325,1,0,0,7.020960799942259,number4,17,2,2019_Nov_14_1310,MA_Theta_Exp,3.0.7,59.92433954574285,
video/Experiment/zh_sp01_Ad_Gr_2_NoThetaInAudio_GlobalThetaInVideo.avi,noTheta,plusVideo,sp01,Ad,Gr,2,0,3,flow/blocks/NoThetaInAudio_GlobalThetaInVideo_A.csv,,,,,,,,,0,0,0,0,0,20,20,5,-0.36898148148148147,0.026851851851851852,1,0,0,7.4322460000403225,call2,False,False,True,-0.05648148148148148,-0.06944444444444445,1,0,0,8.06535609997809,colour3,0.37962962962962965,0.05925925925925926,1,0,0,8.798473299946636,number2,17,2,2019_Nov_14_1310,MA_Theta_Exp,3.0.7,59.92433954574285,
video/Experiment/zh_sp01_Dr_We_3_NoThetaInAudio_GlobalThetaInVideo.avi,noTheta,plusVideo,sp01,Dr,We,3,0,3,flow/blocks/NoThetaInAudio_GlobalThetaInVideo_A.csv,,,,,,,,,0,0,0,0,0,21,21,30,-0.07083333333333333,-0.2810185185185185,1,0,0,8.075583400030155,call3,False,False,True,0.02361111111111111,-0.11064814814814815,1,0,0,9.924939399992581,colour3,0.36342592592592593,-0.13240740740740742,1,0,0,10.710552200034726,number3,17,2,2019_Nov_14_1310,MA_Theta_Exp,3.0.7,59.92433954574285,
video/Experiment/zh_sp07_Dr_Ro_4_NoThetaInAudio_GlobalThetaInVideo.avi,noTheta,plusVideo,sp07,Dr,Ro,4,0,3,flow/blocks/NoThetaInAudio_GlobalThetaInVideo_A.csv,,,,,,,,,0,0,0,0,0,22,22,27,-0.3587962962962963,0.27175925925925926,1,0,0,8.382769400021061,call1,False,False,True,-0.03564814814814815,0.23472222222222222,1,0,0,9.019040999992285,colour1,0.38425925925925924,-0.29444444444444445,1,0,0,9.817381700035185,number4,17,2,2019_Nov_14_1310,MA_Theta_Exp,3.0.7,59.92433954574285,
video/Experiment/zh_sp01_Dr_Ge_2_NoThetaInAudio_GlobalThetaInVideo.avi,noTheta,plusVideo,sp01,Dr,Ge,2,0,3,flow/blocks/NoThetaInAudio_GlobalThetaInVideo_A.csv,,,,,,,,,0,0,0,0,0,23,23,17,,,,,,,,NO_ANSW,NO_ANSW,NO_ANSW,,,,,,,,,,,,,,,17,2,2019_Nov_14_1310,MA_Theta_Exp,3.0.7,59.92433954574285,
video/Experiment/zh_sp01_Ad_Ge_3_NoThetaInAudio_GlobalThetaInVideo.avi,noTheta,plusVideo,sp01,Ad,Ge,3,0,3,flow/blocks/NoThetaInAudio_GlobalThetaInVideo_A.csv,,,,,,,,,0,0,0,0,0,24,24,2,-0.3861111111111111,0.07916666666666666,1,0,0,5.971132200036664,call2,False,False,False,-0.060648148148148145,-0.10601851851851851,1,0,0,6.636666900012642,colour3,0.37453703703703706,-0.30694444444444446,1,0,0,7.703258499968797,number4,17,2,2019_Nov_14_1310,MA_Theta_Exp,3.0.7,59.92433954574285,
video/Experiment/zh_sp01_Dr_Ro_2_NoThetaInAudio_GlobalThetaInVideo.avi,noTheta,plusVideo,sp01,Dr,Ro,2,0,3,flow/blocks/NoThetaInAudio_GlobalThetaInVideo_A.csv,,,,,,,,,0,0,0,0,0,25,25,25,-0.3837962962962963,0.2791666666666667,1,0,0,6.736190900031943,call1,False,False,True,-0.043055555555555555,0.26157407407407407,1,0,0,7.352725700009614,colour1,0.39444444444444443,0.07268518518518519,1,0,0,8.0222920999513,number2,17,2,2019_Nov_14_1310,MA_Theta_Exp,3.0.7,59.92433954574285,
video/Experiment/zh_sp07_Dr_Ro_3_NoThetaInAudio_GlobalThetaInVideo.avi,noTheta,plusVideo,sp07,Dr,Ro,3,0,3,flow/blocks/NoThetaInAudio_GlobalThetaInVideo_A.csv,,,,,,,,,0,0,0,0,0,26,26,26,-0.4046296296296296,-0.1162037037037037,1,0,0,6.5849006999633275,call3,False,True,True,-0.03935185185185185,-0.08518518518518518,1,0,0,7.252621399995405,colour3,0.32037037037037036,-0.15,1,0,0,7.851534299959894,number3,17,2,2019_Nov_14_1310,MA_Theta_Exp,3.0.7,59.92433954574285,
video/Experiment/zh_sp07_Ad_We_3_NoThetaInAudio_GlobalThetaInVideo.avi,noTheta,plusVideo,sp07,Ad,We,3,0,3,flow/blocks/NoThetaInAudio_GlobalThetaInVideo_A.csv,,,,,,,,,0,0,0,0,0,27,27,14,,,,,,,,NO_ANSW,NO_ANSW,NO_ANSW,,,,,,,,,,,,,,,17,2,2019_Nov_14_1310,MA_Theta_Exp,3.0.7,59.92433954574285,
video/Experiment/zh_sp07_Ad_We_1_NoThetaInAudio_GlobalThetaInVideo.avi,noTheta,plusVideo,sp07,Ad,We,1,0,3,flow/blocks/NoThetaInAudio_GlobalThetaInVideo_A.csv,,,,,,,,,0,0,0,0,0,28,28,12,-0.39351851851851855,0.2564814814814815,1,0,0,6.953206299978774,call1,True,False,True,0.017592592592592594,0.2638888888888889,1,0,0,7.555549399985466,colour1,0.3736111111111111,0.2726851851851852,1,0,0,8.501603300042916,number1,17,2,2019_Nov_14_1310,MA_Theta_Exp,3.0.7,59.92433954574285,
video/Experiment/zh_sp01_Ad_Ro_2_NoThetaInAudio_GlobalThetaInVideo.avi,noTheta,plusVideo,sp01,Ad,Ro,2,0,3,flow/blocks/NoThetaInAudio_GlobalThetaInVideo_A.csv,,,,,,,,,0,0,0,0,0,29,29,9,-0.3560185185185185,0.10046296296296296,1,0,0,7.074701800011098,call2,False,False,True,0.07407407407407407,0.10648148148148148,1,0,0,7.807282199966721,colour2,0.4083333333333333,0.06481481481481481,1,0,0,8.527978300000541,number2,17,2,2019_Nov_14_1310,MA_Theta_Exp,3.0.7,59.92433954574285,
video/Experiment/zh_sp01_Ad_Gr_3_NoThetaInAudio_GlobalThetaInVideo.avi,noTheta,plusVideo,sp01,Ad,Gr,3,0,3,flow/blocks/NoThetaInAudio_GlobalThetaInVideo_A.csv,,,,,,,,,0,0,0,0,0,30,30,6,-0.39537037037037037,-0.11018518518518519,1,0,0,5.771118800039403,call3,False,False,True,0.0125,-0.11481481481481481,1,0,0,6.519946300017182,colour3,0.41574074074074074,-0.1449074074074074,1,0,0,8.651570099988021,number3,17,2,2019_Nov_14_1310,MA_Theta_Exp,3.0.7,59.92433954574285,
video/Experiment/zh_sp01_Ad_Ge_4_NoThetaInAudio_GlobalThetaInVideo.avi,noTheta,plusVideo,sp01,Ad,Ge,4,0,3,flow/blocks/NoThetaInAudio_GlobalThetaInVideo_A.csv,,,,,,,,,0,0,0,0,0,31,31,3,-0.3699074074074074,0.29305555555555557,1,0,0,7.7156760999932885,call1,True,True,True,0.030555555555555555,0.24583333333333332,1,0,0,9.485771699983161,colour1,0.40370370370370373,-0.2722222222222222,1,0,0,10.316880800004583,number4,17,2,2019_Nov_14_1310,MA_Theta_Exp,3.0.7,59.92433954574285,
video/Experiment/zh_sp01_Dr_Gr_2_GlobalTheta_NoVideo.avi,globalTheta,noVideo,sp01,Dr,Gr,2,1,5,flow/blocks/GlobalTheta_NoVideo_A.csv,,,,,,,,,0,1,1,1,0,0,0,21,-0.34305555555555556,-0.0699074074074074,1,0,0,9.65391550003551,call3,False,False,True,-0.04490740740740741,-0.0875,1,0,0,10.538421500008553,colour3,0.37916666666666665,0.06435185185185185,1,0,0,11.401472799945623,number2,17,2,2019_Nov_14_1310,MA_Theta_Exp,3.0.7,59.92433954574285,
video/Experiment/zh_sp01_Ad_Ro_4_GlobalTheta_NoVideo.avi,globalTheta,noVideo,sp01,Ad,Ro,4,1,5,flow/blocks/GlobalTheta_NoVideo_A.csv,,,,,,,,,0,1,1,1,0,1,1,11,-0.34074074074074073,0.29444444444444445,1,0,0,5.517437899950892,call1,True,False,True,-0.03287037037037037,0.08657407407407407,1,0,0,6.329413500032388,colour2,0.39675925925925926,-0.28055555555555556,1,0,0,7.111258899967652,number4,17,2,2019_Nov_14_1310,MA_Theta_Exp,3.0.7,59.92433954574285,
video/Experiment/zh_sp07_Dr_We_4_GlobalTheta_NoVideo.avi,globalTheta,noVideo,sp07,Dr,We,4,1,5,flow/blocks/GlobalTheta_NoVideo_A.csv,,,,,,,,,0,1,1,1,0,2,2,31,-0.3851851851851852,-0.32592592592592595,1,0,0,6.868848199956119,call4,False,True,False,-0.027777777777777776,-0.30324074074074076,1,0,0,8.551862100022845,colour4,0.4134259259259259,0.10555555555555556,1,0,0,11.184589300013613,number2,17,2,2019_Nov_14_1310,MA_Theta_Exp,3.0.7,59.92433954574285,
video/Experiment/zh_sp07_Dr_Gr_4_GlobalTheta_NoVideo.avi,globalTheta,noVideo,sp07,Dr,Gr,4,1,5,flow/blocks/GlobalTheta_NoVideo_A.csv,,,,,,,,,0,1,1,1,0,3,3,23,-0.3800925925925926,-0.10092592592592593,1,0,0,7.392521400004625,call3,False,False,False,-0.029166666666666667,-0.10787037037037037,1,0,0,8.041221799969207,colour3,0.337037037037037,-0.13518518518518519,1,0,0,8.909145300043747,number3,17,2,2019_Nov_14_1310,MA_Theta_Exp,3.0.7,59.92433954574285,
video/Experiment/zh_sp07_Ad_We_4_GlobalTheta_NoVideo.avi,globalTheta,noVideo,sp07,Ad,We,4,1,5,flow/blocks/GlobalTheta_NoVideo_A.csv,,,,,,,,,0,1,1,1,0,4,4,15,-0.3699074074074074,-0.3189814814814815,1,0,0,5.741660600004252,call4,False,True,True,0.05,-0.32314814814814813,1,0,0,6.310364600038156,colour4,0.41898148148148145,-0.3578703703703704,1,0,0,6.875265999988187,number4,17,2,2019_Nov_14_1310,MA_Theta_Exp,3.0.7,59.92433954574285,
video/Experiment/zh_sp01_Dr_Gr_3_GlobalTheta_NoVideo.avi,globalTheta,noVideo,sp01,Dr,Gr,3,1,5,flow/blocks/GlobalTheta_NoVideo_A.csv,,,,,,,,,0,1,1,1,0,5,5,22,,,,,,,,NO_ANSW,NO_ANSW,NO_ANSW,,,,,,,,,,,,,,,17,2,2019_Nov_14_1310,MA_Theta_Exp,3.0.7,59.92433954574285,
video/Experiment/zh_sp01_Dr_Gr_1_GlobalTheta_NoVideo.avi,globalTheta,noVideo,sp01,Dr,Gr,1,1,5,flow/blocks/GlobalTheta_NoVideo_A.csv,,,,,,,,,0,1,1,1,0,6,6,20,-0.3925925925925926,0.262037037037037,1,0,0,7.5015454000094905,call1,False,False,True,-0.0023148148148148147,0.26805555555555555,1,0,0,8.13731269998243,colour1,0.39351851851851855,0.2865740740740741,1,0,0,8.78556650003884,number1,17,2,2019_Nov_14_1310,MA_Theta_Exp,3.0.7,59.92433954574285,
video/Experiment/zh_sp01_Dr_Ro_2_GlobalTheta_NoVideo.avi,globalTheta,noVideo,sp01,Dr,Ro,2,1,5,flow/blocks/GlobalTheta_NoVideo_A.csv,,,,,,,,,0,1,1,1,0,7,7,25,-0.3189814814814815,0.3087962962962963,1,0,0,6.422569399990607,call1,False,False,True,-0.01712962962962963,0.3074074074074074,1,0,0,7.0722418000223115,colour1,0.39675925925925926,0.08518518518518518,1,0,0,7.721980199974496,number2,17,2,2019_Nov_14_1310,MA_Theta_Exp,3.0.7,59.92433954574285,
video/Experiment/zh_sp07_Ad_Gr_3_GlobalTheta_NoVideo.avi,globalTheta,noVideo,sp07,Ad,Gr,3,1,5,flow/blocks/GlobalTheta_NoVideo_A.csv,,,,,,,,,0,1,1,1,0,8,8,6,-0.3861111111111111,-0.0962962962962963,1,0,0,7.738797299971338,call3,False,False,True,0.05787037037037037,-0.10046296296296296,1,0,0,8.336702700005844,colour3,0.3402777777777778,-0.12175925925925926,1,0,0,8.984189299982972,number3,17,2,2019_Nov_14_1310,MA_Theta_Exp,3.0.7,59.92433954574285,
video/Experiment/zh_sp01_Dr_Ge_3_GlobalTheta_NoVideo.avi,globalTheta,noVideo,sp01,Dr,Ge,3,1,5,flow/blocks/GlobalTheta_NoVideo_A.csv,,,,,,,,,0,1,1,1,0,9,9,18,,,,,,,,NO_ANSW,NO_ANSW,NO_ANSW,,,,,,,,,,,,,,,17,2,2019_Nov_14_1310,MA_Theta_Exp,3.0.7,59.92433954574285,
video/Experiment/zh_sp07_Ad_Gr_4_GlobalTheta_NoVideo.avi,globalTheta,noVideo,sp07,Ad,Gr,4,1,5,flow/blocks/GlobalTheta_NoVideo_A.csv,,,,,,,,,0,1,1,1,0,10,10,7,-0.3611111111111111,-0.31342592592592594,1,0,0,5.640356099989731,call4,False,False,True,-0.013425925925925926,-0.3365740740740741,1,0,0,6.434700299985707,colour4,0.4134259259259259,-0.38287037037037036,1,0,0,7.517867699963972,number4,17,2,2019_Nov_14_1310,MA_Theta_Exp,3.0.7,59.92433954574285,
video/Experiment/zh_sp01_Ad_Ge_3_GlobalTheta_NoVideo.avi,globalTheta,noVideo,sp01,Ad,Ge,3,1,5,flow/blocks/GlobalTheta_NoVideo_A.csv,,,,,,,,,0,1,1,1,0,11,11,2,-0.3472222222222222,0.2791666666666667,1,0,0,8.179485200031195,call1,True,True,True,-0.05740740740740741,0.29768518518518516,1,0,0,8.914285800012294,colour1,0.41435185185185186,-0.12731481481481483,1,0,0,10.712509399978444,number3,17,2,2019_Nov_14_1310,MA_Theta_Exp,3.0.7,59.92433954574285,
video/Experiment/zh_sp01_Dr_Ro_1_GlobalTheta_NoVideo.avi,globalTheta,noVideo,sp01,Dr,Ro,1,1,5,flow/blocks/GlobalTheta_NoVideo_A.csv,,,,,,,,,0,1,1,1,0,12,12,24,-0.3680555555555556,0.2601851851851852,1,0,0,7.163644200016279,call1,False,False,True,0.024537037037037038,0.29953703703703705,1,0,0,7.9170844000182115,colour1,0.4134259259259259,0.3037037037037037,1,0,0,11.964036299963482,number1,17,2,2019_Nov_14_1310,MA_Theta_Exp,3.0.7,59.92433954574285,
video/Experiment/zh_sp07_Dr_Ge_1_GlobalTheta_NoVideo.avi,globalTheta,noVideo,sp07,Dr,Ge,1,1,5,flow/blocks/GlobalTheta_NoVideo_A.csv,,,,,,,,,0,1,1,1,0,13,13,16,-0.32685185185185184,0.30925925925925923,1,0,0,4.627480300026946,call1,False,True,True,0.04398148148148148,0.28194444444444444,1,0,0,5.413141899975017,colour1,0.32916666666666666,0.2712962962962963,1,0,0,6.132195999962278,number1,17,2,2019_Nov_14_1310,MA_Theta_Exp,3.0.7,59.92433954574285,
video/Experiment/zh_sp01_Ad_We_2_GlobalTheta_NoVideo.avi,globalTheta,noVideo,sp01,Ad,We,2,1,5,flow/blocks/GlobalTheta_NoVideo_A.csv,,,,,,,,,0,1,1,1,0,14,14,13,-0.39305555555555555,0.06712962962962964,1,0,0,5.790864500042517,call2,False,False,True,0.03009259259259259,-0.13148148148148148,1,0,0,6.373290800023824,colour3,0.3731481481481482,0.07268518518518519,1,0,0,7.238869499997236,number2,17,2,2019_Nov_14_1310,MA_Theta_Exp,3.0.7,59.92433954574285,
video/Experiment/zh_sp07_Ad_Ro_2_GlobalTheta_NoVideo.avi,globalTheta,noVideo,sp07,Ad,Ro,2,1,5,flow/blocks/GlobalTheta_NoVideo_A.csv,,,,,,,,,0,1,1,1,0,15,15,9,,,,,,,,NO_ANSW,NO_ANSW,NO_ANSW,,,,,,,,,,,,,,,17,2,2019_Nov_14_1310,MA_Theta_Exp,3.0.7,59.92433954574285,
video/Experiment/zh_sp01_Ad_Gr_1_GlobalTheta_NoVideo.avi,globalTheta,noVideo,sp01,Ad,Gr,1,1,5,flow/blocks/GlobalTheta_NoVideo_A.csv,,,,,,,,,0,1,1,1,0,16,16,4,-0.3773148148148148,-0.3486111111111111,1,0,0,6.856648200016934,call4,False,False,True,-0.04212962962962963,-0.12731481481481483,1,0,0,7.5601422999752685,colour3,0.3699074074074074,0.2740740740740741,1,0,0,8.472096300043631,number1,17,2,2019_Nov_14_1310,MA_Theta_Exp,3.0.7,59.92433954574285,
video/Experiment/zh_sp01_Dr_We_1_GlobalTheta_NoVideo.avi,globalTheta,noVideo,sp01,Dr,We,1,1,5,flow/blocks/GlobalTheta_NoVideo_A.csv,,,,,,,,,0,1,1,1,0,17,17,28,-0.3398148148148148,-0.275,1,0,0,5.7887878000037745,call4,False,False,True,-0.001388888888888889,-0.08657407407407407,1,0,0,6.456153800012544,colour3,0.37916666666666665,0.28888888888888886,1,0,0,7.676055099989753,number1,17,2,2019_Nov_14_1310,MA_Theta_Exp,3.0.7,59.92433954574285,
video/Experiment/zh_sp01_Ad_Ge_2_GlobalTheta_NoVideo.avi,globalTheta,noVideo,sp01,Ad,Ge,2,1,5,flow/blocks/GlobalTheta_NoVideo_A.csv,,,,,,,,,0,1,1,1,0,18,18,1,-0.38657407407407407,0.08101851851851852,1,0,0,7.976116500038188,call2,False,False,True,-0.060648148148148145,0.08888888888888889,1,0,0,8.63990119996015,colour2,0.34074074074074073,0.07777777777777778,1,0,0,9.460903199971654,number2,17,2,2019_Nov_14_1310,MA_Theta_Exp,3.0.7,59.92433954574285,
video/Experiment/zh_sp07_Ad_We_1_GlobalTheta_NoVideo.avi,globalTheta,noVideo,sp07,Ad,We,1,1,5,flow/blocks/GlobalTheta_NoVideo_A.csv,,,,,,,,,0,1,1,1,0,19,19,12,,,,,,,,NO_ANSW,NO_ANSW,NO_ANSW,,,,,,,,,,,,,,,17,2,2019_Nov_14_1310,MA_Theta_Exp,3.0.7,59.92433954574285,
video/Experiment/zh_sp07_Ad_Gr_2_GlobalTheta_NoVideo.avi,globalTheta,noVideo,sp07,Ad,Gr,2,1,5,flow/blocks/GlobalTheta_NoVideo_A.csv,,,,,,,,,0,1,1,1,0,20,20,5,,,,,,,,NO_ANSW,NO_ANSW,NO_ANSW,,,,,,,,,,,,,,,17,2,2019_Nov_14_1310,MA_Theta_Exp,3.0.7,59.92433954574285,
video/Experiment/zh_sp01_Ad_We_3_GlobalTheta_NoVideo.avi,globalTheta,noVideo,sp01,Ad,We,3,1,5,flow/blocks/GlobalTheta_NoVideo_A.csv,,,,,,,,,0,1,1,1,0,21,21,14,-0.375,-0.08611111111111111,1,0,0,5.872058500011917,call3,False,False,True,-0.058333333333333334,-0.12638888888888888,1,0,0,6.629578899999615,colour3,0.4310185185185185,-0.13472222222222222,1,0,0,7.8599342000088654,number3,17,2,2019_Nov_14_1310,MA_Theta_Exp,3.0.7,59.92433954574285,
video/Experiment/zh_sp07_Dr_Ge_4_GlobalTheta_NoVideo.avi,globalTheta,noVideo,sp07,Dr,Ge,4,1,5,flow/blocks/GlobalTheta_NoVideo_A.csv,,,,,,,,,0,1,1,1,0,22,22,19,-0.3435185185185185,-0.28935185185185186,1,0,0,5.476990499999374,call4,False,False,True,0.018055555555555554,-0.31527777777777777,1,0,0,6.208703899988905,colour4,0.4185185185185185,-0.3449074074074074,1,0,0,8.156008600024506,number4,17,2,2019_Nov_14_1310,MA_Theta_Exp,3.0.7,59.92433954574285,
video/Experiment/zh_sp07_Dr_We_3_GlobalTheta_NoVideo.avi,globalTheta,noVideo,sp07,Dr,We,3,1,5,flow/blocks/GlobalTheta_NoVideo_A.csv,,,,,,,,,0,1,1,1,0,23,23,30,,,,,,,,NO_ANSW,NO_ANSW,NO_ANSW,,,,,,,,,,,,,,,17,2,2019_Nov_14_1310,MA_Theta_Exp,3.0.7,59.92433954574285,
video/Experiment/zh_sp01_Dr_We_2_GlobalTheta_NoVideo.avi,globalTheta,noVideo,sp01,Dr,We,2,1,5,flow/blocks/GlobalTheta_NoVideo_A.csv,,,,,,,,,0,1,1,1,0,24,24,29,-0.38564814814814813,-0.1050925925925926,1,0,0,6.045264400017913,call3,False,False,True,-0.06111111111111111,-0.13055555555555556,1,0,0,6.825732400000561,colour3,0.34629629629629627,0.06435185185185185,1,0,0,7.645683399983682,number2,17,2,2019_Nov_14_1310,MA_Theta_Exp,3.0.7,59.92433954574285,
video/Experiment/zh_sp07_Ad_Ge_4_GlobalTheta_NoVideo.avi,globalTheta,noVideo,sp07,Ad,Ge,4,1,5,flow/blocks/GlobalTheta_NoVideo_A.csv,,,,,,,,,0,1,1,1,0,25,25,3,,,,,,,,NO_ANSW,NO_ANSW,NO_ANSW,,,,,,,,,,,,,,,17,2,2019_Nov_14_1310,MA_Theta_Exp,3.0.7,59.92433954574285,
video/Experiment/zh_sp07_Dr_Ge_2_GlobalTheta_NoVideo.avi,globalTheta,noVideo,sp07,Dr,Ge,2,1,5,flow/blocks/GlobalTheta_NoVideo_A.csv,,,,,,,,,0,1,1,1,0,26,26,17,-0.3824074074074074,0.28425925925925927,1,0,0,6.839683800004423,call1,False,True,False,-0.04861111111111111,0.26481481481481484,1,0,0,7.688721599988639,colour1,0.3574074074074074,0.2523148148148148,1,0,0,8.620659100008197,number1,17,2,2019_Nov_14_1310,MA_Theta_Exp,3.0.7,59.92433954574285,
video/Experiment/zh_sp01_Dr_Ro_3_GlobalTheta_NoVideo.avi,globalTheta,noVideo,sp01,Dr,Ro,3,1,5,flow/blocks/GlobalTheta_NoVideo_A.csv,,,,,,,,,0,1,1,1,0,27,27,26,-0.3523148148148148,-0.0763888888888889,1,0,0,6.201445800019428,call3,False,True,True,0.02824074074074074,-0.10787037037037037,1,0,0,6.884116199973505,colour3,0.3699074074074074,-0.14444444444444443,1,0,0,7.498397500021383,number3,17,2,2019_Nov_14_1310,MA_Theta_Exp,3.0.7,59.92433954574285,
video/Experiment/zh_sp07_Ad_Ro_1_GlobalTheta_NoVideo.avi,globalTheta,noVideo,sp07,Ad,Ro,1,1,5,flow/blocks/GlobalTheta_NoVideo_A.csv,,,,,,,,,0,1,1,1,0,28,28,8,-0.3282407407407407,0.11527777777777778,1,0,0,6.426767500001006,call2,False,False,False,-0.014814814814814815,0.07685185185185185,1,0,0,7.015176300017629,colour2,0.33564814814814814,0.05694444444444444,1,0,0,7.677840799966361,number2,17,2,2019_Nov_14_1310,MA_Theta_Exp,3.0.7,59.92433954574285,
video/Experiment/zh_sp07_Ad_Ro_3_GlobalTheta_NoVideo.avi,globalTheta,noVideo,sp07,Ad,Ro,3,1,5,flow/blocks/GlobalTheta_NoVideo_A.csv,,,,,,,,,0,1,1,1,0,29,29,10,-0.3212962962962963,-0.08796296296296297,1,0,0,4.853795400005765,call3,False,True,True,0.02361111111111111,-0.10092592592592593,1,0,0,5.669487399980426,colour3,0.34629629629629627,-0.13842592592592592,1,0,0,6.2848154999664985,number3,17,2,2019_Nov_14_1310,MA_Theta_Exp,3.0.7,59.92433954574285,
video/Experiment/zh_sp07_Dr_Ro_4_GlobalTheta_NoVideo.avi,globalTheta,noVideo,sp07,Dr,Ro,4,1,5,flow/blocks/GlobalTheta_NoVideo_A.csv,,,,,,,,,0,1,1,1,0,30,30,27,-0.3282407407407407,-0.31342592592592594,1,0,0,4.78305690002162,call4,False,False,True,0.000462962962962963,-0.324537037037037,1,0,0,5.4684601000044495,colour4,0.37037037037037035,-0.34814814814814815,1,0,0,6.04866219998803,number4,17,2,2019_Nov_14_1310,MA_Theta_Exp,3.0.7,59.92433954574285,
video/Experiment/zh_sp01_Ad_Ge_1_GlobalTheta_NoVideo.avi,globalTheta,noVideo,sp01,Ad,Ge,1,1,5,flow/blocks/GlobalTheta_NoVideo_A.csv,,,,,,,,,0,1,1,1,0,31,31,0,-0.3578703703703704,-0.1162037037037037,1,0,0,9.701497399946675,call3,False,False,True,0.05185185185185185,0.11851851851851852,1,0,0,12.269907200010493,colour2,0.37824074074074077,0.3055555555555556,1,0,0,12.982146999973338,number1,17,2,2019_Nov_14_1310,MA_Theta_Exp,3.0.7,59.92433954574285,
video/Experiment/zh_sp01_Dr_Ge_1_NVocInAudio_GlobalThetaInVideo.avi,vocoded,plusVideo,sp01,Dr,Ge,1,2,1,flow/blocks/NVocInAudio_GlobalThetaInVideo_A.csv,,,,,,,,,0,2,2,2,0,0,0,16,-0.37175925925925923,-0.32314814814814813,1,0,0,9.717721200024243,call4,False,False,True,-0.011111111111111112,0.08703703703703704,1,0,0,10.99787209997885,colour2,0.36527777777777776,0.2833333333333333,1,0,0,11.713217599957716,number1,17,2,2019_Nov_14_1310,MA_Theta_Exp,3.0.7,59.92433954574285,
video/Experiment/zh_sp01_Dr_Gr_1_NVocInAudio_GlobalThetaInVideo.avi,vocoded,plusVideo,sp01,Dr,Gr,1,2,1,flow/blocks/NVocInAudio_GlobalThetaInVideo_A.csv,,,,,,,,,0,2,2,2,0,1,1,20,-0.38796296296296295,0.1087962962962963,1,0,0,6.614884699985851,call2,True,False,True,-0.002777777777777778,-0.11481481481481481,1,0,0,8.695999799994752,colour3,0.3768518518518518,0.24768518518518517,1,0,0,9.547004199994262,number1,17,2,2019_Nov_14_1310,MA_Theta_Exp,3.0.7,59.92433954574285,
video/Experiment/zh_sp07_Ad_Gr_1_NVocInAudio_GlobalThetaInVideo.avi,vocoded,plusVideo,sp07,Ad,Gr,1,2,1,flow/blocks/NVocInAudio_GlobalThetaInVideo_A.csv,,,,,,,,,0,2,2,2,0,2,2,4,-0.3675925925925926,0.31203703703703706,1,0,0,5.2951941000064835,call1,True,True,True,0.05787037037037037,0.09768518518518518,1,0,0,6.799226800038014,colour2,0.37222222222222223,0.2712962962962963,1,0,0,7.629056599980686,number1,17,2,2019_Nov_14_1310,MA_Theta_Exp,3.0.7,59.92433954574285,
video/Experiment/zh_sp07_Ad_We_1_NVocInAudio_GlobalThetaInVideo.avi,vocoded,plusVideo,sp07,Ad,We,1,2,1,flow/blocks/NVocInAudio_GlobalThetaInVideo_A.csv,,,,,,,,,0,2,2,2,0,3,3,12,-0.35555555555555557,0.29212962962962963,1,0,0,5.72158800001489,call1,True,True,True,0.022222222222222223,-0.2759259259259259,1,0,0,6.5253457999788225,colour4,0.47453703703703703,0.324537037037037,1,0,0,7.356922899954952,number1,17,2,2019_Nov_14_1310,MA_Theta_Exp,3.0.7,59.92433954574285,
video/Experiment/zh_sp07_Ad_Ro_2_NVocInAudio_GlobalThetaInVideo.avi,vocoded,plusVideo,sp07,Ad,Ro,2,2,1,flow/blocks/NVocInAudio_GlobalThetaInVideo_A.csv,,,,,,,,,0,2,2,2,0,4,4,9,-0.3638888888888889,0.3,1,0,0,5.188336200022604,call1,True,True,True,0.020370370370370372,-0.056018518518518516,1,0,0,6.005264299979899,colour3,0.4583333333333333,0.09212962962962963,1,0,0,6.67012840003008,number2,17,2,2019_Nov_14_1310,MA_Theta_Exp,3.0.7,59.92433954574285,
video/Experiment/zh_sp01_Ad_We_4_NVocInAudio_GlobalThetaInVideo.avi,vocoded,plusVideo,sp01,Ad,We,4,2,1,flow/blocks/NVocInAudio_GlobalThetaInVideo_A.csv,,,,,,,,,0,2,2,2,0,5,5,15,-0.37592592592592594,0.274537037037037,1,0,0,7.279788899992127,call1,True,True,True,-0.03148148148148148,-0.29305555555555557,1,0,0,8.142169400001876,colour4,0.41064814814814815,-0.32592592592592595,1,0,0,8.812069400039036,number4,17,2,2019_Nov_14_1310,MA_Theta_Exp,3.0.7,59.92433954574285,
video/Experiment/zh_sp01_Ad_We_3_NVocInAudio_GlobalThetaInVideo.avi,vocoded,plusVideo,sp01,Ad,We,3,2,1,flow/blocks/NVocInAudio_GlobalThetaInVideo_A.csv,,,,,,,,,0,2,2,2,0,6,6,14,-0.3587962962962963,0.24675925925925926,1,0,0,5.4410152999917045,call1,True,True,True,0.044444444444444446,-0.3314814814814815,1,0,0,6.547338699980173,colour4,0.3490740740740741,-0.15416666666666667,1,0,0,7.392063000006601,number3,17,2,2019_Nov_14_1310,MA_Theta_Exp,3.0.7,59.92433954574285,
video/Experiment/zh_sp01_Dr_Ge_2_NVocInAudio_GlobalThetaInVideo.avi,vocoded,plusVideo,sp01,Dr,Ge,2,2,1,flow/blocks/NVocInAudio_GlobalThetaInVideo_A.csv,,,,,,,,,0,2,2,2,0,7,7,17,-0.41574074074074074,0.10833333333333334,1,0,0,5.813012600003276,call2,True,True,True,0.07407407407407407,0.2953703703703704,1,0,0,6.5175180999794975,colour1,0.3837962962962963,0.10925925925925926,1,0,0,7.333327599975746,number2,17,2,2019_Nov_14_1310,MA_Theta_Exp,3.0.7,59.92433954574285,
video/Experiment/zh_sp07_Dr_Ro_4_NVocInAudio_GlobalThetaInVideo.avi,vocoded,plusVideo,sp07,Dr,Ro,4,2,1,flow/blocks/NVocInAudio_GlobalThetaInVideo_A.csv,,,,,,,,,0,2,2,2,0,8,8,27,-0.3962962962962963,0.11342592592592593,1,0,0,5.281479099998251,call2,True,True,True,0.06527777777777778,-0.1,1,0,0,6.2126592000131495,colour3,0.36944444444444446,-0.30833333333333335,1,0,0,6.913942700019106,number4,17,2,2019_Nov_14_1310,MA_Theta_Exp,3.0.7,59.92433954574285,
video/Experiment/zh_sp07_Ad_Ro_3_NVocInAudio_GlobalThetaInVideo.avi,vocoded,plusVideo,sp07,Ad,Ro,3,2,1,flow/blocks/NVocInAudio_GlobalThetaInVideo_A.csv,,,,,,,,,0,2,2,2,0,9,9,10,-0.3819444444444444,0.10648148148148148,1,0,0,5.406792199995834,call2,False,True,True,0.032407407407407406,-0.09953703703703703,1,0,0,6.074335999961477,colour3,0.4101851851851852,-0.12962962962962962,1,0,0,6.741087400005199,number3,17,2,2019_Nov_14_1310,MA_Theta_Exp,3.0.7,59.92433954574285,
video/Experiment/zh_sp07_Dr_We_1_NVocInAudio_GlobalThetaInVideo.avi,vocoded,plusVideo,sp07,Dr,We,1,2,1,flow/blocks/NVocInAudio_GlobalThetaInVideo_A.csv,,,,,,,,,0,2,2,2,0,10,10,28,-0.3287037037037037,0.0962962962962963,1,0,0,4.801939599972684,call2,True,True,True,0.0023148148148148147,-0.2777777777777778,1,0,0,5.600840200029779,colour4,0.4013888888888889,0.3398148148148148,1,0,0,6.387641199980862,number1,17,2,2019_Nov_14_1310,MA_Theta_Exp,3.0.7,59.92433954574285,
video/Experiment/zh_sp01_Ad_We_2_NVocInAudio_GlobalThetaInVideo.avi,vocoded,plusVideo,sp01,Ad,We,2,2,1,flow/blocks/NVocInAudio_GlobalThetaInVideo_A.csv,,,,,,,,,0,2,2,2,0,11,11,13,-0.3787037037037037,0.3212962962962963,1,0,0,5.369963200006168,call1,True,True,True,0.024537037037037038,-0.3199074074074074,1,0,0,6.249435700010508,colour4,0.43796296296296294,0.0587962962962963,1,0,0,6.9990459000109695,number2,17,2,2019_Nov_14_1310,MA_Theta_Exp,3.0.7,59.92433954574285,
video/Experiment/zh_sp01_Ad_Ge_2_NVocInAudio_GlobalThetaInVideo.avi,vocoded,plusVideo,sp01,Ad,Ge,2,2,1,flow/blocks/NVocInAudio_GlobalThetaInVideo_A.csv,,,,,,,,,0,2,2,2,0,12,12,1,-0.3398148148148148,0.3023148148148148,1,0,0,5.6336065999930725,call1,True,True,True,0.0375,0.287962962962963,1,0,0,6.266345999960322,colour1,0.4212962962962963,0.055092592592592596,1,0,0,7.0182952000177465,number2,17,2,2019_Nov_14_1310,MA_Theta_Exp,3.0.7,59.92433954574285,
video/Experiment/zh_sp01_Dr_Ro_2_NVocInAudio_GlobalThetaInVideo.avi,vocoded,plusVideo,sp01,Dr,Ro,2,2,1,flow/blocks/NVocInAudio_GlobalThetaInVideo_A.csv,,,,,,,,,0,2,2,2,0,13,13,25,-0.3314814814814815,0.1087962962962963,1,0,0,5.526117300032638,call2,True,True,True,-0.04490740740740741,-0.07083333333333333,1,0,0,6.16009199997643,colour3,0.43333333333333335,0.12453703703703704,1,0,0,6.81448309996631,number2,17,2,2019_Nov_14_1310,MA_Theta_Exp,3.0.7,59.92433954574285,
video/Experiment/zh_sp07_Ad_Gr_3_NVocInAudio_GlobalThetaInVideo.avi,vocoded,plusVideo,sp07,Ad,Gr,3,2,1,flow/blocks/NVocInAudio_GlobalThetaInVideo_A.csv,,,,,,,,,0,2,2,2,0,14,14,6,-0.3685185185185185,0.3162037037037037,1,0,0,5.112300399981905,call1,True,True,True,0.013425925925925926,0.10324074074074074,1,0,0,5.764471100002993,colour2,0.449537037037037,-0.13240740740740742,1,0,0,6.730404899979476,number3,17,2,2019_Nov_14_1310,MA_Theta_Exp,3.0.7,59.92433954574285,
video/Experiment/zh_sp01_Ad_Gr_4_NVocInAudio_GlobalThetaInVideo.avi,vocoded,plusVideo,sp01,Ad,Gr,4,2,1,flow/blocks/NVocInAudio_GlobalThetaInVideo_A.csv,,,,,,,,,0,2,2,2,0,15,15,7,-0.40046296296296297,0.29907407407407405,1,0,0,5.574708300002385,call1,True,True,True,-0.0023148148148148147,0.08981481481481482,1,0,0,6.2194501999765635,colour2,0.33240740740740743,-0.2763888888888889,1,0,0,7.003607999999076,number4,17,2,2019_Nov_14_1310,MA_Theta_Exp,3.0.7,59.92433954574285,
video/Experiment/zh_sp07_Ad_Ge_1_NVocInAudio_GlobalThetaInVideo.avi,vocoded,plusVideo,sp07,Ad,Ge,1,2,1,flow/blocks/NVocInAudio_GlobalThetaInVideo_A.csv,,,,,,,,,0,2,2,2,0,16,16,0,-0.3736111111111111,0.30694444444444446,1,0,0,4.71591199998511,call1,True,True,True,0.049074074074074076,0.26342592592592595,1,0,0,5.279456200019922,colour1,0.3578703703703704,0.29212962962962963,1,0,0,5.7986988999764435,number1,17,2,2019_Nov_14_1310,MA_Theta_Exp,3.0.7,59.92433954574285,
video/Experiment/zh_sp07_Ad_Ro_1_NVocInAudio_GlobalThetaInVideo.avi,vocoded,plusVideo,sp07,Ad,Ro,1,2,1,flow/blocks/NVocInAudio_GlobalThetaInVideo_A.csv,,,,,,,,,0,2,2,2,0,17,17,8,-0.4074074074074074,0.32546296296296295,1,0,0,5.108925200009253,call1,True,True,True,0.04675925925925926,-0.10324074074074074,1,0,0,5.844273300026543,colour3,0.3768518518518518,0.22962962962962963,1,0,0,6.573633400024846,number1,17,2,2019_Nov_14_1310,MA_Theta_Exp,3.0.7,59.92433954574285,
video/Experiment/zh_sp07_Dr_We_3_NVocInAudio_GlobalThetaInVideo.avi,vocoded,plusVideo,sp07,Dr,We,3,2,1,flow/blocks/NVocInAudio_GlobalThetaInVideo_A.csv,,,,,,,,,0,2,2,2,0,18,18,30,-0.35324074074074074,0.1111111111111111,1,0,0,5.046096300007775,call2,True,True,True,-0.011111111111111112,-0.25833333333333336,1,0,0,5.811688399990089,colour4,0.39861111111111114,-0.08888888888888889,1,0,0,6.54412490001414,number3,17,2,2019_Nov_14_1310,MA_Theta_Exp,3.0.7,59.92433954574285,
video/Experiment/zh_sp07_Ad_Ro_4_NVocInAudio_GlobalThetaInVideo.avi,vocoded,plusVideo,sp07,Ad,Ro,4,2,1,flow/blocks/NVocInAudio_GlobalThetaInVideo_A.csv,,,,,,,,,0,2,2,2,0,19,19,11,-0.3921296296296296,0.30925925925925923,1,0,0,5.092901700001676,call1,True,True,True,-0.014351851851851852,-0.06759259259259259,1,0,0,5.925997199956328,colour3,0.4115740740740741,-0.29583333333333334,1,0,0,6.640619800018612,number4,17,2,2019_Nov_14_1310,MA_Theta_Exp,3.0.7,59.92433954574285,
video/Experiment/zh_sp07_Dr_Ge_3_NVocInAudio_GlobalThetaInVideo.avi,vocoded,plusVideo,sp07,Dr,Ge,3,2,1,flow/blocks/NVocInAudio_GlobalThetaInVideo_A.csv,,,,,,,,,0,2,2,2,0,20,20,18,-0.38472222222222224,0.10277777777777777,1,0,0,4.961648399999831,call2,True,True,True,0.006944444444444444,0.29953703703703705,1,0,0,6.562375199981034,colour1,0.46296296296296297,-0.14537037037037037,1,0,0,7.60024360002717,number3,17,2,2019_Nov_14_1310,MA_Theta_Exp,3.0.7,59.92433954574285,
video/Experiment/zh_sp07_Dr_Gr_3_NVocInAudio_GlobalThetaInVideo.avi,vocoded,plusVideo,sp07,Dr,Gr,3,2,1,flow/blocks/NVocInAudio_GlobalThetaInVideo_A.csv,,,,,,,,,0,2,2,2,0,21,21,22,-0.362962962962963,0.10092592592592593,1,0,0,5.415696700045373,call2,True,True,True,0.06620370370370371,0.062037037037037036,1,0,0,6.097326899995096,colour2,0.3578703703703704,-0.09768518518518518,1,0,0,6.835930000001099,number3,17,2,2019_Nov_14_1310,MA_Theta_Exp,3.0.7,59.92433954574285,
video/Experiment/zh_sp01_Dr_Gr_4_NVocInAudio_GlobalThetaInVideo.avi,vocoded,plusVideo,sp01,Dr,Gr,4,2,1,flow/blocks/NVocInAudio_GlobalThetaInVideo_A.csv,,,,,,,,,0,2,2,2,0,22,22,23,-0.36157407407407405,0.075,1,0,0,6.235394300019834,call2,True,True,True,0.018518518518518517,0.07453703703703704,1,0,0,6.983906000037678,colour2,0.3189814814814815,-0.26435185185185184,1,0,0,7.785758799989708,number4,17,2,2019_Nov_14_1310,MA_Theta_Exp,3.0.7,59.92433954574285,
video/Experiment/zh_sp01_Dr_We_4_NVocInAudio_GlobalThetaInVideo.avi,vocoded,plusVideo,sp01,Dr,We,4,2,1,flow/blocks/NVocInAudio_GlobalThetaInVideo_A.csv,,,,,,,,,0,2,2,2,0,23,23,31,-0.40694444444444444,0.0699074074074074,1,0,0,5.531679899955634,call2,True,True,True,0.0625,-0.32916666666666666,1,0,0,6.313107600028161,colour4,0.42407407407407405,-0.34814814814814815,1,0,0,6.914828700013459,number4,17,2,2019_Nov_14_1310,MA_Theta_Exp,3.0.7,59.92433954574285,
video/Experiment/zh_sp01_Ad_Gr_2_NVocInAudio_GlobalThetaInVideo.avi,vocoded,plusVideo,sp01,Ad,Gr,2,2,1,flow/blocks/NVocInAudio_GlobalThetaInVideo_A.csv,,,,,,,,,0,2,2,2,0,24,24,5,-0.4125,0.34675925925925927,1,0,0,5.805348300025798,call1,True,True,True,0.020833333333333332,0.11435185185185186,1,0,0,6.447154399997089,colour2,0.37037037037037035,0.09166666666666666,1,0,0,7.056087999953888,number2,17,2,2019_Nov_14_1310,MA_Theta_Exp,3.0.7,59.92433954574285,
video/Experiment/zh_sp07_Ad_Ge_3_NVocInAudio_GlobalThetaInVideo.avi,vocoded,plusVideo,sp07,Ad,Ge,3,2,1,flow/blocks/NVocInAudio_GlobalThetaInVideo_A.csv,,,,,,,,,0,2,2,2,0,25,25,2,-0.37777777777777777,0.3263888888888889,1,0,0,4.943385799997486,call1,True,True,True,0.03194444444444444,0.28888888888888886,1,0,0,5.62522300001001,colour1,0.4027777777777778,-0.07453703703703704,1,0,0,6.546226100006606,number3,17,2,2019_Nov_14_1310,MA_Theta_Exp,3.0.7,59.92433954574285,
video/Experiment/zh_sp01_Dr_We_2_NVocInAudio_GlobalThetaInVideo.avi,vocoded,plusVideo,sp01,Dr,We,2,2,1,flow/blocks/NVocInAudio_GlobalThetaInVideo_A.csv,,,,,,,,,0,2,2,2,0,26,26,29,-0.4217592592592593,0.08148148148148149,1,0,0,6.71228279999923,call2,True,True,True,-0.0060185185185185185,-0.2912037037037037,1,0,0,7.6137468999950215,colour4,0.3592592592592593,0.08472222222222223,1,0,0,8.364546800032258,number2,17,2,2019_Nov_14_1310,MA_Theta_Exp,3.0.7,59.92433954574285,
video/Experiment/zh_sp01_Ad_Ge_4_NVocInAudio_GlobalThetaInVideo.avi,vocoded,plusVideo,sp01,Ad,Ge,4,2,1,flow/blocks/NVocInAudio_GlobalThetaInVideo_A.csv,,,,,,,,,0,2,2,2,0,27,27,3,-0.36342592592592593,0.3476851851851852,1,0,0,5.422797399980482,call1,True,True,True,-0.008333333333333333,0.31574074074074077,1,0,0,6.2568346000043675,colour1,0.32731481481481484,-0.3050925925925926,1,0,0,7.071568200015463,number4,17,2,2019_Nov_14_1310,MA_Theta_Exp,3.0.7,59.92433954574285,
video/Experiment/zh_sp01_Dr_Gr_2_NVocInAudio_GlobalThetaInVideo.avi,vocoded,plusVideo,sp01,Dr,Gr,2,2,1,flow/blocks/NVocInAudio_GlobalThetaInVideo_A.csv,,,,,,,,,0,2,2,2,0,28,28,21,-0.3560185185185185,0.0912037037037037,1,0,0,6.101424499996938,call2,True,True,True,0.0125,0.09537037037037037,1,0,0,10.979684200021438,colour2,0.3731481481481482,0.08518518518518518,1,0,0,11.702201700012665,number2,17,2,2019_Nov_14_1310,MA_Theta_Exp,3.0.7,59.92433954574285,
video/Experiment/zh_sp07_Dr_Ro_1_NVocInAudio_GlobalThetaInVideo.avi,vocoded,plusVideo,sp07,Dr,Ro,1,2,1,flow/blocks/NVocInAudio_GlobalThetaInVideo_A.csv,,,,,,,,,0,2,2,2,0,29,29,24,-0.37037037037037035,0.10925925925925926,1,0,0,5.782939400000032,call2,True,True,True,0.011111111111111112,-0.09953703703703703,1,0,0,7.450001900026109,colour3,0.4060185185185185,0.28703703703703703,1,0,0,10.851230399974156,number1,17,2,2019_Nov_14_1310,MA_Theta_Exp,3.0.7,59.92433954574285,
video/Experiment/zh_sp01_Dr_Ro_3_NVocInAudio_GlobalThetaInVideo.avi,vocoded,plusVideo,sp01,Dr,Ro,3,2,1,flow/blocks/NVocInAudio_GlobalThetaInVideo_A.csv,,,,,,,,,0,2,2,2,0,30,30,26,-0.3384259259259259,0.0962962962962963,1,0,0,6.16192859999137,call2,True,True,True,0.025925925925925925,-0.13703703703703704,1,0,0,7.18319019995397,colour3,0.32916666666666666,-0.13657407407407407,1,0,0,7.868253400025424,number3,17,2,2019_Nov_14_1310,MA_Theta_Exp,3.0.7,59.92433954574285,
video/Experiment/zh_sp07_Dr_Ge_4_NVocInAudio_GlobalThetaInVideo.avi,vocoded,plusVideo,sp07,Dr,Ge,4,2,1,flow/blocks/NVocInAudio_GlobalThetaInVideo_A.csv,,,,,,,,,0,2,2,2,0,31,31,19,-0.34814814814814815,0.09166666666666666,1,0,0,6.126904200005811,call2,True,False,True,-0.004166666666666667,0.11666666666666667,1,0,0,7.14398190000793,colour2,0.39814814814814814,-0.2824074074074074,1,0,0,7.874017999973148,number4,17,2,2019_Nov_14_1310,MA_Theta_Exp,3.0.7,59.92433954574285,
video/Experiment/zh_sp07_Dr_Ro_1_NoThetaInAudio_NoVideo.avi,noTheta,noVideo,sp07,Dr,Ro,1,3,4,flow/blocks/NoThetaInAudio_NoVideo_A.csv,,,,,,,,,0,3,3,3,0,0,0,24,-0.3851851851851852,0.08564814814814815,1,0,0,5.614362900028937,call2,True,True,True,-0.004629629629629629,-0.1087962962962963,1,0,0,7.3340070999693125,colour3,0.4009259259259259,0.31296296296296294,1,0,0,8.815663600049447,number1,17,2,2019_Nov_14_1310,MA_Theta_Exp,3.0.7,59.92433954574285,
video/Experiment/zh_sp01_Ad_Ro_3_NoThetaInAudio_NoVideo.avi,noTheta,noVideo,sp01,Ad,Ro,3,3,4,flow/blocks/NoThetaInAudio_NoVideo_A.csv,,,,,,,,,0,3,3,3,0,1,1,10,-0.4185185185185185,0.3087962962962963,1,0,0,6.673138400015887,call1,True,False,False,0.017592592592592594,0.300462962962963,1,0,0,8.255879999953322,colour1,0.4273148148148148,-0.34074074074074073,1,0,0,9.370449000038207,number4,17,2,2019_Nov_14_1310,MA_Theta_Exp,3.0.7,59.92433954574285,
video/Experiment/zh_sp07_Ad_Gr_4_NoThetaInAudio_NoVideo.avi,noTheta,noVideo,sp07,Ad,Gr,4,3,4,flow/blocks/NoThetaInAudio_NoVideo_A.csv,,,,,,,,,0,3,3,3,0,2,2,7,-0.33101851851851855,-0.08703703703703704,1,0,0,6.948336299974471,call3,False,False,True,-0.01574074074074074,-0.11990740740740741,1,0,0,7.685506300011184,colour3,0.36064814814814816,-0.29074074074074074,1,0,0,8.634078899980523,number4,17,2,2019_Nov_14_1310,MA_Theta_Exp,3.0.7,59.92433954574285,
video/Experiment/zh_sp01_Dr_Ro_3_NoThetaInAudio_NoVideo.avi,noTheta,noVideo,sp01,Dr,Ro,3,3,4,flow/blocks/NoThetaInAudio_NoVideo_A.csv,,,,,,,,,0,3,3,3,0,3,3,26,-0.3726851851851852,0.06712962962962964,1,0,0,6.946101400011685,call2,True,True,True,-0.031018518518518518,-0.08935185185185185,1,0,0,7.579232500051148,colour3,0.3800925925925926,-0.12546296296296297,1,0,0,8.04912380001042,number3,17,2,2019_Nov_14_1310,MA_Theta_Exp,3.0.7,59.92433954574285,
video/Experiment/zh_sp07_Ad_Gr_1_NoThetaInAudio_NoVideo.avi,noTheta,noVideo,sp07,Ad,Gr,1,3,4,flow/blocks/NoThetaInAudio_NoVideo_A.csv,,,,,,,,,0,3,3,3,0,4,4,4,-0.4199074074074074,0.30324074074074076,1,0,0,4.981645399995614,call1,True,False,False,0.016203703703703703,-0.10185185185185185,1,0,0,9.232978200016078,colour3,0.34953703703703703,-0.09074074074074075,1,0,0,10.082292600010987,number3,17,2,2019_Nov_14_1310,MA_Theta_Exp,3.0.7,59.92433954574285,
video/Experiment/zh_sp07_Dr_Ge_1_NoThetaInAudio_NoVideo.avi,noTheta,noVideo,sp07,Dr,Ge,1,3,4,flow/blocks/NoThetaInAudio_NoVideo_A.csv,,,,,,,,,0,3,3,3,0,5,5,16,-0.39351851851851855,0.2726851851851852,1,0,0,7.6865525000030175,call1,False,False,True,0.02175925925925926,-0.0699074074074074,1,0,0,9.104967599967495,colour3,0.38287037037037036,0.3074074074074074,1,0,0,10.01570139999967,number1,17,2,2019_Nov_14_1310,MA_Theta_Exp,3.0.7,59.92433954574285,
video/Experiment/zh_sp07_Ad_Ge_2_NoThetaInAudio_NoVideo.avi,noTheta,noVideo,sp07,Ad,Ge,2,3,4,flow/blocks/NoThetaInAudio_NoVideo_A.csv,,,,,,,,,0,3,3,3,0,6,6,1,-0.4046296296296296,0.2759259259259259,1,0,0,5.50052980001783,call1,True,False,True,-0.03796296296296296,-0.09212962962962963,1,0,0,7.267986499995459,colour3,0.38564814814814813,0.05185185185185185,1,0,0,7.933598099974915,number2,17,2,2019_Nov_14_1310,MA_Theta_Exp,3.0.7,59.92433954574285,
video/Experiment/zh_sp07_Dr_We_4_NoThetaInAudio_NoVideo.avi,noTheta,noVideo,sp07,Dr,We,4,3,4,flow/blocks/NoThetaInAudio_NoVideo_A.csv,,,,,,,,,0,3,3,3,0,7,7,31,-0.38657407407407407,0.2518518518518518,1,0,0,5.777404299995396,call1,False,False,True,-0.02962962962962963,-0.11712962962962963,1,0,0,6.611908399965614,colour3,0.36898148148148147,-0.3074074074074074,1,0,0,7.077449100033846,number4,17,2,2019_Nov_14_1310,MA_Theta_Exp,3.0.7,59.92433954574285,
video/Experiment/zh_sp01_Dr_We_3_NoThetaInAudio_NoVideo.avi,noTheta,noVideo,sp01,Dr,We,3,3,4,flow/blocks/NoThetaInAudio_NoVideo_A.csv,,,,,,,,,0,3,3,3,0,8,8,30,-0.37962962962962965,0.07407407407407407,1,0,0,7.126128599978983,call2,True,True,True,0.07592592592592592,-0.28935185185185186,1,0,0,7.823274500027765,colour4,0.399537037037037,-0.13842592592592592,1,0,0,8.395621999981813,number3,17,2,2019_Nov_14_1310,MA_Theta_Exp,3.0.7,59.92433954574285,
video/Experiment/zh_sp07_Dr_Gr_2_NoThetaInAudio_NoVideo.avi,noTheta,noVideo,sp07,Dr,Gr,2,3,4,flow/blocks/NoThetaInAudio_NoVideo_A.csv,,,,,,,,,0,3,3,3,0,9,9,21,-0.37962962962962965,0.2810185185185185,1,0,0,6.465242700011004,call1,False,False,True,-0.014351851851851852,-0.0962962962962963,1,0,0,8.164591400010977,colour3,0.3509259259259259,0.06018518518518518,1,0,0,8.697741399984807,number2,17,2,2019_Nov_14_1310,MA_Theta_Exp,3.0.7,59.92433954574285,
video/Experiment/zh_sp01_Ad_Ro_4_NoThetaInAudio_NoVideo.avi,noTheta,noVideo,sp01,Ad,Ro,4,3,4,flow/blocks/NoThetaInAudio_NoVideo_A.csv,,,,,,,,,0,3,3,3,0,10,10,11,-0.3560185185185185,0.3101851851851852,1,0,0,5.376477700017858,call1,True,False,True,0.05092592592592592,-0.29768518518518516,1,0,0,6.830210399988573,colour4,0.3675925925925926,-0.300462962962963,1,0,0,7.427498600038234,number4,17,2,2019_Nov_14_1310,MA_Theta_Exp,3.0.7,59.92433954574285,
video/Experiment/zh_sp01_Ad_Ge_3_NoThetaInAudio_NoVideo.avi,noTheta,noVideo,sp01,Ad,Ge,3,3,4,flow/blocks/NoThetaInAudio_NoVideo_A.csv,,,,,,,,,0,3,3,3,0,11,11,2,-0.3990740740740741,0.2884259259259259,1,0,0,6.994513200013898,call1,True,False,True,-0.026851851851851852,-0.08935185185185185,1,0,0,7.976828199985903,colour3,0.37453703703703706,-0.11296296296296296,1,0,0,8.504430600034539,number3,17,2,2019_Nov_14_1310,MA_Theta_Exp,3.0.7,59.92433954574285,
video/Experiment/zh_sp07_Ad_Ge_1_NoThetaInAudio_NoVideo.avi,noTheta,noVideo,sp07,Ad,Ge,1,3,4,flow/blocks/NoThetaInAudio_NoVideo_A.csv,,,,,,,,,0,3,3,3,0,12,12,0,-0.3699074074074074,0.2824074074074074,1,0,0,4.722614699974656,call1,True,False,True,0.020370370370370372,-0.09212962962962963,1,0,0,5.323208299989346,colour3,0.3648148148148148,0.300462962962963,1,0,0,5.992605099978391,number1,17,2,2019_Nov_14_1310,MA_Theta_Exp,3.0.7,59.92433954574285,
video/Experiment/zh_sp01_Ad_We_4_NoThetaInAudio_NoVideo.avi,noTheta,noVideo,sp01,Ad,We,4,3,4,flow/blocks/NoThetaInAudio_NoVideo_A.csv,,,,,,,,,0,3,3,3,0,13,13,15,-0.3435185185185185,0.26157407407407407,1,0,0,5.374287499987986,call1,True,False,True,-0.033796296296296297,-0.12268518518518519,1,0,0,5.957501599972602,colour3,0.33287037037037037,-0.3060185185185185,1,0,0,6.460153800027911,number4,17,2,2019_Nov_14_1310,MA_Theta_Exp,3.0.7,59.92433954574285,
video/Experiment/zh_sp01_Ad_We_1_NoThetaInAudio_NoVideo.avi,noTheta,noVideo,sp01,Ad,We,1,3,4,flow/blocks/NoThetaInAudio_NoVideo_A.csv,,,,,,,,,0,3,3,3,0,14,14,12,-0.3490740740740741,0.2796296296296296,1,0,0,5.190238100010902,call1,True,False,True,-0.008796296296296297,-0.09490740740740741,1,0,0,5.818736099987291,colour3,0.37453703703703706,0.29212962962962963,1,0,0,6.5188210000051185,number1,17,2,2019_Nov_14_1310,MA_Theta_Exp,3.0.7,59.92433954574285,
video/Experiment/zh_sp07_Dr_Ge_4_NoThetaInAudio_NoVideo.avi,noTheta,noVideo,sp07,Dr,Ge,4,3,4,flow/blocks/NoThetaInAudio_NoVideo_A.csv,,,,,,,,,0,3,3,3,0,15,15,19,-0.41574074074074074,0.300462962962963,1,0,0,5.375314700009767,call1,False,False,True,-0.01712962962962963,-0.10462962962962963,1,0,0,6.191757699998561,colour3,0.3523148148148148,-0.27546296296296297,1,0,0,6.74029079999309,number4,17,2,2019_Nov_14_1310,MA_Theta_Exp,3.0.7,59.92433954574285,
video/Experiment/zh_sp07_Dr_Gr_1_NoThetaInAudio_NoVideo.avi,noTheta,noVideo,sp07,Dr,Gr,1,3,4,flow/blocks/NoThetaInAudio_NoVideo_A.csv,,,,,,,,,0,3,3,3,0,16,16,20,-0.3726851851851852,0.10462962962962963,1,0,0,4.533669199969154,call2,True,False,True,0.0412037037037037,-0.0962962962962963,1,0,0,8.197844100010116,colour3,0.3773148148148148,0.24351851851851852,1,0,0,8.963515600014944,number1,17,2,2019_Nov_14_1310,MA_Theta_Exp,3.0.7,59.92433954574285,
video/Experiment/zh_sp01_Dr_Gr_4_NoThetaInAudio_NoVideo.avi,noTheta,noVideo,sp01,Dr,Gr,4,3,4,flow/blocks/NoThetaInAudio_NoVideo_A.csv,,,,,,,,,0,3,3,3,0,17,17,23,-0.3699074074074074,0.09814814814814815,1,0,0,6.359076699998695,call2,True,True,True,-0.02824074074074074,0.0912037037037037,1,0,0,7.039370200014673,colour2,0.3925925925925926,-0.28379629629629627,1,0,0,8.026056900038384,number4,17,2,2019_Nov_14_1310,MA_Theta_Exp,3.0.7,59.92433954574285,
video/Experiment/zh_sp01_Ad_We_2_NoThetaInAudio_NoVideo.avi,noTheta,noVideo,sp01,Ad,We,2,3,4,flow/blocks/NoThetaInAudio_NoVideo_A.csv,,,,,,,,,0,3,3,3,0,18,18,13,-0.37407407407407406,0.26990740740740743,1,0,0,6.9062975000124425,call1,True,False,True,0.00787037037037037,0.037037037037037035,1,0,0,7.94010220002383,colour2,0.37453703703703706,0.03287037037037037,1,0,0,8.505865299957804,number2,17,2,2019_Nov_14_1310,MA_Theta_Exp,3.0.7,59.92433954574285,
video/Experiment/zh_sp01_Dr_We_2_NoThetaInAudio_NoVideo.avi,noTheta,noVideo,sp01,Dr,We,2,3,4,flow/blocks/NoThetaInAudio_NoVideo_A.csv,,,,,,,,,0,3,3,3,0,19,19,29,-0.37824074074074077,0.26990740740740743,1,0,0,8.000817399995867,call1,False,False,True,0.003703703703703704,0.08425925925925926,1,0,0,8.682197300018743,colour2,0.4078703703703704,0.06759259259259259,1,0,0,9.267822399968281,number2,17,2,2019_Nov_14_1310,MA_Theta_Exp,3.0.7,59.92433954574285,
video/Experiment/zh_sp01_Dr_Ro_2_NoThetaInAudio_NoVideo.avi,noTheta,noVideo,sp01,Dr,Ro,2,3,4,flow/blocks/NoThetaInAudio_NoVideo_A.csv,,,,,,,,,0,3,3,3,0,20,20,25,-0.32407407407407407,0.24212962962962964,1,0,0,6.439979799964931,call1,False,False,True,-0.007407407407407408,0.09814814814814815,1,0,0,7.108861100045033,colour2,0.3314814814814815,0.07592592592592592,1,0,0,7.757621400000062,number2,17,2,2019_Nov_14_1310,MA_Theta_Exp,3.0.7,59.92433954574285,
video/Experiment/zh_sp07_Ad_Ge_4_NoThetaInAudio_NoVideo.avi,noTheta,noVideo,sp07,Ad,Ge,4,3,4,flow/blocks/NoThetaInAudio_NoVideo_A.csv,,,,,,,,,0,3,3,3,0,21,21,3,-0.35324074074074074,0.26296296296296295,1,0,0,4.945531300036237,call1,True,False,True,0.038425925925925926,-0.3199074074074074,1,0,0,7.173967899987474,colour4,0.4009259259259259,-0.3148148148148148,1,0,0,8.10678500001086,number4,17,2,2019_Nov_14_1310,MA_Theta_Exp,3.0.7,59.92433954574285,
video/Experiment/zh_sp07_Ad_Ro_2_NoThetaInAudio_NoVideo.avi,noTheta,noVideo,sp07,Ad,Ro,2,3,4,flow/blocks/NoThetaInAudio_NoVideo_A.csv,,,,,,,,,0,3,3,3,0,22,22,9,-0.33796296296296297,0.2449074074074074,1,0,0,4.594787299982272,call1,True,True,True,-0.056018518518518516,-0.11990740740740741,1,0,0,5.1626770999864675,colour3,0.3675925925925926,0.040740740740740744,1,0,0,5.6766147000016645,number2,17,2,2019_Nov_14_1310,MA_Theta_Exp,3.0.7,59.92433954574285,
video/Experiment/zh_sp07_Dr_Gr_3_NoThetaInAudio_NoVideo.avi,noTheta,noVideo,sp07,Dr,Gr,3,3,4,flow/blocks/NoThetaInAudio_NoVideo_A.csv,,,,,,,,,0,3,3,3,0,23,23,22,-0.3587962962962963,0.2740740740740741,1,0,0,4.887736100004986,call1,False,True,True,-0.007407407407407408,0.09814814814814815,1,0,0,5.54566010000417,colour2,0.3453703703703704,-0.11990740740740741,1,0,0,6.062408300000243,number3,17,2,2019_Nov_14_1310,MA_Theta_Exp,3.0.7,59.92433954574285,
video/Experiment/zh_sp07_Dr_Ge_2_NoThetaInAudio_NoVideo.avi,noTheta,noVideo,sp07,Dr,Ge,2,3,4,flow/blocks/NoThetaInAudio_NoVideo_A.csv,,,,,,,,,0,3,3,3,0,24,24,17,-0.36712962962962964,0.26435185185185184,1,0,0,5.50221629999578,call1,False,False,True,0.006481481481481481,0.07453703703703704,1,0,0,6.270855300012045,colour2,0.3509259259259259,0.07175925925925926,1,0,0,7.0052947999793105,number2,17,2,2019_Nov_14_1310,MA_Theta_Exp,3.0.7,59.92433954574285,
video/Experiment/zh_sp01_Dr_Ge_3_NoThetaInAudio_NoVideo.avi,noTheta,noVideo,sp01,Dr,Ge,3,3,4,flow/blocks/NoThetaInAudio_NoVideo_A.csv,,,,,,,,,0,3,3,3,0,25,25,18,-0.36435185185185187,0.2337962962962963,1,0,0,7.412202200037427,call1,False,False,True,0.06898148148148148,0.10231481481481482,1,0,0,8.112578900007065,colour2,0.3509259259259259,-0.07824074074074074,1,0,0,8.796855600026902,number3,17,2,2019_Nov_14_1310,MA_Theta_Exp,3.0.7,59.92433954574285,
video/Experiment/zh_sp01_Dr_We_1_NoThetaInAudio_NoVideo.avi,noTheta,noVideo,sp01,Dr,We,1,3,4,flow/blocks/NoThetaInAudio_NoVideo_A.csv,,,,,,,,,0,3,3,3,0,26,26,28,-0.37546296296296294,0.11990740740740741,1,0,0,6.774059300019871,call2,True,False,True,-0.014351851851851852,-0.09074074074074075,1,0,0,7.439999499998521,colour3,0.3648148148148148,0.29074074074074074,1,0,0,8.175612599996384,number1,17,2,2019_Nov_14_1310,MA_Theta_Exp,3.0.7,59.92433954574285,
video/Experiment/zh_sp07_Ad_Gr_2_NoThetaInAudio_NoVideo.avi,noTheta,noVideo,sp07,Ad,Gr,2,3,4,flow/blocks/NoThetaInAudio_NoVideo_A.csv,,,,,,,,,0,3,3,3,0,27,27,5,-0.3282407407407407,0.1162037037037037,1,0,0,6.338771499984432,call2,False,True,True,0.03425925925925926,0.06620370370370371,1,0,0,7.122346699994523,colour2,0.42314814814814816,0.05092592592592592,1,0,0,7.84043969999766,number2,17,2,2019_Nov_14_1310,MA_Theta_Exp,3.0.7,59.92433954574285,
video/Experiment/zh_sp01_Dr_Ro_4_NoThetaInAudio_NoVideo.avi,noTheta,noVideo,sp01,Dr,Ro,4,3,4,flow/blocks/NoThetaInAudio_NoVideo_A.csv,,,,,,,,,0,3,3,3,0,28,28,27,-0.3851851851851852,0.07268518518518519,1,0,0,8.194680300017353,call2,True,False,True,-0.0032407407407407406,0.062037037037037036,1,0,0,8.796923400019296,colour2,0.32731481481481484,-0.28935185185185186,1,0,0,9.58183610002743,number4,17,2,2019_Nov_14_1310,MA_Theta_Exp,3.0.7,59.92433954574285,
video/Experiment/zh_sp07_Ad_Ro_1_NoThetaInAudio_NoVideo.avi,noTheta,noVideo,sp07,Ad,Ro,1,3,4,flow/blocks/NoThetaInAudio_NoVideo_A.csv,,,,,,,,,0,3,3,3,0,29,29,8,-0.36435185185185187,0.2810185185185185,1,0,0,4.829539199999999,call1,True,False,True,-0.012962962962962963,0.1300925925925926,1,0,0,7.146328100003302,colour2,0.3662037037037037,0.28379629629629627,1,0,0,7.983202499977779,number1,17,2,2019_Nov_14_1310,MA_Theta_Exp,3.0.7,59.92433954574285,
video/Experiment/zh_sp01_Ad_Gr_3_NoThetaInAudio_NoVideo.avi,noTheta,noVideo,sp01,Ad,Gr,3,3,4,flow/blocks/NoThetaInAudio_NoVideo_A.csv,,,,,,,,,0,3,3,3,0,30,30,6,-0.37962962962962965,0.287962962962963,1,0,0,5.8967262000078335,call1,True,True,True,0.02175925925925926,0.053703703703703705,1,0,0,6.583460800000466,colour2,0.3648148148148148,-0.1087962962962963,1,0,0,7.113728000025731,number3,17,2,2019_Nov_14_1310,MA_Theta_Exp,3.0.7,59.92433954574285,
video/Experiment/zh_sp01_Ad_We_3_NoThetaInAudio_NoVideo.avi,noTheta,noVideo,sp01,Ad,We,3,3,4,flow/blocks/NoThetaInAudio_NoVideo_A.csv,,,,,,,,,0,3,3,3,0,31,31,14,-0.3990740740740741,0.287962962962963,1,0,0,6.671934500045609,call1,True,False,True,0.006481481481481481,-0.11157407407407408,1,0,0,7.7744805999682285,colour3,0.33564814814814814,-0.10601851851851851,1,0,0,8.366411600029096,number3,17,2,2019_Nov_14_1310,MA_Theta_Exp,3.0.7,59.92433954574285,
video/Experiment/zh_sp07_Dr_We_1_NVocInAudio_NoVideo.avi,vocoded,noVideo,sp07,Dr,We,1,4,2,flow/blocks/NVocInAudio_NoVideo_A.csv,,,,,,,,,0,4,4,4,0,0,0,28,-0.33101851851851855,0.05740740740740741,1,0,0,5.302338199981023,call2,True,True,True,0.03425925925925926,-0.3060185185185185,1,0,0,6.4357311000349,colour4,0.38564814814814813,0.3101851851851852,1,0,0,7.568719999981113,number1,17,2,2019_Nov_14_1310,MA_Theta_Exp,3.0.7,59.92433954574285,
video/Experiment/zh_sp07_Dr_Gr_3_NVocInAudio_NoVideo.avi,vocoded,noVideo,sp07,Dr,Gr,3,4,2,flow/blocks/NVocInAudio_NoVideo_A.csv,,,,,,,,,0,4,4,4,0,1,1,22,-0.362962962962963,0.08796296296296297,1,0,0,5.602684399986174,call2,True,True,True,0.013425925925925926,0.08148148148148149,1,0,0,6.301619099976961,colour2,0.3578703703703704,-0.11712962962962963,1,0,0,7.017670500034001,number3,17,2,2019_Nov_14_1310,MA_Theta_Exp,3.0.7,59.92433954574285,
video/Experiment/zh_sp01_Dr_Ge_1_NVocInAudio_NoVideo.avi,vocoded,noVideo,sp01,Dr,Ge,1,4,2,flow/blocks/NVocInAudio_NoVideo_A.csv,,,,,,,,,0,4,4,4,0,2,2,16,-0.3768518518518518,0.08796296296296297,1,0,0,5.649358799972106,call2,True,True,True,0.024537037037037038,0.25462962962962965,1,0,0,6.177995800040662,colour1,0.3800925925925926,0.27314814814814814,1,0,0,6.900382999971043,number1,17,2,2019_Nov_14_1310,MA_Theta_Exp,3.0.7,59.92433954574285,
video/Experiment/zh_sp07_Dr_Ro_2_NVocInAudio_NoVideo.avi,vocoded,noVideo,sp07,Dr,Ro,2,4,2,flow/blocks/NVocInAudio_NoVideo_A.csv,,,,,,,,,0,4,4,4,0,3,3,25,-0.36712962962962964,0.0824074074074074,1,0,0,5.078935400000773,call2,True,True,True,0.010648148148148148,-0.11435185185185186,1,0,0,5.630046400008723,colour3,0.37592592592592594,0.05185185185185185,1,0,0,6.149201499996707,number2,17,2,2019_Nov_14_1310,MA_Theta_Exp,3.0.7,59.92433954574285,
video/Experiment/zh_sp07_Dr_Ge_2_NVocInAudio_NoVideo.avi,vocoded,noVideo,sp07,Dr,Ge,2,4,2,flow/blocks/NVocInAudio_NoVideo_A.csv,,,,,,,,,0,4,4,4,0,4,4,17,-0.37824074074074077,0.08101851851851852,1,0,0,5.214868600014597,call2,True,False,True,0.017592592592592594,-0.08518518518518518,1,0,0,9.5644424999482,colour3,0.3648148148148148,0.07268518518518519,1,0,0,10.166668199992273,number2,17,2,2019_Nov_14_1310,MA_Theta_Exp,3.0.7,59.92433954574285,
video/Experiment/zh_sp07_Ad_Ro_4_NVocInAudio_NoVideo.avi,vocoded,noVideo,sp07,Ad,Ro,4,4,2,flow/blocks/NVocInAudio_NoVideo_A.csv,,,,,,,,,0,4,4,4,0,5,5,11,-0.37824074074074077,0.08796296296296297,1,0,0,5.779097600025125,call2,False,True,True,-0.008796296296296297,-0.09212962962962963,1,0,0,6.427715400001034,colour3,0.33564814814814814,-0.2601851851851852,1,0,0,7.0602554000215605,number4,17,2,2019_Nov_14_1310,MA_Theta_Exp,3.0.7,59.92433954574285,
video/Experiment/zh_sp07_Ad_Ge_1_NVocInAudio_NoVideo.avi,vocoded,noVideo,sp07,Ad,Ge,1,4,2,flow/blocks/NVocInAudio_NoVideo_A.csv,,,,,,,,,0,4,4,4,0,6,6,0,-0.3699074074074074,0.10324074074074074,1,0,0,4.720233600004576,call2,False,True,True,-0.012962962962962963,0.2671296296296296,1,0,0,5.756605300004594,colour1,0.3773148148148148,0.28379629629629627,1,0,0,6.373907100001816,number1,17,2,2019_Nov_14_1310,MA_Theta_Exp,3.0.7,59.92433954574285,
video/Experiment/zh_sp01_Ad_Gr_2_NVocInAudio_NoVideo.avi,vocoded,noVideo,sp01,Ad,Gr,2,4,2,flow/blocks/NVocInAudio_NoVideo_A.csv,,,,,,,,,0,4,4,4,0,7,7,5,-0.4046296296296296,0.29768518518518516,1,0,0,5.664439500018489,call1,True,True,True,0.006481481481481481,0.08842592592592592,1,0,0,7.911082899954636,colour2,0.3814814814814815,0.07453703703703704,1,0,0,9.013861800020095,number2,17,2,2019_Nov_14_1310,MA_Theta_Exp,3.0.7,59.92433954574285,
video/Experiment/zh_sp01_Ad_Gr_4_NVocInAudio_NoVideo.avi,vocoded,noVideo,sp01,Ad,Gr,4,4,2,flow/blocks/NVocInAudio_NoVideo_A.csv,,,,,,,,,0,4,4,4,0,8,8,7,-0.3962962962962963,0.26851851851851855,1,0,0,5.712363900034688,call1,True,True,True,0.005092592592592593,0.11481481481481481,1,0,0,6.392840199987404,colour2,0.3453703703703704,-0.31296296296296294,1,0,0,7.428795700019691,number4,17,2,2019_Nov_14_1310,MA_Theta_Exp,3.0.7,59.92433954574285,
video/Experiment/zh_sp01_Dr_Ro_1_NVocInAudio_NoVideo.avi,vocoded,noVideo,sp01,Dr,Ro,1,4,2,flow/blocks/NVocInAudio_NoVideo_A.csv,,,,,,,,,0,4,4,4,0,9,9,24,-0.3449074074074074,0.0587962962962963,1,0,0,5.395933000021614,call2,True,True,True,0.009259259259259259,-0.11296296296296296,1,0,0,6.378385599993635,colour3,0.3537037037037037,0.2949074074074074,1,0,0,7.174926600011531,number1,17,2,2019_Nov_14_1310,MA_Theta_Exp,3.0.7,59.92433954574285,
video/Experiment/zh_sp01_Dr_Gr_4_NVocInAudio_NoVideo.avi,vocoded,noVideo,sp01,Dr,Gr,4,4,2,flow/blocks/NVocInAudio_NoVideo_A.csv,,,,,,,,,0,4,4,4,0,10,10,23,-0.3921296296296296,0.1037037037037037,1,0,0,5.584975600009784,call2,True,True,True,-0.02824074074074074,0.09259259259259259,1,0,0,6.076650800008792,colour2,0.36203703703703705,-0.26990740740740743,1,0,0,6.8218822999624535,number4,17,2,2019_Nov_14_1310,MA_Theta_Exp,3.0.7,59.92433954574285,
video/Experiment/zh_sp07_Dr_Gr_2_NVocInAudio_NoVideo.avi,vocoded,noVideo,sp07,Dr,Gr,2,4,2,flow/blocks/NVocInAudio_NoVideo_A.csv,,,,,,,,,0,4,4,4,0,11,11,21,-0.36435185185185187,0.08935185185185185,1,0,0,5.444919699977618,call2,True,True,True,0.017592592592592594,0.07592592592592592,1,0,0,5.947007699985988,colour2,0.4009259259259259,0.06898148148148148,1,0,0,6.564023399958387,number2,17,2,2019_Nov_14_1310,MA_Theta_Exp,3.0.7,59.92433954574285,
video/Experiment/zh_sp01_Dr_We_3_NVocInAudio_NoVideo.avi,vocoded,noVideo,sp01,Dr,We,3,4,2,flow/blocks/NVocInAudio_NoVideo_A.csv,,,,,,,,,0,4,4,4,0,12,12,30,-0.3435185185185185,0.08657407407407407,1,0,0,5.457668300019577,call2,True,True,True,0.028703703703703703,-0.3560185185185185,1,0,0,6.206988800026011,colour4,0.3384259259259259,-0.17314814814814813,1,0,0,6.679014699999243,number3,17,2,2019_Nov_14_1310,MA_Theta_Exp,3.0.7,59.92433954574285,
video/Experiment/zh_sp07_Ad_Gr_1_NVocInAudio_NoVideo.avi,vocoded,noVideo,sp07,Ad,Gr,1,4,2,flow/blocks/NVocInAudio_NoVideo_A.csv,,,,,,,,,0,4,4,4,0,13,13,4,-0.3921296296296296,0.27546296296296297,1,0,0,5.032825900008902,call1,True,True,True,-0.04490740740740741,0.09398148148148149,1,0,0,5.534365099971183,colour2,0.36898148148148147,0.26435185185185184,1,0,0,5.982435699959751,number1,17,2,2019_Nov_14_1310,MA_Theta_Exp,3.0.7,59.92433954574285,
video/Experiment/zh_sp01_Ad_We_2_NVocInAudio_NoVideo.avi,vocoded,noVideo,sp01,Ad,We,2,4,2,flow/blocks/NVocInAudio_NoVideo_A.csv,,,,,,,,,0,4,4,4,0,14,14,13,-0.3449074074074074,0.28935185185185186,1,0,0,5.455776399991009,call1,True,True,True,0.013425925925925926,-0.28379629629629627,1,0,0,6.056702999980189,colour4,0.37175925925925923,0.09768518518518518,1,0,0,6.610238900000695,number2,17,2,2019_Nov_14_1310,MA_Theta_Exp,3.0.7,59.92433954574285,
video/Experiment/zh_sp01_Ad_We_4_NVocInAudio_NoVideo.avi,vocoded,noVideo,sp01,Ad,We,4,4,2,flow/blocks/NVocInAudio_NoVideo_A.csv,,,,,,,,,0,4,4,4,0,15,15,15,-0.3574074074074074,0.27824074074074073,1,0,0,5.137999199971091,call1,True,True,True,0.009259259259259259,-0.33101851851851855,1,0,0,5.808206900022924,colour4,0.3731481481481482,-0.29074074074074074,1,0,0,6.322429699997883,number4,17,2,2019_Nov_14_1310,MA_Theta_Exp,3.0.7,59.92433954574285,
video/Experiment/zh_sp07_Dr_Ge_4_NVocInAudio_NoVideo.avi,vocoded,noVideo,sp07,Dr,Ge,4,4,2,flow/blocks/NVocInAudio_NoVideo_A.csv,,,,,,,,,0,4,4,4,0,16,16,19,-0.3824074074074074,0.09490740740740741,1,0,0,4.563664700021036,call2,True,True,True,0.00787037037037037,0.2712962962962963,1,0,0,5.1464777999790385,colour1,0.35648148148148145,-0.29907407407407405,1,0,0,5.982417000050191,number4,17,2,2019_Nov_14_1310,MA_Theta_Exp,3.0.7,59.92433954574285,
video/Experiment/zh_sp01_Ad_We_3_NVocInAudio_NoVideo.avi,vocoded,noVideo,sp01,Ad,We,3,4,2,flow/blocks/NVocInAudio_NoVideo_A.csv,,,,,,,,,0,4,4,4,0,17,17,14,-0.35462962962962963,0.300462962962963,1,0,0,5.575162299966905,call1,True,True,True,-0.001851851851851852,-0.32685185185185184,1,0,0,6.360274300037418,colour4,0.3648148148148148,-0.13287037037037036,1,0,0,6.842652100021951,number3,17,2,2019_Nov_14_1310,MA_Theta_Exp,3.0.7,59.92433954574285,
video/Experiment/zh_sp07_Dr_Ge_3_NVocInAudio_NoVideo.avi,vocoded,noVideo,sp07,Dr,Ge,3,4,2,flow/blocks/NVocInAudio_NoVideo_A.csv,,,,,,,,,0,4,4,4,0,18,18,18,-0.40185185185185185,0.0962962962962963,1,0,0,6.017967999971006,call2,True,True,True,-0.000462962962962963,0.2962962962962963,1,0,0,6.8178513999446295,colour1,0.34814814814814815,-0.09768518518518518,1,0,0,7.9437906999955885,number3,17,2,2019_Nov_14_1310,MA_Theta_Exp,3.0.7,59.92433954574285,
video/Experiment/zh_sp07_Ad_We_1_NVocInAudio_NoVideo.avi,vocoded,noVideo,sp07,Ad,We,1,4,2,flow/blocks/NVocInAudio_NoVideo_A.csv,,,,,,,,,0,4,4,4,0,19,19,12,-0.3212962962962963,0.07592592592592592,1,0,0,4.74899719998939,call2,False,True,True,0.02175925925925926,-0.29907407407407405,1,0,0,5.3012505999649875,colour4,0.40925925925925927,0.287962962962963,1,0,0,5.998369100037962,number1,17,2,2019_Nov_14_1310,MA_Theta_Exp,3.0.7,59.92433954574285,
video/Experiment/zh_sp07_Ad_Ro_2_NVocInAudio_NoVideo.avi,vocoded,noVideo,sp07,Ad,Ro,2,4,2,flow/blocks/NVocInAudio_NoVideo_A.csv,,,,,,,,,0,4,4,4,0,20,20,9,-0.3824074074074074,0.2962962962962963,1,0,0,4.53299729997525,call1,True,True,True,0.009259259259259259,-0.10462962962962963,1,0,0,5.528081200027373,colour3,0.3398148148148148,0.08101851851851852,1,0,0,6.062772599980235,number2,17,2,2019_Nov_14_1310,MA_Theta_Exp,3.0.7,59.92433954574285,
video/Experiment/zh_sp01_Dr_We_4_NVocInAudio_NoVideo.avi,vocoded,noVideo,sp01,Dr,We,4,4,2,flow/blocks/NVocInAudio_NoVideo_A.csv,,,,,,,,,0,4,4,4,0,21,21,31,-0.4074074074074074,0.08657407407407407,1,0,0,6.387525200028904,call2,True,True,True,-0.033796296296296297,-0.31851851851851853,1,0,0,7.354662699974142,colour4,0.4050925925925926,-0.32407407407407407,1,0,0,8.088108099997044,number4,17,2,2019_Nov_14_1310,MA_Theta_Exp,3.0.7,59.92433954574285,
video/Experiment/zh_sp07_Ad_Ge_4_NVocInAudio_NoVideo.avi,vocoded,noVideo,sp07,Ad,Ge,4,4,2,flow/blocks/NVocInAudio_NoVideo_A.csv,,,,,,,,,0,4,4,4,0,22,22,3,-0.3851851851851852,0.26990740740740743,1,0,0,6.028291199996602,call1,True,True,True,0.08703703703703704,0.2671296296296296,1,0,0,6.963700800028164,colour1,0.39537037037037037,-0.3037037037037037,1,0,0,7.980537299998105,number4,17,2,2019_Nov_14_1310,MA_Theta_Exp,3.0.7,59.92433954574285,
video/Experiment/zh_sp01_Ad_Ro_3_NVocInAudio_NoVideo.avi,vocoded,noVideo,sp01,Ad,Ro,3,4,2,flow/blocks/NVocInAudio_NoVideo_A.csv,,,,,,,,,0,4,4,4,0,23,23,10,-0.3699074074074074,0.26157407407407407,1,0,0,6.53630430001067,call1,True,True,True,0.01898148148148148,-0.10740740740740741,1,0,0,7.153674400004093,colour3,0.3787037037037037,-0.09537037037037037,1,0,0,7.675374899990857,number3,17,2,2019_Nov_14_1310,MA_Theta_Exp,3.0.7,59.92433954574285,
video/Experiment/zh_sp07_Ad_Ro_1_NVocInAudio_NoVideo.avi,vocoded,noVideo,sp07,Ad,Ro,1,4,2,flow/blocks/NVocInAudio_NoVideo_A.csv,,,,,,,,,0,4,4,4,0,24,24,8,-0.36157407407407405,0.27546296296296297,1,0,0,4.432695099967532,call1,True,True,True,-0.02546296296296296,-0.11018518518518519,1,0,0,5.0434146000188775,colour3,0.40925925925925927,0.2796296296296296,1,0,0,5.6496947999694385,number1,17,2,2019_Nov_14_1310,MA_Theta_Exp,3.0.7,59.92433954574285,
video/Experiment/zh_sp07_Dr_We_2_NVocInAudio_NoVideo.avi,vocoded,noVideo,sp07,Dr,We,2,4,2,flow/blocks/NVocInAudio_NoVideo_A.csv,,,,,,,,,0,4,4,4,0,25,25,29,-0.38935185185185184,0.09212962962962963,1,0,0,4.763291799987201,call2,True,True,True,-0.033796296296296297,-0.29074074074074074,1,0,0,5.304453200020362,colour4,0.36064814814814816,0.047685185185185185,1,0,0,5.77988310001092,number2,17,2,2019_Nov_14_1310,MA_Theta_Exp,3.0.7,59.92433954574285,
video/Experiment/zh_sp07_Dr_Gr_1_NVocInAudio_NoVideo.avi,vocoded,noVideo,sp07,Dr,Gr,1,4,2,flow/blocks/NVocInAudio_NoVideo_A.csv,,,,,,,,,0,4,4,4,0,26,26,20,-0.3962962962962963,0.08101851851851852,1,0,0,4.611385299998801,call2,True,True,True,-0.007407407407407408,0.08564814814814815,1,0,0,5.061784199962858,colour2,0.3675925925925926,0.3143518518518518,1,0,0,5.500036699988414,number1,17,2,2019_Nov_14_1310,MA_Theta_Exp,3.0.7,59.92433954574285,
video/Experiment/zh_sp01_Ad_Gr_3_NVocInAudio_NoVideo.avi,vocoded,noVideo,sp01,Ad,Gr,3,4,2,flow/blocks/NVocInAudio_NoVideo_A.csv,,,,,,,,,0,4,4,4,0,27,27,6,-0.3490740740740741,0.28379629629629627,1,0,0,5.757203700020909,call1,True,True,True,-0.001851851851851852,0.12731481481481483,1,0,0,6.303194899985101,colour2,0.337037037037037,-0.07685185185185185,1,0,0,6.805907299974933,number3,17,2,2019_Nov_14_1310,MA_Theta_Exp,3.0.7,59.92433954574285,
video/Experiment/zh_sp01_Dr_Ro_3_NVocInAudio_NoVideo.avi,vocoded,noVideo,sp01,Dr,Ro,3,4,2,flow/blocks/NVocInAudio_NoVideo_A.csv,,,,,,,,,0,4,4,4,0,28,28,26,-0.39351851851851855,0.11990740740740741,1,0,0,4.995331800018903,call2,True,True,True,0.028703703703703703,-0.1087962962962963,1,0,0,5.527933800010942,colour3,0.3731481481481482,-0.0787037037037037,1,0,0,6.338135700032581,number3,17,2,2019_Nov_14_1310,MA_Theta_Exp,3.0.7,59.92433954574285,
video/Experiment/zh_sp01_Dr_Ro_4_NVocInAudio_NoVideo.avi,vocoded,noVideo,sp01,Dr,Ro,4,4,2,flow/blocks/NVocInAudio_NoVideo_A.csv,,,,,,,,,0,4,4,4,0,29,29,27,-0.38657407407407407,0.10462962962962963,1,0,0,5.199243200011551,call2,True,True,True,-0.0060185185185185185,-0.08935185185185185,1,0,0,5.733458700007759,colour3,0.37453703703703706,-0.31574074074074077,1,0,0,6.263014399970416,number4,17,2,2019_Nov_14_1310,MA_Theta_Exp,3.0.7,59.92433954574285,
video/Experiment/zh_sp01_Ad_Ge_3_NVocInAudio_NoVideo.avi,vocoded,noVideo,sp01,Ad,Ge,3,4,2,flow/blocks/NVocInAudio_NoVideo_A.csv,,,,,,,,,0,4,4,4,0,30,30,2,-0.38657407407407407,0.2601851851851852,1,0,0,5.009059399948455,call1,True,True,True,-0.014351851851851852,0.27175925925925926,1,0,0,5.55920940003125,colour1,0.3453703703703704,-0.10324074074074074,1,0,0,6.045640699972864,number3,17,2,2019_Nov_14_1310,MA_Theta_Exp,3.0.7,59.92433954574285,
video/Experiment/zh_sp01_Ad_Ge_2_NVocInAudio_NoVideo.avi,vocoded,noVideo,sp01,Ad,Ge,2,4,2,flow/blocks/NVocInAudio_NoVideo_A.csv,,,,,,,,,0,4,4,4,0,31,31,1,-0.3490740740740741,0.26990740740740743,1,0,0,5.269807800010312,call1,True,True,True,0.023148148148148147,0.2689814814814815,1,0,0,5.654738900018856,colour1,0.3731481481481482,0.04953703703703704,1,0,0,6.134945600002538,number2,17,2,2019_Nov_14_1310,MA_Theta_Exp,3.0.7,59.92433954574285,
