videoFile,condition,video,speaker,callSign,colour,number,seq,id,block,exp.thisRepN,exp.thisTrialN,exp.thisN,exp.thisIndex,training.thisRepN,training.thisTrialN,training.thisN,training.thisIndex,firstHalf.thisRepN,firstHalf.thisTrialN,firstHalf.thisN,firstHalf.thisIndex,blocksA.thisRepN,blocksA.thisTrialN,blocksA.thisN,blocksA.thisIndex,secondHalf.thisRepN,secondHalf.thisTrialN,secondHalf.thisN,secondHalf.thisIndex,blocksB.thisRepN,blocksB.thisTrialN,blocksB.thisN,blocksB.thisIndex,mouseClickOnCall.x,mouseClickOnCall.y,mouseClickOnCall.leftButton,mouseClickOnCall.midButton,mouseClickOnCall.rightButton,mouseClickOnCall.time,mouseClickOnCall.clicked_name,mouseClickOnColour.x,mouseClickOnColour.y,mouseClickOnColour.leftButton,mouseClickOnColour.midButton,mouseClickOnColour.rightButton,mouseClickOnColour.time,mouseClickOnColour.clicked_name,mouseClickOnNumber.x,mouseClickOnNumber.y,mouseClickOnNumber.leftButton,mouseClickOnNumber.midButton,mouseClickOnNumber.rightButton,mouseClickOnNumber.time,mouseClickOnNumber.clicked_name,callSignCorrect,colourCorrect,numberCorrect,participant,order,date,expName,psychopyVersion,frameRate,
video/Training/zh_sp01_Ad_We_4_NVocInAudio_NoVideo.avi,vocoded,noVideo,sp01,Ad,We,4,,,,,,,,0,0,0,0,,,,,,,,,,,,,,,,,-0.4685185185185185,0.36527777777777776,1,0,0,6.508187300001737,call1,-0.03194444444444444,-0.2675925925925926,1,0,0,7.926806100003887,colour4,0.32685185185185184,-0.2740740740740741,1,0,0,9.007556499971543,number4,True,True,True,18,3,2019_Nov_14_1408,MA_Theta_Exp,3.0.7,60.0560202487846,
video/Training/zh_sp07_Ad_Ge_3_NVocInAudio_NoVideo.avi,vocoded,noVideo,sp07,Ad,Ge,3,,,,,,,,0,1,1,1,,,,,,,,,,,,,,,,,-0.3824074074074074,0.34305555555555556,1,0,0,5.520081900001969,call1,-0.0032407407407407406,0.29259259259259257,1,0,0,6.952690600010101,colour1,0.39166666666666666,-0.14212962962962963,1,0,0,8.01961369998753,number3,True,True,True,18,3,2019_Nov_14_1408,MA_Theta_Exp,3.0.7,60.0560202487846,
video/Training/zh_sp01_Dr_Ro_3_NVocInAudio_GlobalThetaInVideo.avi,vocoded,plusVideo,sp01,Dr,Ro,3,,,,,,,,0,2,2,2,,,,,,,,,,,,,,,,,-0.3523148148148148,0.10555555555555556,1,0,0,6.10026310000103,call2,-0.05185185185185185,-0.1125,1,0,0,7.166848200024106,colour3,0.40694444444444444,-0.10833333333333334,1,0,0,8.566834500001278,number3,True,True,True,18,3,2019_Nov_14_1408,MA_Theta_Exp,3.0.7,60.0560202487846,
video/Training/zh_sp07_Dr_Gr_4_NVocInAudio_GlobalThetaInVideo.avi,vocoded,plusVideo,sp07,Dr,Gr,4,,,,,,,,0,3,3,3,,,,,,,,,,,,,,,,,-0.36435185185185187,0.1162037037037037,1,0,0,5.616721700003836,call2,0.000925925925925926,0.0699074074074074,1,0,0,6.865751300007105,colour2,0.3731481481481482,-0.28703703703703703,1,0,0,8.198420599976089,number4,True,True,True,18,3,2019_Nov_14_1408,MA_Theta_Exp,3.0.7,60.0560202487846,
video/Training/zh_sp01_Ti_Gr_2_NoThetaInAudio_NoVideo.avi,noTheta,noVideo,sp01,Ti,Gr,2,,,,,,,,0,4,4,4,,,,,,,,,,,,,,,,,-0.3763888888888889,0.2814814814814815,1,0,0,8.097584099974483,call1,-0.07222222222222222,0.23981481481481481,1,0,0,12.31260880001355,colour1,0.3972222222222222,0.09537037037037037,1,0,0,13.529540200019255,number2,False,False,True,18,3,2019_Nov_14_1408,MA_Theta_Exp,3.0.7,60.0560202487846,
video/Training/zh_sp07_Ti_Ro_1_NoThetaInAudio_NoVideo.avi,noTheta,noVideo,sp07,Ti,Ro,1,,,,,,,,0,5,5,5,,,,,,,,,,,,,,,,,-0.35138888888888886,0.3194444444444444,1,0,0,10.437452300044242,call1,0.052314814814814814,0.32916666666666666,1,0,0,11.352918799966574,colour1,0.3509259259259259,0.2953703703703704,1,0,0,12.302780999976676,number1,False,False,True,18,3,2019_Nov_14_1408,MA_Theta_Exp,3.0.7,60.0560202487846,
video/Training/zh_sp01_Un_Ge_1_NoThetaInAudio_GlobalThetaInVideo.avi,noTheta,plusVideo,sp01,Un,Ge,1,,,,,,,,0,6,6,6,,,,,,,,,,,,,,,,,-0.38333333333333336,-0.2953703703703704,1,0,0,5.931171600008383,call4,0.4412037037037037,0.34120370370370373,1,0,0,7.397942399955355,colour1,0.42916666666666664,0.31342592592592594,1,0,0,11.54791910003405,number1,True,True,True,18,3,2019_Nov_14_1408,MA_Theta_Exp,3.0.7,60.0560202487846,
video/Training/zh_sp07_Un_We_2_NoThetaInAudio_GlobalThetaInVideo.avi,noTheta,plusVideo,sp07,Un,We,2,,,,,,,,0,7,7,7,,,,,,,,,,,,,,,,,,,,,,,,,,,,,,,,,,,,,,NO_ANSW,NO_ANSW,NO_ANSW,18,3,2019_Nov_14_1408,MA_Theta_Exp,3.0.7,60.0560202487846,
video/Training/zh_sp01_Ad_Ge_1_GlobalTheta_NoVideo.avi,globalTheta,noVideo,sp01,Ad,Ge,1,,,,,,,,0,8,8,8,,,,,,,,,,,,,,,,,-0.3814814814814815,0.32083333333333336,1,0,0,5.4126981000299565,call1,-0.03657407407407407,0.3277777777777778,1,0,0,6.394360599981155,colour1,0.32592592592592595,0.3060185185185185,1,0,0,7.244275200006086,number1,True,True,True,18,3,2019_Nov_14_1408,MA_Theta_Exp,3.0.7,60.0560202487846,
video/Training/zh_sp07_Ad_Ro_3_GlobalTheta_NoVideo.avi,globalTheta,noVideo,sp07,Ad,Ro,3,,,,,,,,0,9,9,9,,,,,,,,,,,,,,,,,-0.33611111111111114,0.3449074074074074,1,0,0,4.940729500027373,call1,0.032407407407407406,-0.04953703703703704,1,0,0,6.024425199953839,colour3,0.41805555555555557,-0.06481481481481481,1,0,0,7.007545700005721,number3,True,True,True,18,3,2019_Nov_14_1408,MA_Theta_Exp,3.0.7,60.0560202487846,
video/Experiment/zh_sp07_Ad_Gr_2_GlobalTheta_NoVideo.avi,globalTheta,noVideo,sp07,Ad,Gr,2,0,5,flow/blocks/GlobalTheta_NoVideo_A.csv,,,,,,,,,0,0,0,0,0,0,0,5,,,,,,,,,-0.39305555555555555,0.2972222222222222,1,0,0,5.346356399997603,call1,0.02361111111111111,0.09166666666666666,1,0,0,6.428640900005121,colour2,0.3648148148148148,0.11805555555555555,1,0,0,7.37692710000556,number2,True,True,True,18,3,2019_Nov_14_1408,MA_Theta_Exp,3.0.7,60.0560202487846,
video/Experiment/zh_sp07_Ad_Gr_3_GlobalTheta_NoVideo.avi,globalTheta,noVideo,sp07,Ad,Gr,3,0,5,flow/blocks/GlobalTheta_NoVideo_A.csv,,,,,,,,,0,0,0,0,0,1,1,6,,,,,,,,,-0.3726851851851852,0.3560185185185185,1,0,0,5.519337899982929,call1,0.02175925925925926,0.1050925925925926,1,0,0,6.502463300013915,colour2,0.3287037037037037,-0.075,1,0,0,7.485766099998727,number3,True,True,True,18,3,2019_Nov_14_1408,MA_Theta_Exp,3.0.7,60.0560202487846,
video/Experiment/zh_sp01_Dr_Ro_2_GlobalTheta_NoVideo.avi,globalTheta,noVideo,sp01,Dr,Ro,2,0,5,flow/blocks/GlobalTheta_NoVideo_A.csv,,,,,,,,,0,0,0,0,0,2,2,25,,,,,,,,,-0.37083333333333335,0.12222222222222222,1,0,0,6.081214700010605,call2,0.005092592592592593,-0.15092592592592594,1,0,0,7.081467300013173,colour3,0.34444444444444444,0.06851851851851852,1,0,0,8.16500510001788,number2,True,True,True,18,3,2019_Nov_14_1408,MA_Theta_Exp,3.0.7,60.0560202487846,
video/Experiment/zh_sp01_Ad_Ge_2_GlobalTheta_NoVideo.avi,globalTheta,noVideo,sp01,Ad,Ge,2,0,5,flow/blocks/GlobalTheta_NoVideo_A.csv,,,,,,,,,0,0,0,0,0,3,3,1,,,,,,,,,-0.387037037037037,0.3365740740740741,1,0,0,5.533064400020521,call1,-0.06157407407407407,0.3194444444444444,1,0,0,6.483118399977684,colour1,0.3638888888888889,0.08564814814814815,1,0,0,7.433102099981625,number2,True,True,True,18,3,2019_Nov_14_1408,MA_Theta_Exp,3.0.7,60.0560202487846,
video/Experiment/zh_sp01_Dr_Gr_3_GlobalTheta_NoVideo.avi,globalTheta,noVideo,sp01,Dr,Gr,3,0,5,flow/blocks/GlobalTheta_NoVideo_A.csv,,,,,,,,,0,0,0,0,0,4,4,22,,,,,,,,,-0.3402777777777778,0.10138888888888889,1,0,0,5.657160299946554,call2,-0.004166666666666667,0.10694444444444444,1,0,0,6.591643100022338,colour2,0.38287037037037036,-0.10092592592592593,1,0,0,7.5235926999594085,number3,True,True,True,18,3,2019_Nov_14_1408,MA_Theta_Exp,3.0.7,60.0560202487846,
video/Experiment/zh_sp07_Ad_We_1_GlobalTheta_NoVideo.avi,globalTheta,noVideo,sp07,Ad,We,1,0,5,flow/blocks/GlobalTheta_NoVideo_A.csv,,,,,,,,,0,0,0,0,0,5,5,12,,,,,,,,,-0.35138888888888886,0.36342592592592593,1,0,0,5.683677599998191,call1,-0.04351851851851852,-0.25324074074074077,1,0,0,6.833856499986723,colour4,0.4222222222222222,0.29953703703703705,1,0,0,7.9671494999784045,number1,True,True,True,18,3,2019_Nov_14_1408,MA_Theta_Exp,3.0.7,60.0560202487846,
video/Experiment/zh_sp01_Dr_We_2_GlobalTheta_NoVideo.avi,globalTheta,noVideo,sp01,Dr,We,2,0,5,flow/blocks/GlobalTheta_NoVideo_A.csv,,,,,,,,,0,0,0,0,0,6,6,29,,,,,,,,,-0.4134259259259259,-0.3365740740740741,1,0,0,5.783986700000241,call4,-0.04259259259259259,-0.33101851851851855,1,0,0,6.817959800013341,colour4,0.3837962962962963,0.10462962962962963,1,0,0,7.917009100026917,number2,False,True,True,18,3,2019_Nov_14_1408,MA_Theta_Exp,3.0.7,60.0560202487846,
video/Experiment/zh_sp01_Ad_Ge_3_GlobalTheta_NoVideo.avi,globalTheta,noVideo,sp01,Ad,Ge,3,0,5,flow/blocks/GlobalTheta_NoVideo_A.csv,,,,,,,,,0,0,0,0,0,7,7,2,,,,,,,,,-0.3435185185185185,0.28194444444444444,1,0,0,5.666072099993471,call1,-0.038425925925925926,0.2439814814814815,1,0,0,6.60022060002666,colour1,0.3439814814814815,-0.07546296296296297,1,0,0,7.632938299968373,number3,True,True,True,18,3,2019_Nov_14_1408,MA_Theta_Exp,3.0.7,60.0560202487846,
video/Experiment/zh_sp07_Dr_Ge_4_GlobalTheta_NoVideo.avi,globalTheta,noVideo,sp07,Dr,Ge,4,0,5,flow/blocks/GlobalTheta_NoVideo_A.csv,,,,,,,,,0,0,0,0,0,8,8,19,,,,,,,,,-0.4,-0.25324074074074077,1,0,0,5.265249399992172,call4,0.009722222222222222,-0.04351851851851852,1,0,0,8.264259099960327,colour3,0.40185185185185185,-0.2708333333333333,1,0,0,9.247310500009917,number4,False,False,True,18,3,2019_Nov_14_1408,MA_Theta_Exp,3.0.7,60.0560202487846,
video/Experiment/zh_sp07_Ad_Ro_2_GlobalTheta_NoVideo.avi,globalTheta,noVideo,sp07,Ad,Ro,2,0,5,flow/blocks/GlobalTheta_NoVideo_A.csv,,,,,,,,,0,0,0,0,0,9,9,9,,,,,,,,,-0.3925925925925926,0.2689814814814815,1,0,0,5.333179000008386,call1,0.05694444444444444,0.2462962962962963,1,0,0,7.816210900025908,colour1,0.42268518518518516,0.055092592592592596,1,0,0,8.616466299979948,number2,True,False,True,18,3,2019_Nov_14_1408,MA_Theta_Exp,3.0.7,60.0560202487846,
video/Experiment/zh_sp07_Ad_We_4_GlobalTheta_NoVideo.avi,globalTheta,noVideo,sp07,Ad,We,4,0,5,flow/blocks/GlobalTheta_NoVideo_A.csv,,,,,,,,,0,0,0,0,0,10,10,15,,,,,,,,,-0.40046296296296297,0.30462962962962964,1,0,0,4.929945099982433,call1,-0.011111111111111112,-0.30324074074074076,1,0,0,5.962885800050572,colour4,0.29953703703703705,-0.29259259259259257,1,0,0,6.829822800005786,number4,True,True,True,18,3,2019_Nov_14_1408,MA_Theta_Exp,3.0.7,60.0560202487846,
video/Experiment/zh_sp01_Dr_Gr_2_GlobalTheta_NoVideo.avi,globalTheta,noVideo,sp01,Dr,Gr,2,0,5,flow/blocks/GlobalTheta_NoVideo_A.csv,,,,,,,,,0,0,0,0,0,11,11,21,,,,,,,,,-0.34305555555555556,0.038425925925925926,1,0,0,5.6603915999876335,call2,-0.016203703703703703,0.07824074074074074,1,0,0,6.542819100024644,colour2,0.41435185185185186,0.06620370370370371,1,0,0,7.276995899970643,number2,True,True,True,18,3,2019_Nov_14_1408,MA_Theta_Exp,3.0.7,60.0560202487846,
video/Experiment/zh_sp07_Dr_We_4_GlobalTheta_NoVideo.avi,globalTheta,noVideo,sp07,Dr,We,4,0,5,flow/blocks/GlobalTheta_NoVideo_A.csv,,,,,,,,,0,0,0,0,0,12,12,31,,,,,,,,,-0.38101851851851853,0.35509259259259257,1,0,0,5.245433299976867,call1,-0.0032407407407407406,-0.25787037037037036,1,0,0,6.278638499963563,colour4,0.3907407407407407,-0.09444444444444444,1,0,0,7.244893399998546,number3,False,True,False,18,3,2019_Nov_14_1408,MA_Theta_Exp,3.0.7,60.0560202487846,
video/Experiment/zh_sp01_Dr_We_1_GlobalTheta_NoVideo.avi,globalTheta,noVideo,sp01,Dr,We,1,0,5,flow/blocks/GlobalTheta_NoVideo_A.csv,,,,,,,,,0,0,0,0,0,13,13,28,,,,,,,,,-0.375,0.10787037037037037,1,0,0,6.283818099997006,call2,-0.01574074074074074,-0.3194444444444444,1,0,0,7.383247599995229,colour4,0.4115740740740741,0.3439814814814815,1,0,0,8.449693899950944,number1,True,True,True,18,3,2019_Nov_14_1408,MA_Theta_Exp,3.0.7,60.0560202487846,
video/Experiment/zh_sp07_Ad_Ro_3_GlobalTheta_NoVideo.avi,globalTheta,noVideo,sp07,Ad,Ro,3,0,5,flow/blocks/GlobalTheta_NoVideo_A.csv,,,,,,,,,0,0,0,0,0,14,14,10,,,,,,,,,-0.3537037037037037,0.3435185185185185,1,0,0,4.911738599999808,call1,0.02361111111111111,-0.08657407407407407,1,0,0,6.061631099961232,colour3,0.40185185185185185,-0.06527777777777778,1,0,0,7.094815000018571,number3,True,True,True,18,3,2019_Nov_14_1408,MA_Theta_Exp,3.0.7,60.0560202487846,
video/Experiment/zh_sp07_Dr_Ge_2_GlobalTheta_NoVideo.avi,globalTheta,noVideo,sp07,Dr,Ge,2,0,5,flow/blocks/GlobalTheta_NoVideo_A.csv,,,,,,,,,0,0,0,0,0,15,15,17,,,,,,,,,-0.3050925925925926,0.2671296296296296,1,0,0,4.8538329000002705,call1,-0.03564814814814815,0.2847222222222222,1,0,0,6.453476900001988,colour1,0.3537037037037037,0.1087962962962963,1,0,0,7.619620000012219,number2,False,True,True,18,3,2019_Nov_14_1408,MA_Theta_Exp,3.0.7,60.0560202487846,
video/Experiment/zh_sp01_Ad_We_2_GlobalTheta_NoVideo.avi,globalTheta,noVideo,sp01,Ad,We,2,0,5,flow/blocks/GlobalTheta_NoVideo_A.csv,,,,,,,,,0,0,0,0,0,16,16,13,,,,,,,,,-0.39444444444444443,0.32546296296296295,1,0,0,5.530161799979396,call1,0.022222222222222223,-0.274537037037037,1,0,0,6.745891400030814,colour4,0.39490740740740743,0.09074074074074075,1,0,0,7.847835200023837,number2,True,True,True,18,3,2019_Nov_14_1408,MA_Theta_Exp,3.0.7,60.0560202487846,
video/Experiment/zh_sp07_Dr_Ro_4_GlobalTheta_NoVideo.avi,globalTheta,noVideo,sp07,Dr,Ro,4,0,5,flow/blocks/GlobalTheta_NoVideo_A.csv,,,,,,,,,0,0,0,0,0,17,17,27,,,,,,,,,-0.3662037037037037,-0.1425925925925926,1,0,0,6.040796199988108,call3,-0.001388888888888889,-0.1087962962962963,1,0,0,6.974423199950252,colour3,0.3902777777777778,-0.28564814814814815,1,0,0,7.890161900024395,number4,False,True,True,18,3,2019_Nov_14_1408,MA_Theta_Exp,3.0.7,60.0560202487846,
video/Experiment/zh_sp01_Dr_Ge_3_GlobalTheta_NoVideo.avi,globalTheta,noVideo,sp01,Dr,Ge,3,0,5,flow/blocks/GlobalTheta_NoVideo_A.csv,,,,,,,,,0,0,0,0,0,18,18,18,,,,,,,,,-0.3921296296296296,0.0787037037037037,1,0,0,5.393935600004625,call2,-0.03981481481481482,0.2865740740740741,1,0,0,6.3102772000129335,colour1,0.40185185185185185,-0.09305555555555556,1,0,0,7.276998599991202,number3,True,True,True,18,3,2019_Nov_14_1408,MA_Theta_Exp,3.0.7,60.0560202487846,
video/Experiment/zh_sp07_Ad_Ro_1_GlobalTheta_NoVideo.avi,globalTheta,noVideo,sp07,Ad,Ro,1,0,5,flow/blocks/GlobalTheta_NoVideo_A.csv,,,,,,,,,0,0,0,0,0,19,19,8,,,,,,,,,-0.36157407407407405,0.2824074074074074,1,0,0,4.6400425000465475,call1,-0.05416666666666667,0.2986111111111111,1,0,0,5.457333599973936,colour1,0.35324074074074074,0.2916666666666667,1,0,0,6.227037100004964,number1,True,False,True,18,3,2019_Nov_14_1408,MA_Theta_Exp,3.0.7,60.0560202487846,
video/Experiment/zh_sp01_Ad_Ro_4_GlobalTheta_NoVideo.avi,globalTheta,noVideo,sp01,Ad,Ro,4,0,5,flow/blocks/GlobalTheta_NoVideo_A.csv,,,,,,,,,0,0,0,0,0,20,20,11,,,,,,,,,-0.44583333333333336,0.3888888888888889,1,0,0,5.415962899976876,call1,0.004629629629629629,-0.03611111111111111,1,0,0,6.515528200019617,colour3,0.4125,-0.2898148148148148,1,0,0,7.449503700016066,number4,True,True,True,18,3,2019_Nov_14_1408,MA_Theta_Exp,3.0.7,60.0560202487846,
video/Experiment/zh_sp01_Ad_Ge_1_GlobalTheta_NoVideo.avi,globalTheta,noVideo,sp01,Ad,Ge,1,0,5,flow/blocks/GlobalTheta_NoVideo_A.csv,,,,,,,,,0,0,0,0,0,21,21,0,,,,,,,,,-0.3685185185185185,0.2810185185185185,1,0,0,5.832683400018141,call1,0.01990740740740741,0.31342592592592594,1,0,0,6.632824800035451,colour1,0.34074074074074073,0.30833333333333335,1,0,0,7.400740000011865,number1,True,True,True,18,3,2019_Nov_14_1408,MA_Theta_Exp,3.0.7,60.0560202487846,
video/Experiment/zh_sp01_Ad_We_3_GlobalTheta_NoVideo.avi,globalTheta,noVideo,sp01,Ad,We,3,0,5,flow/blocks/GlobalTheta_NoVideo_A.csv,,,,,,,,,0,0,0,0,0,22,22,14,,,,,,,,,-0.37037037037037035,0.35324074074074074,1,0,0,6.126583500008564,call1,0.043055555555555555,-0.26990740740740743,1,0,0,7.20932859997265,colour4,0.3800925925925926,-0.08703703703703704,1,0,0,8.193439099995885,number3,True,True,True,18,3,2019_Nov_14_1408,MA_Theta_Exp,3.0.7,60.0560202487846,
video/Experiment/zh_sp01_Dr_Gr_1_GlobalTheta_NoVideo.avi,globalTheta,noVideo,sp01,Dr,Gr,1,0,5,flow/blocks/GlobalTheta_NoVideo_A.csv,,,,,,,,,0,0,0,0,0,23,23,20,,,,,,,,,-0.3472222222222222,-0.12685185185185185,1,0,0,6.226949899981264,call3,-0.016666666666666666,0.3148148148148148,1,0,0,7.2936011999845505,colour1,0.3490740740740741,0.2902777777777778,1,0,0,8.309994000010192,number1,False,False,True,18,3,2019_Nov_14_1408,MA_Theta_Exp,3.0.7,60.0560202487846,
video/Experiment/zh_sp01_Dr_Ro_1_GlobalTheta_NoVideo.avi,globalTheta,noVideo,sp01,Dr,Ro,1,0,5,flow/blocks/GlobalTheta_NoVideo_A.csv,,,,,,,,,0,0,0,0,0,24,24,24,,,,,,,,,-0.3962962962962963,0.1361111111111111,1,0,0,5.634760799992364,call2,0.003703703703703704,-0.07916666666666666,1,0,0,6.634343300014734,colour3,0.375,0.325,1,0,0,7.6352353999973275,number1,True,True,True,18,3,2019_Nov_14_1408,MA_Theta_Exp,3.0.7,60.0560202487846,
video/Experiment/zh_sp01_Ad_Gr_1_GlobalTheta_NoVideo.avi,globalTheta,noVideo,sp01,Ad,Gr,1,0,5,flow/blocks/GlobalTheta_NoVideo_A.csv,,,,,,,,,0,0,0,0,0,25,25,4,,,,,,,,,-0.3680555555555556,0.3296296296296296,1,0,0,5.729426299978513,call1,-0.001388888888888889,0.14953703703703702,1,0,0,6.662378300039563,colour2,0.3638888888888889,0.30185185185185187,1,0,0,7.579032499983441,number1,True,True,True,18,3,2019_Nov_14_1408,MA_Theta_Exp,3.0.7,60.0560202487846,
video/Experiment/zh_sp07_Dr_Gr_4_GlobalTheta_NoVideo.avi,globalTheta,noVideo,sp07,Dr,Gr,4,0,5,flow/blocks/GlobalTheta_NoVideo_A.csv,,,,,,,,,0,0,0,0,0,26,26,23,,,,,,,,,-0.37546296296296294,0.12777777777777777,1,0,0,5.049658400006592,call2,-0.029166666666666667,0.1361111111111111,1,0,0,5.983079199970234,colour2,0.38101851851851853,-0.046296296296296294,1,0,0,6.932746100006625,number3,True,True,False,18,3,2019_Nov_14_1408,MA_Theta_Exp,3.0.7,60.0560202487846,
video/Experiment/zh_sp01_Dr_Ro_3_GlobalTheta_NoVideo.avi,globalTheta,noVideo,sp01,Dr,Ro,3,0,5,flow/blocks/GlobalTheta_NoVideo_A.csv,,,,,,,,,0,0,0,0,0,27,27,26,,,,,,,,,-0.36342592592592593,0.0712962962962963,1,0,0,5.807528899982572,call2,-0.01898148148148148,-0.09259259259259259,1,0,0,6.707322499947622,colour3,0.37916666666666665,-0.07592592592592592,1,0,0,7.558673000021372,number3,True,True,True,18,3,2019_Nov_14_1408,MA_Theta_Exp,3.0.7,60.0560202487846,
video/Experiment/zh_sp07_Ad_Gr_4_GlobalTheta_NoVideo.avi,globalTheta,noVideo,sp07,Ad,Gr,4,0,5,flow/blocks/GlobalTheta_NoVideo_A.csv,,,,,,,,,0,0,0,0,0,28,28,7,,,,,,,,,-0.37777777777777777,0.2986111111111111,1,0,0,5.097840100002941,call1,-0.008333333333333333,0.1337962962962963,1,0,0,6.04797899996629,colour2,0.42916666666666664,-0.275,1,0,0,7.116812099993695,number4,True,True,True,18,3,2019_Nov_14_1408,MA_Theta_Exp,3.0.7,60.0560202487846,
video/Experiment/zh_sp07_Ad_Ge_4_GlobalTheta_NoVideo.avi,globalTheta,noVideo,sp07,Ad,Ge,4,0,5,flow/blocks/GlobalTheta_NoVideo_A.csv,,,,,,,,,0,0,0,0,0,29,29,3,,,,,,,,,-0.337037037037037,0.26064814814814813,1,0,0,5.2330805999808945,call1,-0.021296296296296296,0.16203703703703703,1,0,0,6.033396600047126,colour2,0.32175925925925924,-0.24722222222222223,1,0,0,7.2326108000124805,number4,True,False,True,18,3,2019_Nov_14_1408,MA_Theta_Exp,3.0.7,60.0560202487846,
video/Experiment/zh_sp07_Dr_We_3_GlobalTheta_NoVideo.avi,globalTheta,noVideo,sp07,Dr,We,3,0,5,flow/blocks/GlobalTheta_NoVideo_A.csv,,,,,,,,,0,0,0,0,0,30,30,30,,,,,,,,,-0.375,0.23842592592592593,1,0,0,5.787870100000873,call1,-0.037037037037037035,-0.2791666666666667,1,0,0,7.054567700019106,colour4,0.4166666666666667,-0.10555555555555556,1,0,0,8.121221499983221,number3,False,True,True,18,3,2019_Nov_14_1408,MA_Theta_Exp,3.0.7,60.0560202487846,
video/Experiment/zh_sp07_Dr_Ge_1_GlobalTheta_NoVideo.avi,globalTheta,noVideo,sp07,Dr,Ge,1,0,5,flow/blocks/GlobalTheta_NoVideo_A.csv,,,,,,,,,0,0,0,0,0,31,31,16,,,,,,,,,-0.3560185185185185,-0.04722222222222222,1,0,0,4.894545899995137,call3,-0.022222222222222223,0.2814814814814815,1,0,0,5.811064899957273,colour1,0.35324074074074074,0.2875,1,0,0,6.677994000026956,number1,False,True,True,18,3,2019_Nov_14_1408,MA_Theta_Exp,3.0.7,60.0560202487846,
video/Experiment/zh_sp01_Ad_Ge_4_NVocInAudio_GlobalThetaInVideo.avi,vocoded,plusVideo,sp01,Ad,Ge,4,1,1,flow/blocks/NVocInAudio_GlobalThetaInVideo_A.csv,,,,,,,,,0,1,1,1,0,0,0,3,,,,,,,,,-0.39444444444444443,0.3675925925925926,1,0,0,5.445233999984339,call1,0.005555555555555556,0.3199074074074074,1,0,0,7.460177900036797,colour1,0.38657407407407407,-0.2708333333333333,1,0,0,9.080415200034622,number4,True,True,True,18,3,2019_Nov_14_1408,MA_Theta_Exp,3.0.7,60.0560202487846,
video/Experiment/zh_sp07_Ad_Gr_1_NVocInAudio_GlobalThetaInVideo.avi,vocoded,plusVideo,sp07,Ad,Gr,1,1,1,flow/blocks/NVocInAudio_GlobalThetaInVideo_A.csv,,,,,,,,,0,1,1,1,0,1,1,4,,,,,,,,,-0.3680555555555556,0.22453703703703703,1,0,0,5.093686699983664,call1,0.03981481481481482,0.06157407407407407,1,0,0,6.0607998999767005,colour2,0.34444444444444444,0.2712962962962963,1,0,0,7.026880600024015,number1,True,True,True,18,3,2019_Nov_14_1408,MA_Theta_Exp,3.0.7,60.0560202487846,
video/Experiment/zh_sp01_Dr_Ge_2_NVocInAudio_GlobalThetaInVideo.avi,vocoded,plusVideo,sp01,Dr,Ge,2,1,1,flow/blocks/NVocInAudio_GlobalThetaInVideo_A.csv,,,,,,,,,0,1,1,1,0,2,2,17,,,,,,,,,-0.3902777777777778,0.11574074074074074,1,0,0,5.4906697999686,call2,-0.02361111111111111,0.3314814814814815,1,0,0,6.387774600007106,colour1,0.43657407407407406,0.11203703703703703,1,0,0,7.320868799986783,number2,True,True,True,18,3,2019_Nov_14_1408,MA_Theta_Exp,3.0.7,60.0560202487846,
video/Experiment/zh_sp01_Ad_We_3_NVocInAudio_GlobalThetaInVideo.avi,vocoded,plusVideo,sp01,Ad,We,3,1,1,flow/blocks/NVocInAudio_GlobalThetaInVideo_A.csv,,,,,,,,,0,1,1,1,0,3,3,14,,,,,,,,,-0.36435185185185187,0.324537037037037,1,0,0,5.420902999991085,call1,-0.024537037037037038,-0.26990740740740743,1,0,0,6.483782799972687,colour4,0.35509259259259257,-0.0962962962962963,1,0,0,7.584060899971519,number3,True,True,True,18,3,2019_Nov_14_1408,MA_Theta_Exp,3.0.7,60.0560202487846,
video/Experiment/zh_sp01_Ad_Gr_2_NVocInAudio_GlobalThetaInVideo.avi,vocoded,plusVideo,sp01,Ad,Gr,2,1,1,flow/blocks/NVocInAudio_GlobalThetaInVideo_A.csv,,,,,,,,,0,1,1,1,0,4,4,5,,,,,,,,,-0.35462962962962963,0.28703703703703703,1,0,0,5.8943817999679595,call1,0.028703703703703703,0.11203703703703703,1,0,0,6.944394799997099,colour2,0.3685185185185185,0.125,1,0,0,7.943793500016909,number2,True,True,True,18,3,2019_Nov_14_1408,MA_Theta_Exp,3.0.7,60.0560202487846,
video/Experiment/zh_sp01_Dr_Gr_4_NVocInAudio_GlobalThetaInVideo.avi,vocoded,plusVideo,sp01,Dr,Gr,4,1,1,flow/blocks/NVocInAudio_GlobalThetaInVideo_A.csv,,,,,,,,,0,1,1,1,0,5,5,23,,,,,,,,,-0.33101851851851855,0.09768518518518518,1,0,0,5.644566200033296,call2,0.003703703703703704,0.09675925925925925,1,0,0,6.6113610999891534,colour2,0.3851851851851852,-0.2722222222222222,1,0,0,7.611697799991816,number4,True,True,True,18,3,2019_Nov_14_1408,MA_Theta_Exp,3.0.7,60.0560202487846,
video/Experiment/zh_sp01_Dr_We_2_NVocInAudio_GlobalThetaInVideo.avi,vocoded,plusVideo,sp01,Dr,We,2,1,1,flow/blocks/NVocInAudio_GlobalThetaInVideo_A.csv,,,,,,,,,0,1,1,1,0,6,6,29,,,,,,,,,-0.38333333333333336,0.10694444444444444,1,0,0,6.39141290000407,call2,0.034722222222222224,-0.30277777777777776,1,0,0,7.4414618000155315,colour4,0.38935185185185184,0.020833333333333332,1,0,0,8.52463960001478,number2,True,True,True,18,3,2019_Nov_14_1408,MA_Theta_Exp,3.0.7,60.0560202487846,
video/Experiment/zh_sp07_Ad_Ro_3_NVocInAudio_GlobalThetaInVideo.avi,vocoded,plusVideo,sp07,Ad,Ro,3,1,1,flow/blocks/NVocInAudio_GlobalThetaInVideo_A.csv,,,,,,,,,0,1,1,1,0,7,7,10,,,,,,,,,-0.3648148148148148,0.36666666666666664,1,0,0,4.862600399996154,call1,0.032407407407407406,-0.07314814814814814,1,0,0,5.912226399988867,colour3,0.39861111111111114,-0.10185185185185185,1,0,0,6.7466113999835216,number3,True,True,True,18,3,2019_Nov_14_1408,MA_Theta_Exp,3.0.7,60.0560202487846,
video/Experiment/zh_sp01_Dr_Ro_2_NVocInAudio_GlobalThetaInVideo.avi,vocoded,plusVideo,sp01,Dr,Ro,2,1,1,flow/blocks/NVocInAudio_GlobalThetaInVideo_A.csv,,,,,,,,,0,1,1,1,0,8,8,25,,,,,,,,,-0.3819444444444444,0.1037037037037037,1,0,0,6.7462845999980345,call2,-0.016203703703703703,-0.07268518518518519,1,0,0,7.662502599996515,colour3,0.3731481481481482,0.09490740740740741,1,0,0,8.595410600013565,number2,True,True,True,18,3,2019_Nov_14_1408,MA_Theta_Exp,3.0.7,60.0560202487846,
video/Experiment/zh_sp07_Ad_Ro_1_NVocInAudio_GlobalThetaInVideo.avi,vocoded,plusVideo,sp07,Ad,Ro,1,1,1,flow/blocks/NVocInAudio_GlobalThetaInVideo_A.csv,,,,,,,,,0,1,1,1,0,9,9,8,,,,,,,,,-0.4203703703703704,0.3055555555555556,1,0,0,4.722194999980275,call1,-0.020833333333333332,-0.09166666666666666,1,0,0,5.776433799997903,colour3,0.38935185185185184,0.2986111111111111,1,0,0,6.758172600006219,number1,True,True,True,18,3,2019_Nov_14_1408,MA_Theta_Exp,3.0.7,60.0560202487846,
video/Experiment/zh_sp07_Dr_We_1_NVocInAudio_GlobalThetaInVideo.avi,vocoded,plusVideo,sp07,Dr,We,1,1,1,flow/blocks/NVocInAudio_GlobalThetaInVideo_A.csv,,,,,,,,,0,1,1,1,0,10,10,28,,,,,,,,,-0.4046296296296296,0.08796296296296297,1,0,0,4.958242500026245,call2,0.011111111111111112,-0.28055555555555556,1,0,0,6.025113100011367,colour4,0.4375,0.35648148148148145,1,0,0,7.141833000001498,number1,True,True,True,18,3,2019_Nov_14_1408,MA_Theta_Exp,3.0.7,60.0560202487846,
video/Experiment/zh_sp07_Dr_Ro_4_NVocInAudio_GlobalThetaInVideo.avi,vocoded,plusVideo,sp07,Dr,Ro,4,1,1,flow/blocks/NVocInAudio_GlobalThetaInVideo_A.csv,,,,,,,,,0,1,1,1,0,11,11,27,,,,,,,,,-0.35,0.12361111111111112,1,0,0,5.065128799993545,call2,-0.032407407407407406,-0.075,1,0,0,6.000690799963195,colour3,0.35185185185185186,-0.274537037037037,1,0,0,6.970700500009116,number4,True,True,True,18,3,2019_Nov_14_1408,MA_Theta_Exp,3.0.7,60.0560202487846,
video/Experiment/zh_sp01_Dr_Ro_3_NVocInAudio_GlobalThetaInVideo.avi,vocoded,plusVideo,sp01,Dr,Ro,3,1,1,flow/blocks/NVocInAudio_GlobalThetaInVideo_A.csv,,,,,,,,,0,1,1,1,0,12,12,26,,,,,,,,,-0.3888888888888889,0.06759259259259259,1,0,0,5.492232199991122,call2,0.004166666666666667,-0.0912037037037037,1,0,0,6.54207550000865,colour3,0.375,-0.08333333333333333,1,0,0,7.508559199981391,number3,True,True,True,18,3,2019_Nov_14_1408,MA_Theta_Exp,3.0.7,60.0560202487846,
video/Experiment/zh_sp01_Dr_Ge_1_NVocInAudio_GlobalThetaInVideo.avi,vocoded,plusVideo,sp01,Dr,Ge,1,1,1,flow/blocks/NVocInAudio_GlobalThetaInVideo_A.csv,,,,,,,,,0,1,1,1,0,13,13,16,,,,,,,,,-0.3055555555555556,0.08518518518518518,1,0,0,5.611791000002995,call2,-0.009722222222222222,0.2833333333333333,1,0,0,7.478582299954724,colour1,0.3490740740740741,0.2949074074074074,1,0,0,8.578634200035594,number1,True,True,True,18,3,2019_Nov_14_1408,MA_Theta_Exp,3.0.7,60.0560202487846,
video/Experiment/zh_sp01_Dr_Gr_1_NVocInAudio_GlobalThetaInVideo.avi,vocoded,plusVideo,sp01,Dr,Gr,1,1,1,flow/blocks/NVocInAudio_GlobalThetaInVideo_A.csv,,,,,,,,,0,1,1,1,0,14,14,20,,,,,,,,,-0.38842592592592595,0.08333333333333333,1,0,0,5.726610099954996,call2,0.03657407407407407,0.10925925925925926,1,0,0,6.709340300003532,colour2,0.35138888888888886,0.28379629629629627,1,0,0,7.593080599966925,number1,True,True,True,18,3,2019_Nov_14_1408,MA_Theta_Exp,3.0.7,60.0560202487846,
video/Experiment/zh_sp07_Ad_Ro_4_NVocInAudio_GlobalThetaInVideo.avi,vocoded,plusVideo,sp07,Ad,Ro,4,1,1,flow/blocks/NVocInAudio_GlobalThetaInVideo_A.csv,,,,,,,,,0,1,1,1,0,15,15,11,,,,,,,,,-0.4199074074074074,0.28703703703703703,1,0,0,5.04937650001375,call1,-0.006944444444444444,-0.08425925925925926,1,0,0,6.148815199965611,colour3,0.3736111111111111,-0.26944444444444443,1,0,0,7.268392600002699,number4,True,True,True,18,3,2019_Nov_14_1408,MA_Theta_Exp,3.0.7,60.0560202487846,
video/Experiment/zh_sp07_Dr_Ge_4_NVocInAudio_GlobalThetaInVideo.avi,vocoded,plusVideo,sp07,Dr,Ge,4,1,1,flow/blocks/NVocInAudio_GlobalThetaInVideo_A.csv,,,,,,,,,0,1,1,1,0,16,16,19,,,,,,,,,-0.3476851851851852,0.07824074074074074,1,0,0,5.384418800007552,call2,-0.027314814814814816,0.2773148148148148,1,0,0,6.30104350001784,colour1,0.425,-0.2833333333333333,1,0,0,7.350664699974004,number4,True,True,True,18,3,2019_Nov_14_1408,MA_Theta_Exp,3.0.7,60.0560202487846,
video/Experiment/zh_sp07_Dr_We_3_NVocInAudio_GlobalThetaInVideo.avi,vocoded,plusVideo,sp07,Dr,We,3,1,1,flow/blocks/NVocInAudio_GlobalThetaInVideo_A.csv,,,,,,,,,0,1,1,1,0,17,17,30,,,,,,,,,-0.41574074074074074,0.040740740740740744,1,0,0,4.873373700014781,call2,-0.020833333333333332,-0.30185185185185187,1,0,0,5.923112300049979,colour4,0.39166666666666666,-0.11018518518518519,1,0,0,6.923025200027041,number3,True,True,True,18,3,2019_Nov_14_1408,MA_Theta_Exp,3.0.7,60.0560202487846,
video/Experiment/zh_sp07_Dr_Ge_3_NVocInAudio_GlobalThetaInVideo.avi,vocoded,plusVideo,sp07,Dr,Ge,3,1,1,flow/blocks/NVocInAudio_GlobalThetaInVideo_A.csv,,,,,,,,,0,1,1,1,0,18,18,18,,,,,,,,,-0.4185185185185185,0.12175925925925926,1,0,0,4.967128100048285,call2,-0.04212962962962963,0.3111111111111111,1,0,0,6.050274899986107,colour1,0.4027777777777778,-0.06527777777777778,1,0,0,7.067006599972956,number3,True,True,True,18,3,2019_Nov_14_1408,MA_Theta_Exp,3.0.7,60.0560202487846,
video/Experiment/zh_sp01_Ad_We_4_NVocInAudio_GlobalThetaInVideo.avi,vocoded,plusVideo,sp01,Ad,We,4,1,1,flow/blocks/NVocInAudio_GlobalThetaInVideo_A.csv,,,,,,,,,0,1,1,1,0,19,19,15,,,,,,,,,-0.37407407407407406,0.2652777777777778,1,0,0,5.512575799948536,call1,0.046296296296296294,-0.33611111111111114,1,0,0,6.528631800028961,colour4,0.375,-0.30416666666666664,1,0,0,7.37899329996435,number4,True,True,True,18,3,2019_Nov_14_1408,MA_Theta_Exp,3.0.7,60.0560202487846,
video/Experiment/zh_sp01_Dr_We_4_NVocInAudio_GlobalThetaInVideo.avi,vocoded,plusVideo,sp01,Dr,We,4,1,1,flow/blocks/NVocInAudio_GlobalThetaInVideo_A.csv,,,,,,,,,0,1,1,1,0,20,20,31,,,,,,,,,-0.3527777777777778,0.26064814814814813,1,0,0,5.83360840001842,call1,0.04953703703703704,-0.30462962962962964,1,0,0,6.833055700000841,colour4,0.37546296296296294,-0.30416666666666664,1,0,0,7.599859500012826,number4,False,True,True,18,3,2019_Nov_14_1408,MA_Theta_Exp,3.0.7,60.0560202487846,
video/Experiment/zh_sp07_Dr_Ro_1_NVocInAudio_GlobalThetaInVideo.avi,vocoded,plusVideo,sp07,Dr,Ro,1,1,1,flow/blocks/NVocInAudio_GlobalThetaInVideo_A.csv,,,,,,,,,0,1,1,1,0,21,21,24,,,,,,,,,-0.3648148148148148,0.08148148148148149,1,0,0,5.364439699973445,call2,0.03333333333333333,-0.10601851851851851,1,0,0,6.2037563000340015,colour3,0.34953703703703703,0.275,1,0,0,7.16693559999112,number1,True,True,True,18,3,2019_Nov_14_1408,MA_Theta_Exp,3.0.7,60.0560202487846,
video/Experiment/zh_sp07_Dr_Gr_3_NVocInAudio_GlobalThetaInVideo.avi,vocoded,plusVideo,sp07,Dr,Gr,3,1,1,flow/blocks/NVocInAudio_GlobalThetaInVideo_A.csv,,,,,,,,,0,1,1,1,0,22,22,22,,,,,,,,,-0.3837962962962963,0.10601851851851851,1,0,0,5.179655799991451,call2,0.019444444444444445,0.14027777777777778,1,0,0,6.0460874999989755,colour2,0.4074074074074074,-0.04490740740740741,1,0,0,6.879166099999566,number3,True,True,True,18,3,2019_Nov_14_1408,MA_Theta_Exp,3.0.7,60.0560202487846,
video/Experiment/zh_sp07_Ad_Gr_3_NVocInAudio_GlobalThetaInVideo.avi,vocoded,plusVideo,sp07,Ad,Gr,3,1,1,flow/blocks/NVocInAudio_GlobalThetaInVideo_A.csv,,,,,,,,,0,1,1,1,0,23,23,6,,,,,,,,,-0.43472222222222223,0.30833333333333335,1,0,0,4.980480999976862,call1,-0.038425925925925926,0.14537037037037037,1,0,0,5.965139199979603,colour2,0.3763888888888889,-0.08333333333333333,1,0,0,6.832235300040338,number3,True,True,True,18,3,2019_Nov_14_1408,MA_Theta_Exp,3.0.7,60.0560202487846,
video/Experiment/zh_sp01_Ad_Gr_4_NVocInAudio_GlobalThetaInVideo.avi,vocoded,plusVideo,sp01,Ad,Gr,4,1,1,flow/blocks/NVocInAudio_GlobalThetaInVideo_A.csv,,,,,,,,,0,1,1,1,0,24,24,7,,,,,,,,,-0.36342592592592593,0.2810185185185185,1,0,0,5.562055299989879,call1,0.03333333333333333,0.08101851851851852,1,0,0,7.361680400033947,colour2,0.4,-0.29444444444444445,1,0,0,8.444609600002877,number4,True,True,True,18,3,2019_Nov_14_1408,MA_Theta_Exp,3.0.7,60.0560202487846,
video/Experiment/zh_sp07_Ad_We_1_NVocInAudio_GlobalThetaInVideo.avi,vocoded,plusVideo,sp07,Ad,We,1,1,1,flow/blocks/NVocInAudio_GlobalThetaInVideo_A.csv,,,,,,,,,0,1,1,1,0,25,25,12,,,,,,,,,-0.38333333333333336,0.2847222222222222,1,0,0,4.923998799989931,call1,-0.000462962962962963,-0.28194444444444444,1,0,0,6.040550499979872,colour4,0.39814814814814814,0.26990740740740743,1,0,0,7.040166699967813,number1,True,True,True,18,3,2019_Nov_14_1408,MA_Theta_Exp,3.0.7,60.0560202487846,
video/Experiment/zh_sp01_Ad_We_2_NVocInAudio_GlobalThetaInVideo.avi,vocoded,plusVideo,sp01,Ad,We,2,1,1,flow/blocks/NVocInAudio_GlobalThetaInVideo_A.csv,,,,,,,,,0,1,1,1,0,26,26,13,,,,,,,,,-0.3282407407407407,0.3398148148148148,1,0,0,5.659062399994582,call1,-0.003703703703703704,-0.25277777777777777,1,0,0,6.809241599985398,colour4,0.41388888888888886,0.0787037037037037,1,0,0,7.942167600034736,number2,True,True,True,18,3,2019_Nov_14_1408,MA_Theta_Exp,3.0.7,60.0560202487846,
video/Experiment/zh_sp01_Dr_Gr_2_NVocInAudio_GlobalThetaInVideo.avi,vocoded,plusVideo,sp01,Dr,Gr,2,1,1,flow/blocks/NVocInAudio_GlobalThetaInVideo_A.csv,,,,,,,,,0,1,1,1,0,27,27,21,,,,,,,,,-0.3861111111111111,0.10601851851851851,1,0,0,6.127961600024719,call2,-0.007407407407407408,0.10972222222222222,1,0,0,6.994774799968582,colour2,0.3685185185185185,0.10833333333333334,1,0,0,7.81156010000268,number2,True,True,True,18,3,2019_Nov_14_1408,MA_Theta_Exp,3.0.7,60.0560202487846,
video/Experiment/zh_sp01_Ad_Ge_2_NVocInAudio_GlobalThetaInVideo.avi,vocoded,plusVideo,sp01,Ad,Ge,2,1,1,flow/blocks/NVocInAudio_GlobalThetaInVideo_A.csv,,,,,,,,,0,1,1,1,0,28,28,1,,,,,,,,,-0.35648148148148145,0.2763888888888889,1,0,0,6.245953100034967,call1,-0.000462962962962963,0.32546296296296295,1,0,0,7.145479900005739,colour1,0.3819444444444444,0.12824074074074074,1,0,0,8.081731499987654,number2,True,True,True,18,3,2019_Nov_14_1408,MA_Theta_Exp,3.0.7,60.0560202487846,
video/Experiment/zh_sp07_Ad_Ge_1_NVocInAudio_GlobalThetaInVideo.avi,vocoded,plusVideo,sp07,Ad,Ge,1,1,1,flow/blocks/NVocInAudio_GlobalThetaInVideo_A.csv,,,,,,,,,0,1,1,1,0,29,29,0,,,,,,,,,-0.31805555555555554,0.26481481481481484,1,0,0,4.865243299980648,call1,-0.03611111111111111,0.337037037037037,1,0,0,5.632387400022708,colour1,0.29768518518518516,0.3175925925925926,1,0,0,6.365386400022544,number1,True,True,True,18,3,2019_Nov_14_1408,MA_Theta_Exp,3.0.7,60.0560202487846,
video/Experiment/zh_sp07_Ad_Ro_2_NVocInAudio_GlobalThetaInVideo.avi,vocoded,plusVideo,sp07,Ad,Ro,2,1,1,flow/blocks/NVocInAudio_GlobalThetaInVideo_A.csv,,,,,,,,,0,1,1,1,0,30,30,9,,,,,,,,,-0.3685185185185185,0.3125,1,0,0,4.859152100048959,call1,0.029166666666666667,-0.08611111111111111,1,0,0,5.843001400004141,colour3,0.3888888888888889,0.09212962962962963,1,0,0,6.776051199994981,number2,True,True,True,18,3,2019_Nov_14_1408,MA_Theta_Exp,3.0.7,60.0560202487846,
video/Experiment/zh_sp07_Ad_Ge_3_NVocInAudio_GlobalThetaInVideo.avi,vocoded,plusVideo,sp07,Ad,Ge,3,1,1,flow/blocks/NVocInAudio_GlobalThetaInVideo_A.csv,,,,,,,,,0,1,1,1,0,31,31,2,,,,,,,,,-0.324537037037037,0.33796296296296297,1,0,0,4.902356999984477,call1,-0.020370370370370372,0.3300925925925926,1,0,0,5.78520009998465,colour1,0.39861111111111114,-0.06342592592592593,1,0,0,6.785472699964885,number3,True,True,True,18,3,2019_Nov_14_1408,MA_Theta_Exp,3.0.7,60.0560202487846,
video/Experiment/zh_sp01_Ad_Ge_3_NoThetaInAudio_NoVideo.avi,noTheta,noVideo,sp01,Ad,Ge,3,2,4,flow/blocks/NoThetaInAudio_NoVideo_A.csv,,,,,,,,,0,2,2,2,0,0,0,2,,,,,,,,,-0.36064814814814816,0.33194444444444443,1,0,0,5.385387000045739,call1,0.006481481481481481,0.3398148148148148,1,0,0,6.285277699993458,colour1,0.4587962962962963,-0.11203703703703703,1,0,0,7.185233999975026,number3,True,True,True,18,3,2019_Nov_14_1408,MA_Theta_Exp,3.0.7,60.0560202487846,
video/Experiment/zh_sp07_Ad_Gr_4_NoThetaInAudio_NoVideo.avi,noTheta,noVideo,sp07,Ad,Gr,4,2,4,flow/blocks/NoThetaInAudio_NoVideo_A.csv,,,,,,,,,0,2,2,2,0,1,1,7,,,,,,,,,-0.34953703703703703,0.2824074074074074,1,0,0,4.988118499983102,call1,-0.007407407407407408,0.12546296296296297,1,0,0,5.910114599973895,colour2,0.39537037037037037,-0.28564814814814815,1,0,0,6.887604699993972,number4,True,True,True,18,3,2019_Nov_14_1408,MA_Theta_Exp,3.0.7,60.0560202487846,
video/Experiment/zh_sp01_Dr_Ge_3_NoThetaInAudio_NoVideo.avi,noTheta,noVideo,sp01,Dr,Ge,3,2,4,flow/blocks/NoThetaInAudio_NoVideo_A.csv,,,,,,,,,0,2,2,2,0,2,2,18,,,,,,,,,-0.3421296296296296,0.07037037037037037,1,0,0,5.727382600016426,call2,0.02638888888888889,0.2824074074074074,1,0,0,6.693693299952429,colour1,0.3574074074074074,-0.09722222222222222,1,0,0,7.62672380002914,number3,True,True,True,18,3,2019_Nov_14_1408,MA_Theta_Exp,3.0.7,60.0560202487846,
video/Experiment/zh_sp07_Dr_Gr_1_NoThetaInAudio_NoVideo.avi,noTheta,noVideo,sp07,Dr,Gr,1,2,4,flow/blocks/NoThetaInAudio_NoVideo_A.csv,,,,,,,,,0,2,2,2,0,3,3,20,,,,,,,,,-0.3509259259259259,0.13796296296296295,1,0,0,5.164462000015192,call2,0.001388888888888889,0.12685185185185185,1,0,0,6.031071399978828,colour2,0.3541666666666667,0.274537037037037,1,0,0,6.897932399995625,number1,True,True,True,18,3,2019_Nov_14_1408,MA_Theta_Exp,3.0.7,60.0560202487846,
video/Experiment/zh_sp01_Dr_We_1_NoThetaInAudio_NoVideo.avi,noTheta,noVideo,sp01,Dr,We,1,2,4,flow/blocks/NoThetaInAudio_NoVideo_A.csv,,,,,,,,,0,2,2,2,0,4,4,28,,,,,,,,,-0.4115740740740741,0.12268518518518519,1,0,0,5.603669199976139,call2,0.0699074074074074,-0.3449074074074074,1,0,0,6.554585899983067,colour4,0.425,0.26157407407407407,1,0,0,7.519949100038502,number1,True,True,True,18,3,2019_Nov_14_1408,MA_Theta_Exp,3.0.7,60.0560202487846,
video/Experiment/zh_sp01_Dr_Ro_2_NoThetaInAudio_NoVideo.avi,noTheta,noVideo,sp01,Dr,Ro,2,2,4,flow/blocks/NoThetaInAudio_NoVideo_A.csv,,,,,,,,,0,2,2,2,0,5,5,25,,,,,,,,,-0.3763888888888889,0.06111111111111111,1,0,0,5.715485299995635,call2,-0.06018518518518518,-0.1300925925925926,1,0,0,6.6511987000121735,colour3,0.39537037037037037,0.09490740740740741,1,0,0,7.585108400031459,number2,True,True,True,18,3,2019_Nov_14_1408,MA_Theta_Exp,3.0.7,60.0560202487846,
video/Experiment/zh_sp07_Dr_Gr_2_NoThetaInAudio_NoVideo.avi,noTheta,noVideo,sp07,Dr,Gr,2,2,4,flow/blocks/NoThetaInAudio_NoVideo_A.csv,,,,,,,,,0,2,2,2,0,6,6,21,,,,,,,,,-0.4125,0.12777777777777777,1,0,0,5.975180300010834,call2,-0.03425925925925926,0.14212962962962963,1,0,0,6.908126099966466,colour2,0.3736111111111111,0.1125,1,0,0,7.79131870000856,number2,True,True,True,18,3,2019_Nov_14_1408,MA_Theta_Exp,3.0.7,60.0560202487846,
video/Experiment/zh_sp07_Ad_Gr_1_NoThetaInAudio_NoVideo.avi,noTheta,noVideo,sp07,Ad,Gr,1,2,4,flow/blocks/NoThetaInAudio_NoVideo_A.csv,,,,,,,,,0,2,2,2,0,7,7,4,,,,,,,,,-0.3851851851851852,0.2671296296296296,1,0,0,5.268258199968841,call1,-0.0824074074074074,0.10740740740740741,1,0,0,6.130574400012847,colour2,0.4652777777777778,0.3902777777777778,1,0,0,6.93012869998347,number1,True,True,True,18,3,2019_Nov_14_1408,MA_Theta_Exp,3.0.7,60.0560202487846,
video/Experiment/zh_sp07_Ad_Gr_2_NoThetaInAudio_NoVideo.avi,noTheta,noVideo,sp07,Ad,Gr,2,2,4,flow/blocks/NoThetaInAudio_NoVideo_A.csv,,,,,,,,,0,2,2,2,0,8,8,5,,,,,,,,,-0.3731481481481482,0.27546296296296297,1,0,0,5.031993200012948,call1,0.005092592592592593,0.09537037037037037,1,0,0,5.848479499982204,colour2,0.34675925925925927,0.11388888888888889,1,0,0,6.698821600002702,number2,True,True,True,18,3,2019_Nov_14_1408,MA_Theta_Exp,3.0.7,60.0560202487846,
video/Experiment/zh_sp01_Ad_Ro_3_NoThetaInAudio_NoVideo.avi,noTheta,noVideo,sp01,Ad,Ro,3,2,4,flow/blocks/NoThetaInAudio_NoVideo_A.csv,,,,,,,,,0,2,2,2,0,9,9,10,,,,,,,,,-0.4199074074074074,0.3087962962962963,1,0,0,5.502211200015154,call1,0.008796296296296297,-0.10925925925925926,1,0,0,6.418509000039194,colour3,0.37407407407407406,-0.08101851851851852,1,0,0,7.28580489999149,number3,True,True,True,18,3,2019_Nov_14_1408,MA_Theta_Exp,3.0.7,60.0560202487846,
video/Experiment/zh_sp01_Ad_We_1_NoThetaInAudio_NoVideo.avi,noTheta,noVideo,sp01,Ad,We,1,2,4,flow/blocks/NoThetaInAudio_NoVideo_A.csv,,,,,,,,,0,2,2,2,0,10,10,12,,,,,,,,,-0.3731481481481482,0.29814814814814816,1,0,0,5.5093227999750525,call1,-0.01990740740740741,-0.32916666666666666,1,0,0,6.475512599979993,colour4,0.38657407407407407,0.28703703703703703,1,0,0,7.393718099978287,number1,True,True,True,18,3,2019_Nov_14_1408,MA_Theta_Exp,3.0.7,60.0560202487846,
video/Experiment/zh_sp01_Ad_We_4_NoThetaInAudio_NoVideo.avi,noTheta,noVideo,sp01,Ad,We,4,2,4,flow/blocks/NoThetaInAudio_NoVideo_A.csv,,,,,,,,,0,2,2,2,0,11,11,15,,,,,,,,,-0.43472222222222223,0.3175925925925926,1,0,0,5.431200099992566,call1,-0.005555555555555556,-0.3037037037037037,1,0,0,6.444198000011966,colour4,0.37824074074074077,-0.2814814814814815,1,0,0,7.382424300012644,number4,True,True,True,18,3,2019_Nov_14_1408,MA_Theta_Exp,3.0.7,60.0560202487846,
video/Experiment/zh_sp01_Dr_Ro_3_NoThetaInAudio_NoVideo.avi,noTheta,noVideo,sp01,Dr,Ro,3,2,4,flow/blocks/NoThetaInAudio_NoVideo_A.csv,,,,,,,,,0,2,2,2,0,12,12,26,,,,,,,,,-0.40370370370370373,0.12824074074074074,1,0,0,5.420602200028952,call2,-0.009722222222222222,-0.0962962962962963,1,0,0,6.266040300019085,colour3,0.32407407407407407,-0.08935185185185185,1,0,0,7.099788899999112,number3,True,True,True,18,3,2019_Nov_14_1408,MA_Theta_Exp,3.0.7,60.0560202487846,
video/Experiment/zh_sp01_Ad_Ro_4_NoThetaInAudio_NoVideo.avi,noTheta,noVideo,sp01,Ad,Ro,4,2,4,flow/blocks/NoThetaInAudio_NoVideo_A.csv,,,,,,,,,0,2,2,2,0,13,13,11,,,,,,,,,-0.350462962962963,0.27175925925925926,1,0,0,5.629448899999261,call1,-0.011574074074074073,-0.08472222222222223,1,0,0,6.445927699969616,colour3,0.39490740740740743,-0.28425925925925927,1,0,0,7.211853600048926,number4,True,True,True,18,3,2019_Nov_14_1408,MA_Theta_Exp,3.0.7,60.0560202487846,
video/Experiment/zh_sp07_Dr_Ge_2_NoThetaInAudio_NoVideo.avi,noTheta,noVideo,sp07,Dr,Ge,2,2,4,flow/blocks/NoThetaInAudio_NoVideo_A.csv,,,,,,,,,0,2,2,2,0,14,14,17,,,,,,,,,-0.37824074074074077,0.3060185185185185,1,0,0,4.8867600000230595,call1,-0.04953703703703704,0.3,1,0,0,5.6366697999765165,colour1,0.33796296296296297,0.1398148148148148,1,0,0,6.4699801000533625,number2,False,True,True,18,3,2019_Nov_14_1408,MA_Theta_Exp,3.0.7,60.0560202487846,
video/Experiment/zh_sp07_Dr_Ge_4_NoThetaInAudio_NoVideo.avi,noTheta,noVideo,sp07,Dr,Ge,4,2,4,flow/blocks/NoThetaInAudio_NoVideo_A.csv,,,,,,,,,0,2,2,2,0,15,15,19,,,,,,,,,-0.36157407407407405,0.13518518518518519,1,0,0,4.867857499979436,call2,-0.0060185185185185185,0.3199074074074074,1,0,0,5.718141699966509,colour1,0.4337962962962963,-0.3333333333333333,1,0,0,6.61726730002556,number4,True,True,True,18,3,2019_Nov_14_1408,MA_Theta_Exp,3.0.7,60.0560202487846,
video/Experiment/zh_sp01_Ad_We_2_NoThetaInAudio_NoVideo.avi,noTheta,noVideo,sp01,Ad,We,2,2,4,flow/blocks/NoThetaInAudio_NoVideo_A.csv,,,,,,,,,0,2,2,2,0,16,16,13,,,,,,,,,-0.4134259259259259,0.29444444444444445,1,0,0,5.583815700025298,call1,0.03148148148148148,-0.3398148148148148,1,0,0,6.516696100006811,colour4,0.38935185185185184,0.09074074074074075,1,0,0,7.416223800042644,number2,True,True,True,18,3,2019_Nov_14_1408,MA_Theta_Exp,3.0.7,60.0560202487846,
video/Experiment/zh_sp07_Dr_Gr_3_NoThetaInAudio_NoVideo.avi,noTheta,noVideo,sp07,Dr,Gr,3,2,4,flow/blocks/NoThetaInAudio_NoVideo_A.csv,,,,,,,,,0,2,2,2,0,17,17,22,,,,,,,,,-0.4513888888888889,0.09259259259259259,1,0,0,5.067458199977409,call2,-0.000462962962962963,0.10462962962962963,1,0,0,6.017123099998571,colour2,0.362962962962963,-0.09259259259259259,1,0,0,6.817065900017042,number3,True,True,True,18,3,2019_Nov_14_1408,MA_Theta_Exp,3.0.7,60.0560202487846,
video/Experiment/zh_sp01_Dr_Gr_4_NoThetaInAudio_NoVideo.avi,noTheta,noVideo,sp01,Dr,Gr,4,2,4,flow/blocks/NoThetaInAudio_NoVideo_A.csv,,,,,,,,,0,2,2,2,0,18,18,23,,,,,,,,,-0.36666666666666664,0.08009259259259259,1,0,0,5.625893599994015,call2,-0.03009259259259259,0.11203703703703703,1,0,0,6.459544199984521,colour2,0.4134259259259259,-0.2884259259259259,1,0,0,7.346920499985572,number4,True,True,True,18,3,2019_Nov_14_1408,MA_Theta_Exp,3.0.7,60.0560202487846,
video/Experiment/zh_sp07_Ad_Ro_1_NoThetaInAudio_NoVideo.avi,noTheta,noVideo,sp07,Ad,Ro,1,2,4,flow/blocks/NoThetaInAudio_NoVideo_A.csv,,,,,,,,,0,2,2,2,0,19,19,8,,,,,,,,,-0.3541666666666667,0.3050925925925926,1,0,0,4.970203300006688,call1,-0.031018518518518518,-0.11666666666666667,1,0,0,5.919753000023775,colour3,0.3384259259259259,0.27824074074074073,1,0,0,6.903238200000487,number1,True,True,True,18,3,2019_Nov_14_1408,MA_Theta_Exp,3.0.7,60.0560202487846,
video/Experiment/zh_sp01_Dr_We_2_NoThetaInAudio_NoVideo.avi,noTheta,noVideo,sp01,Dr,We,2,2,4,flow/blocks/NoThetaInAudio_NoVideo_A.csv,,,,,,,,,0,2,2,2,0,20,20,29,,,,,,,,,-0.38287037037037036,0.1125,1,0,0,5.76306010002736,call2,-0.016666666666666666,-0.30092592592592593,1,0,0,6.71314569999231,colour4,0.3972222222222222,0.09259259259259259,1,0,0,7.699884100002237,number2,True,True,True,18,3,2019_Nov_14_1408,MA_Theta_Exp,3.0.7,60.0560202487846,
video/Experiment/zh_sp01_Ad_We_3_NoThetaInAudio_NoVideo.avi,noTheta,noVideo,sp01,Ad,We,3,2,4,flow/blocks/NoThetaInAudio_NoVideo_A.csv,,,,,,,,,0,2,2,2,0,21,21,14,,,,,,,,,-0.3611111111111111,0.2652777777777778,1,0,0,5.423030700010713,call1,-0.02638888888888889,-0.34814814814814815,1,0,0,6.4726689999806695,colour4,0.39305555555555555,-0.09537037037037037,1,0,0,7.4090454000397585,number3,True,True,True,18,3,2019_Nov_14_1408,MA_Theta_Exp,3.0.7,60.0560202487846,
video/Experiment/zh_sp07_Dr_We_4_NoThetaInAudio_NoVideo.avi,noTheta,noVideo,sp07,Dr,We,4,2,4,flow/blocks/NoThetaInAudio_NoVideo_A.csv,,,,,,,,,0,2,2,2,0,22,22,31,,,,,,,,,-0.375,0.1361111111111111,1,0,0,5.160456600016914,call2,-0.0023148148148148147,-0.26064814814814813,1,0,0,6.076895700010937,colour4,0.36666666666666664,-0.2722222222222222,1,0,0,7.443333299946971,number4,True,True,True,18,3,2019_Nov_14_1408,MA_Theta_Exp,3.0.7,60.0560202487846,
video/Experiment/zh_sp07_Ad_Ro_2_NoThetaInAudio_NoVideo.avi,noTheta,noVideo,sp07,Ad,Ro,2,2,4,flow/blocks/NoThetaInAudio_NoVideo_A.csv,,,,,,,,,0,2,2,2,0,23,23,9,,,,,,,,,-0.36157407407407405,0.27870370370370373,1,0,0,5.57205790001899,call1,0.03333333333333333,-0.10555555555555556,1,0,0,6.45532369997818,colour3,0.39861111111111114,0.07083333333333333,1,0,0,7.355185399996117,number2,True,True,True,18,3,2019_Nov_14_1408,MA_Theta_Exp,3.0.7,60.0560202487846,
video/Experiment/zh_sp01_Ad_Gr_3_NoThetaInAudio_NoVideo.avi,noTheta,noVideo,sp01,Ad,Gr,3,2,4,flow/blocks/NoThetaInAudio_NoVideo_A.csv,,,,,,,,,0,2,2,2,0,24,24,6,,,,,,,,,-0.36666666666666664,0.29814814814814816,1,0,0,5.45712849998381,call1,-0.020833333333333332,0.07592592592592592,1,0,0,6.324231400038116,colour2,0.37592592592592594,-0.09537037037037037,1,0,0,7.162678900000174,number3,True,True,True,18,3,2019_Nov_14_1408,MA_Theta_Exp,3.0.7,60.0560202487846,
video/Experiment/zh_sp07_Dr_Ge_1_NoThetaInAudio_NoVideo.avi,noTheta,noVideo,sp07,Dr,Ge,1,2,4,flow/blocks/NoThetaInAudio_NoVideo_A.csv,,,,,,,,,0,2,2,2,0,25,25,16,,,,,,,,,-0.4199074074074074,0.0712962962962963,1,0,0,4.927570200001355,call2,0.016203703703703703,0.3175925925925926,1,0,0,5.710768599994481,colour1,0.3625,0.3236111111111111,1,0,0,6.461076100007631,number1,True,True,True,18,3,2019_Nov_14_1408,MA_Theta_Exp,3.0.7,60.0560202487846,
video/Experiment/zh_sp07_Ad_Ge_1_NoThetaInAudio_NoVideo.avi,noTheta,noVideo,sp07,Ad,Ge,1,2,4,flow/blocks/NoThetaInAudio_NoVideo_A.csv,,,,,,,,,0,2,2,2,0,26,26,0,,,,,,,,,-0.40185185185185185,0.27037037037037037,1,0,0,5.102379499992821,call1,-0.05555555555555555,0.3143518518518518,1,0,0,5.849309200013522,colour1,0.387037037037037,0.35185185185185186,1,0,0,6.71567619999405,number1,True,True,True,18,3,2019_Nov_14_1408,MA_Theta_Exp,3.0.7,60.0560202487846,
video/Experiment/zh_sp07_Dr_Ro_1_NoThetaInAudio_NoVideo.avi,noTheta,noVideo,sp07,Dr,Ro,1,2,4,flow/blocks/NoThetaInAudio_NoVideo_A.csv,,,,,,,,,0,2,2,2,0,27,27,24,,,,,,,,,-0.3902777777777778,0.09351851851851851,1,0,0,4.824608099996112,call2,-0.02824074074074074,-0.09166666666666666,1,0,0,5.707745800027624,colour3,0.37037037037037035,0.3351851851851852,1,0,0,7.241584700008389,number1,True,True,True,18,3,2019_Nov_14_1408,MA_Theta_Exp,3.0.7,60.0560202487846,
video/Experiment/zh_sp07_Ad_Ge_4_NoThetaInAudio_NoVideo.avi,noTheta,noVideo,sp07,Ad,Ge,4,2,4,flow/blocks/NoThetaInAudio_NoVideo_A.csv,,,,,,,,,0,2,2,2,0,28,28,3,,,,,,,,,-0.4351851851851852,0.29212962962962963,1,0,0,5.106100599979982,call1,-0.005092592592592593,0.30787037037037035,1,0,0,6.005365599994548,colour1,0.4185185185185185,-0.3111111111111111,1,0,0,7.055254700011574,number4,True,True,True,18,3,2019_Nov_14_1408,MA_Theta_Exp,3.0.7,60.0560202487846,
video/Experiment/zh_sp01_Dr_Ro_4_NoThetaInAudio_NoVideo.avi,noTheta,noVideo,sp01,Dr,Ro,4,2,4,flow/blocks/NoThetaInAudio_NoVideo_A.csv,,,,,,,,,0,2,2,2,0,29,29,27,,,,,,,,,-0.3736111111111111,0.058333333333333334,1,0,0,6.109636800014414,call2,-0.023148148148148147,-0.11018518518518519,1,0,0,6.959507099993061,colour3,0.3472222222222222,-0.2759259259259259,1,0,0,7.859036099980585,number4,True,True,True,18,3,2019_Nov_14_1408,MA_Theta_Exp,3.0.7,60.0560202487846,
video/Experiment/zh_sp07_Ad_Ge_2_NoThetaInAudio_NoVideo.avi,noTheta,noVideo,sp07,Ad,Ge,2,2,4,flow/blocks/NoThetaInAudio_NoVideo_A.csv,,,,,,,,,0,2,2,2,0,30,30,1,,,,,,,,,-0.3458333333333333,0.29444444444444445,1,0,0,5.4994296000222676,call1,-0.03287037037037037,0.2861111111111111,1,0,0,6.349091999989469,colour1,0.3958333333333333,0.10925925925925926,1,0,0,7.198702400026377,number2,True,True,True,18,3,2019_Nov_14_1408,MA_Theta_Exp,3.0.7,60.0560202487846,
video/Experiment/zh_sp01_Dr_We_3_NoThetaInAudio_NoVideo.avi,noTheta,noVideo,sp01,Dr,We,3,2,4,flow/blocks/NoThetaInAudio_NoVideo_A.csv,,,,,,,,,0,2,2,2,0,31,31,30,,,,,,,,,-0.3449074074074074,0.13287037037037036,1,0,0,5.841524900053628,call2,0.008796296296296297,-0.32407407407407407,1,0,0,6.824811899976339,colour4,0.3449074074074074,-0.11851851851851852,1,0,0,7.774804199987557,number3,True,True,True,18,3,2019_Nov_14_1408,MA_Theta_Exp,3.0.7,60.0560202487846,
video/Experiment/zh_sp07_Dr_Gr_3_NVocInAudio_NoVideo.avi,vocoded,noVideo,sp07,Dr,Gr,3,3,2,flow/blocks/NVocInAudio_NoVideo_A.csv,,,,,,,,,0,3,3,3,0,0,0,22,,,,,,,,,-0.3976851851851852,0.09907407407407408,1,0,0,5.524987599987071,call2,-0.034722222222222224,0.12916666666666668,1,0,0,6.340087200049311,colour2,0.4203703703703704,-0.10972222222222222,1,0,0,7.17403049999848,number3,True,True,True,18,3,2019_Nov_14_1408,MA_Theta_Exp,3.0.7,60.0560202487846,
video/Experiment/zh_sp01_Ad_We_3_NVocInAudio_NoVideo.avi,vocoded,noVideo,sp01,Ad,We,3,3,2,flow/blocks/NVocInAudio_NoVideo_A.csv,,,,,,,,,0,3,3,3,0,1,1,14,,,,,,,,,-0.3449074074074074,0.28888888888888886,1,0,0,6.294389699993189,call1,-0.03194444444444444,-0.30277777777777776,1,0,0,7.346899900003336,colour4,0.36898148148148147,-0.1287037037037037,1,0,0,8.377292200049851,number3,True,True,True,18,3,2019_Nov_14_1408,MA_Theta_Exp,3.0.7,60.0560202487846,
video/Experiment/zh_sp07_Dr_Ge_4_NVocInAudio_NoVideo.avi,vocoded,noVideo,sp07,Dr,Ge,4,3,2,flow/blocks/NVocInAudio_NoVideo_A.csv,,,,,,,,,0,3,3,3,0,2,2,19,,,,,,,,,-0.42407407407407405,0.06574074074074074,1,0,0,5.047662299999502,call2,-0.04398148148148148,0.3,1,0,0,5.962969499989413,colour1,0.3449074074074074,-0.31296296296296294,1,0,0,7.1784425000078045,number4,True,True,True,18,3,2019_Nov_14_1408,MA_Theta_Exp,3.0.7,60.0560202487846,
video/Experiment/zh_sp01_Ad_Ge_2_NVocInAudio_NoVideo.avi,vocoded,noVideo,sp01,Ad,Ge,2,3,2,flow/blocks/NVocInAudio_NoVideo_A.csv,,,,,,,,,0,3,3,3,0,3,3,1,,,,,,,,,-0.39305555555555555,0.2638888888888889,1,0,0,5.765881999977864,call1,-0.04675925925925926,0.26342592592592595,1,0,0,6.699629400041886,colour1,0.33055555555555555,0.10694444444444444,1,0,0,7.765837999992073,number2,True,True,True,18,3,2019_Nov_14_1408,MA_Theta_Exp,3.0.7,60.0560202487846,
video/Experiment/zh_sp07_Dr_We_1_NVocInAudio_NoVideo.avi,vocoded,noVideo,sp07,Dr,We,1,3,2,flow/blocks/NVocInAudio_NoVideo_A.csv,,,,,,,,,0,3,3,3,0,4,4,28,,,,,,,,,-0.3680555555555556,0.13425925925925927,1,0,0,5.050925399991684,call2,0.011574074074074073,-0.2935185185185185,1,0,0,6.045580099977087,colour4,0.39305555555555555,0.2513888888888889,1,0,0,7.061883299960755,number1,True,True,True,18,3,2019_Nov_14_1408,MA_Theta_Exp,3.0.7,60.0560202487846,
video/Experiment/zh_sp07_Dr_Gr_1_NVocInAudio_NoVideo.avi,vocoded,noVideo,sp07,Dr,Gr,1,3,2,flow/blocks/NVocInAudio_NoVideo_A.csv,,,,,,,,,0,3,3,3,0,5,5,20,,,,,,,,,-0.4199074074074074,0.13564814814814816,1,0,0,4.880378299974836,call2,-0.0023148148148148147,0.12037037037037036,1,0,0,5.863851299975067,colour2,0.39537037037037037,0.29907407407407405,1,0,0,6.81562720000511,number1,True,True,True,18,3,2019_Nov_14_1408,MA_Theta_Exp,3.0.7,60.0560202487846,
video/Experiment/zh_sp01_Dr_Gr_4_NVocInAudio_NoVideo.avi,vocoded,noVideo,sp01,Dr,Gr,4,3,2,flow/blocks/NVocInAudio_NoVideo_A.csv,,,,,,,,,0,3,3,3,0,6,6,23,,,,,,,,,-0.35324074074074074,0.14675925925925926,1,0,0,5.483389100001659,call2,-0.05462962962962963,0.14583333333333334,1,0,0,6.267480700043961,colour2,0.44351851851851853,-0.325,1,0,0,7.236653300002217,number4,True,True,True,18,3,2019_Nov_14_1408,MA_Theta_Exp,3.0.7,60.0560202487846,
video/Experiment/zh_sp01_Dr_We_3_NVocInAudio_NoVideo.avi,vocoded,noVideo,sp01,Dr,We,3,3,2,flow/blocks/NVocInAudio_NoVideo_A.csv,,,,,,,,,0,3,3,3,0,7,7,30,,,,,,,,,-0.4013888888888889,0.08703703703703704,1,0,0,5.4858861999819055,call2,0.009259259259259259,-0.337037037037037,1,0,0,6.553228699951433,colour4,0.3486111111111111,-0.1310185185185185,1,0,0,7.4691662000259385,number3,True,True,True,18,3,2019_Nov_14_1408,MA_Theta_Exp,3.0.7,60.0560202487846,
video/Experiment/zh_sp01_Ad_Ro_3_NVocInAudio_NoVideo.avi,vocoded,noVideo,sp01,Ad,Ro,3,3,2,flow/blocks/NVocInAudio_NoVideo_A.csv,,,,,,,,,0,3,3,3,0,8,8,10,,,,,,,,,-0.36018518518518516,0.3296296296296296,1,0,0,5.793797399965115,call1,0.00787037037037037,-0.2875,1,0,0,7.15985619998537,colour4,0.3888888888888889,-0.08425925925925926,1,0,0,8.076641899999231,number3,True,False,True,18,3,2019_Nov_14_1408,MA_Theta_Exp,3.0.7,60.0560202487846,
video/Experiment/zh_sp01_Dr_Ro_1_NVocInAudio_NoVideo.avi,vocoded,noVideo,sp01,Dr,Ro,1,3,2,flow/blocks/NVocInAudio_NoVideo_A.csv,,,,,,,,,0,3,3,3,0,9,9,24,,,,,,,,,-0.43657407407407406,0.09722222222222222,1,0,0,5.645480000006501,call2,-0.026851851851851852,-0.30833333333333335,1,0,0,6.645140799984802,colour4,0.4111111111111111,0.2916666666666667,1,0,0,7.5282650999724865,number1,True,False,True,18,3,2019_Nov_14_1408,MA_Theta_Exp,3.0.7,60.0560202487846,
video/Experiment/zh_sp01_Dr_Ge_1_NVocInAudio_NoVideo.avi,vocoded,noVideo,sp01,Dr,Ge,1,3,2,flow/blocks/NVocInAudio_NoVideo_A.csv,,,,,,,,,0,3,3,3,0,10,10,16,,,,,,,,,-0.3421296296296296,0.1,1,0,0,6.490269500005525,call2,0.038425925925925926,0.30092592592592593,1,0,0,7.340901900024619,colour1,0.36018518518518516,0.29953703703703705,1,0,0,8.223381099989638,number1,True,True,True,18,3,2019_Nov_14_1408,MA_Theta_Exp,3.0.7,60.0560202487846,
video/Experiment/zh_sp07_Dr_Gr_2_NVocInAudio_NoVideo.avi,vocoded,noVideo,sp07,Dr,Gr,2,3,2,flow/blocks/NVocInAudio_NoVideo_A.csv,,,,,,,,,0,3,3,3,0,11,11,21,,,,,,,,,-0.35324074074074074,0.10833333333333334,1,0,0,5.177745599998161,call2,0.046296296296296294,0.12962962962962962,1,0,0,6.063305400020909,colour2,0.3907407407407407,0.13472222222222222,1,0,0,6.993715099990368,number2,True,True,True,18,3,2019_Nov_14_1408,MA_Theta_Exp,3.0.7,60.0560202487846,
video/Experiment/zh_sp07_Ad_Ge_1_NVocInAudio_NoVideo.avi,vocoded,noVideo,sp07,Ad,Ge,1,3,2,flow/blocks/NVocInAudio_NoVideo_A.csv,,,,,,,,,0,3,3,3,0,12,12,0,,,,,,,,,-0.38055555555555554,0.11203703703703703,1,0,0,4.837417299975641,call2,-0.021296296296296296,0.31296296296296294,1,0,0,5.770360499969684,colour1,0.36157407407407405,0.3111111111111111,1,0,0,7.05391930002952,number1,False,True,True,18,3,2019_Nov_14_1408,MA_Theta_Exp,3.0.7,60.0560202487846,
video/Experiment/zh_sp01_Ad_Ge_3_NVocInAudio_NoVideo.avi,vocoded,noVideo,sp01,Ad,Ge,3,3,2,flow/blocks/NVocInAudio_NoVideo_A.csv,,,,,,,,,0,3,3,3,0,13,13,2,,,,,,,,,-0.31296296296296294,0.3023148148148148,1,0,0,5.7959703000378795,call1,-0.001851851851851852,0.32222222222222224,1,0,0,6.6966362000093795,colour1,0.35509259259259257,-0.053703703703703705,1,0,0,7.696930199977942,number3,True,True,True,18,3,2019_Nov_14_1408,MA_Theta_Exp,3.0.7,60.0560202487846,
video/Experiment/zh_sp01_Dr_Ro_3_NVocInAudio_NoVideo.avi,vocoded,noVideo,sp01,Dr,Ro,3,3,2,flow/blocks/NVocInAudio_NoVideo_A.csv,,,,,,,,,0,3,3,3,0,14,14,26,,,,,,,,,-0.38564814814814813,0.10694444444444444,1,0,0,5.730429599992931,call2,0.05555555555555555,-0.10694444444444444,1,0,0,7.446585500030778,colour3,0.3351851851851852,-0.09259259259259259,1,0,0,8.213318799971603,number3,True,True,True,18,3,2019_Nov_14_1408,MA_Theta_Exp,3.0.7,60.0560202487846,
video/Experiment/zh_sp07_Ad_Ro_1_NVocInAudio_NoVideo.avi,vocoded,noVideo,sp07,Ad,Ro,1,3,2,flow/blocks/NVocInAudio_NoVideo_A.csv,,,,,,,,,0,3,3,3,0,15,15,8,,,,,,,,,-0.34120370370370373,0.2708333333333333,1,0,0,5.765430100029334,call1,-0.017592592592592594,-0.08055555555555556,1,0,0,6.616844899952412,colour3,0.36574074074074076,0.2490740740740741,1,0,0,7.68211659998633,number1,True,True,True,18,3,2019_Nov_14_1408,MA_Theta_Exp,3.0.7,60.0560202487846,
video/Experiment/zh_sp07_Ad_Ro_4_NVocInAudio_NoVideo.avi,vocoded,noVideo,sp07,Ad,Ro,4,3,2,flow/blocks/NVocInAudio_NoVideo_A.csv,,,,,,,,,0,3,3,3,0,16,16,11,,,,,,,,,-0.35138888888888886,0.287962962962963,1,0,0,4.977403700002469,call1,0.009259259259259259,-0.04953703703703704,1,0,0,5.84345200000098,colour3,0.40694444444444444,-0.30833333333333335,1,0,0,6.662022700009402,number4,True,True,True,18,3,2019_Nov_14_1408,MA_Theta_Exp,3.0.7,60.0560202487846,
video/Experiment/zh_sp01_Ad_Gr_4_NVocInAudio_NoVideo.avi,vocoded,noVideo,sp01,Ad,Gr,4,3,2,flow/blocks/NVocInAudio_NoVideo_A.csv,,,,,,,,,0,3,3,3,0,17,17,7,,,,,,,,,-0.3384259259259259,0.29305555555555557,1,0,0,5.925286199955735,call1,-0.03194444444444444,0.11944444444444445,1,0,0,6.691371500026435,colour2,0.412962962962963,-0.29583333333333334,1,0,0,7.691153899999335,number4,True,True,True,18,3,2019_Nov_14_1408,MA_Theta_Exp,3.0.7,60.0560202487846,
video/Experiment/zh_sp01_Ad_Gr_2_NVocInAudio_NoVideo.avi,vocoded,noVideo,sp01,Ad,Gr,2,3,2,flow/blocks/NVocInAudio_NoVideo_A.csv,,,,,,,,,0,3,3,3,0,18,18,5,,,,,,,,,-0.40324074074074073,0.2550925925925926,1,0,0,6.266033799969591,call1,-0.055092592592592596,0.10462962962962963,1,0,0,7.132244600041304,colour2,0.3819444444444444,0.09583333333333334,1,0,0,8.04928600002313,number2,True,True,True,18,3,2019_Nov_14_1408,MA_Theta_Exp,3.0.7,60.0560202487846,
video/Experiment/zh_sp01_Ad_Gr_3_NVocInAudio_NoVideo.avi,vocoded,noVideo,sp01,Ad,Gr,3,3,2,flow/blocks/NVocInAudio_NoVideo_A.csv,,,,,,,,,0,3,3,3,0,19,19,6,,,,,,,,,-0.3402777777777778,0.3226851851851852,1,0,0,5.489767000020947,call1,-0.032407407407407406,0.15601851851851853,1,0,0,6.223040099954233,colour2,0.3638888888888889,-0.06805555555555555,1,0,0,6.990023200050928,number3,True,True,True,18,3,2019_Nov_14_1408,MA_Theta_Exp,3.0.7,60.0560202487846,
video/Experiment/zh_sp01_Ad_We_2_NVocInAudio_NoVideo.avi,vocoded,noVideo,sp01,Ad,We,2,3,2,flow/blocks/NVocInAudio_NoVideo_A.csv,,,,,,,,,0,3,3,3,0,20,20,13,,,,,,,,,-0.3458333333333333,0.3074074074074074,1,0,0,5.687707600009162,call1,-0.016203703703703703,-0.2671296296296296,1,0,0,6.704400599992368,colour4,0.42777777777777776,0.12268518518518519,1,0,0,7.572101600002497,number2,True,True,True,18,3,2019_Nov_14_1408,MA_Theta_Exp,3.0.7,60.0560202487846,
video/Experiment/zh_sp07_Dr_Ro_2_NVocInAudio_NoVideo.avi,vocoded,noVideo,sp07,Dr,Ro,2,3,2,flow/blocks/NVocInAudio_NoVideo_A.csv,,,,,,,,,0,3,3,3,0,21,21,25,,,,,,,,,-0.42824074074074076,0.13564814814814816,1,0,0,4.9632183000212535,call2,-0.04259259259259259,-0.12361111111111112,1,0,0,6.096440699999221,colour3,0.4236111111111111,0.09953703703703703,1,0,0,6.797148099984042,number2,True,True,True,18,3,2019_Nov_14_1408,MA_Theta_Exp,3.0.7,60.0560202487846,
video/Experiment/zh_sp01_Dr_Ro_4_NVocInAudio_NoVideo.avi,vocoded,noVideo,sp01,Dr,Ro,4,3,2,flow/blocks/NVocInAudio_NoVideo_A.csv,,,,,,,,,0,3,3,3,0,22,22,27,,,,,,,,,-0.3333333333333333,0.14212962962962963,1,0,0,5.970832799968775,call2,0.0060185185185185185,-0.0787037037037037,1,0,0,6.820026000030339,colour3,0.39490740740740743,-0.30787037037037035,1,0,0,7.653020199970342,number4,True,True,True,18,3,2019_Nov_14_1408,MA_Theta_Exp,3.0.7,60.0560202487846,
video/Experiment/zh_sp01_Ad_We_4_NVocInAudio_NoVideo.avi,vocoded,noVideo,sp01,Ad,We,4,3,2,flow/blocks/NVocInAudio_NoVideo_A.csv,,,,,,,,,0,3,3,3,0,23,23,15,,,,,,,,,-0.3592592592592593,0.2851851851851852,1,0,0,5.678097700001672,call1,-0.04351851851851852,-0.274537037037037,1,0,0,6.644680599973071,colour4,0.35,-0.274537037037037,1,0,0,7.495090699987486,number4,True,True,True,18,3,2019_Nov_14_1408,MA_Theta_Exp,3.0.7,60.0560202487846,
video/Experiment/zh_sp01_Dr_We_4_NVocInAudio_NoVideo.avi,vocoded,noVideo,sp01,Dr,We,4,3,2,flow/blocks/NVocInAudio_NoVideo_A.csv,,,,,,,,,0,3,3,3,0,24,24,31,,,,,,,,,-0.31712962962962965,0.018518518518518517,1,0,0,5.747302999952808,call2,0.024537037037037038,-0.3060185185185185,1,0,0,6.6806168999755755,colour4,0.37824074074074077,-0.31712962962962965,1,0,0,7.614081499981694,number4,True,True,True,18,3,2019_Nov_14_1408,MA_Theta_Exp,3.0.7,60.0560202487846,
video/Experiment/zh_sp07_Ad_We_1_NVocInAudio_NoVideo.avi,vocoded,noVideo,sp07,Ad,We,1,3,2,flow/blocks/NVocInAudio_NoVideo_A.csv,,,,,,,,,0,3,3,3,0,25,25,12,,,,,,,,,-0.3912037037037037,0.27824074074074073,1,0,0,5.311024800001178,call1,-0.026851851851851852,-0.30185185185185187,1,0,0,6.343753700028174,colour4,0.3958333333333333,0.325,1,0,0,7.460520999971777,number1,True,True,True,18,3,2019_Nov_14_1408,MA_Theta_Exp,3.0.7,60.0560202487846,
video/Experiment/zh_sp07_Ad_Gr_1_NVocInAudio_NoVideo.avi,vocoded,noVideo,sp07,Ad,Gr,1,3,2,flow/blocks/NVocInAudio_NoVideo_A.csv,,,,,,,,,0,3,3,3,0,26,26,4,,,,,,,,,-0.36018518518518516,0.32685185185185184,1,0,0,4.891848399944138,call1,0.04583333333333333,0.09861111111111111,1,0,0,5.674038900004234,colour2,0.3699074074074074,0.30092592592592593,1,0,0,6.391295399982482,number1,True,True,True,18,3,2019_Nov_14_1408,MA_Theta_Exp,3.0.7,60.0560202487846,
video/Experiment/zh_sp07_Ad_Ge_4_NVocInAudio_NoVideo.avi,vocoded,noVideo,sp07,Ad,Ge,4,3,2,flow/blocks/NVocInAudio_NoVideo_A.csv,,,,,,,,,0,3,3,3,0,27,27,3,,,,,,,,,-0.3351851851851852,0.29907407407407405,1,0,0,5.041715200000908,call1,0.009722222222222222,0.3106481481481482,1,0,0,5.874874800036196,colour1,0.37777777777777777,-0.2902777777777778,1,0,0,6.924955599999521,number4,True,True,True,18,3,2019_Nov_14_1408,MA_Theta_Exp,3.0.7,60.0560202487846,
video/Experiment/zh_sp07_Dr_Ge_2_NVocInAudio_NoVideo.avi,vocoded,noVideo,sp07,Dr,Ge,2,3,2,flow/blocks/NVocInAudio_NoVideo_A.csv,,,,,,,,,0,3,3,3,0,28,28,17,,,,,,,,,-0.425,0.018055555555555554,1,0,0,5.032701099989936,call2,-0.013888888888888888,0.2361111111111111,1,0,0,6.099925599992275,colour1,0.32175925925925924,0.10185185185185185,1,0,0,6.799250899988692,number2,True,True,True,18,3,2019_Nov_14_1408,MA_Theta_Exp,3.0.7,60.0560202487846,
video/Experiment/zh_sp07_Dr_Ge_3_NVocInAudio_NoVideo.avi,vocoded,noVideo,sp07,Dr,Ge,3,3,2,flow/blocks/NVocInAudio_NoVideo_A.csv,,,,,,,,,0,3,3,3,0,29,29,18,,,,,,,,,-0.40046296296296297,0.12685185185185185,1,0,0,4.845309299998917,call2,-0.07361111111111111,0.2986111111111111,1,0,0,5.6452297999639995,colour1,0.36018518518518516,-0.08888888888888889,1,0,0,6.6451212000101805,number3,True,True,True,18,3,2019_Nov_14_1408,MA_Theta_Exp,3.0.7,60.0560202487846,
video/Experiment/zh_sp07_Dr_We_2_NVocInAudio_NoVideo.avi,vocoded,noVideo,sp07,Dr,We,2,3,2,flow/blocks/NVocInAudio_NoVideo_A.csv,,,,,,,,,0,3,3,3,0,30,30,29,,,,,,,,,-0.36666666666666664,0.07685185185185185,1,0,0,5.4180279999854974,call2,-0.02638888888888889,-0.30185185185185187,1,0,0,6.383449399960227,colour4,0.3699074074074074,0.12314814814814815,1,0,0,7.316871399991214,number2,True,True,True,18,3,2019_Nov_14_1408,MA_Theta_Exp,3.0.7,60.0560202487846,
video/Experiment/zh_sp07_Ad_Ro_2_NVocInAudio_NoVideo.avi,vocoded,noVideo,sp07,Ad,Ro,2,3,2,flow/blocks/NVocInAudio_NoVideo_A.csv,,,,,,,,,0,3,3,3,0,31,31,9,,,,,,,,,-0.33425925925925926,0.2861111111111111,1,0,0,4.808159800013527,call1,-0.012962962962962963,-0.09907407407407408,1,0,0,5.6410846000071615,colour3,0.37453703703703706,0.09814814814814815,1,0,0,6.391285599966068,number2,True,True,True,18,3,2019_Nov_14_1408,MA_Theta_Exp,3.0.7,60.0560202487846,
video/Experiment/zh_sp01_Ad_Ro_3_NoThetaInAudio_GlobalThetaInVideo.avi,noTheta,plusVideo,sp01,Ad,Ro,3,4,3,flow/blocks/NoThetaInAudio_GlobalThetaInVideo_A.csv,,,,,,,,,0,4,4,4,0,0,0,10,,,,,,,,,-0.36527777777777776,0.3125,1,0,0,5.554311499989126,call1,0.0125,-0.10462962962962963,1,0,0,6.471463699999731,colour3,0.412962962962963,-0.1300925925925926,1,0,0,7.254374400014058,number3,True,True,True,18,3,2019_Nov_14_1408,MA_Theta_Exp,3.0.7,60.0560202487846,
video/Experiment/zh_sp01_Dr_Gr_2_NoThetaInAudio_GlobalThetaInVideo.avi,noTheta,plusVideo,sp01,Dr,Gr,2,4,3,flow/blocks/NoThetaInAudio_GlobalThetaInVideo_A.csv,,,,,,,,,0,4,4,4,0,1,1,21,,,,,,,,,-0.31805555555555554,0.12129629629629629,1,0,0,5.863708899996709,call2,-0.001388888888888889,0.14166666666666666,1,0,0,6.713789899949916,colour2,0.3824074074074074,0.07916666666666666,1,0,0,7.513875500007998,number2,True,True,True,18,3,2019_Nov_14_1408,MA_Theta_Exp,3.0.7,60.0560202487846,
video/Experiment/zh_sp01_Ad_Gr_1_NoThetaInAudio_GlobalThetaInVideo.avi,noTheta,plusVideo,sp01,Ad,Gr,1,4,3,flow/blocks/NoThetaInAudio_GlobalThetaInVideo_A.csv,,,,,,,,,0,4,4,4,0,2,2,4,,,,,,,,,-0.40046296296296297,0.34305555555555556,1,0,0,5.84376090002479,call1,0.01898148148148148,0.1259259259259259,1,0,0,6.709827699989546,colour2,0.32685185185185184,0.29814814814814816,1,0,0,7.526578699995298,number1,True,True,True,18,3,2019_Nov_14_1408,MA_Theta_Exp,3.0.7,60.0560202487846,
video/Experiment/zh_sp07_Ad_Ge_1_NoThetaInAudio_GlobalThetaInVideo.avi,noTheta,plusVideo,sp07,Ad,Ge,1,4,3,flow/blocks/NoThetaInAudio_GlobalThetaInVideo_A.csv,,,,,,,,,0,4,4,4,0,3,3,0,,,,,,,,,-0.3814814814814815,0.2953703703703704,1,0,0,4.877747300022747,call1,-0.04953703703703704,0.2967592592592593,1,0,0,5.677274399960879,colour1,0.37222222222222223,0.30648148148148147,1,0,0,6.460371300054248,number1,True,True,True,18,3,2019_Nov_14_1408,MA_Theta_Exp,3.0.7,60.0560202487846,
video/Experiment/zh_sp07_Ad_Ro_1_NoThetaInAudio_GlobalThetaInVideo.avi,noTheta,plusVideo,sp07,Ad,Ro,1,4,3,flow/blocks/NoThetaInAudio_GlobalThetaInVideo_A.csv,,,,,,,,,0,4,4,4,0,4,4,8,,,,,,,,,-0.4064814814814815,0.31712962962962965,1,0,0,4.535189300018828,call1,-0.02546296296296296,-0.10648148148148148,1,0,0,5.584541000018362,colour3,0.38472222222222224,0.24768518518518517,1,0,0,6.517224300012458,number1,True,True,True,18,3,2019_Nov_14_1408,MA_Theta_Exp,3.0.7,60.0560202487846,
video/Experiment/zh_sp07_Ad_We_2_NoThetaInAudio_GlobalThetaInVideo.avi,noTheta,plusVideo,sp07,Ad,We,2,4,3,flow/blocks/NoThetaInAudio_GlobalThetaInVideo_A.csv,,,,,,,,,0,4,4,4,0,5,5,13,,,,,,,,,-0.4083333333333333,0.26157407407407407,1,0,0,4.7653276000055484,call1,-0.008333333333333333,-0.2851851851851852,1,0,0,5.748246599978302,colour4,0.41064814814814815,0.09305555555555556,1,0,0,6.669589500001166,number2,True,True,True,18,3,2019_Nov_14_1408,MA_Theta_Exp,3.0.7,60.0560202487846,
video/Experiment/zh_sp01_Ad_Ro_2_NoThetaInAudio_GlobalThetaInVideo.avi,noTheta,plusVideo,sp01,Ad,Ro,2,4,3,flow/blocks/NoThetaInAudio_GlobalThetaInVideo_A.csv,,,,,,,,,0,4,4,4,0,6,6,9,,,,,,,,,-0.3875,0.29305555555555557,1,0,0,5.631500299961772,call1,-0.018055555555555554,-0.08888888888888889,1,0,0,6.565427099994849,colour3,0.3861111111111111,0.09768518518518518,1,0,0,7.431437299994286,number2,True,True,True,18,3,2019_Nov_14_1408,MA_Theta_Exp,3.0.7,60.0560202487846,
video/Experiment/zh_sp07_Dr_Ge_1_NoThetaInAudio_GlobalThetaInVideo.avi,noTheta,plusVideo,sp07,Dr,Ge,1,4,3,flow/blocks/NoThetaInAudio_GlobalThetaInVideo_A.csv,,,,,,,,,0,4,4,4,0,7,7,16,,,,,,,,,-0.3592592592592593,0.3,1,0,0,4.957182600046508,call1,-0.06527777777777778,0.31157407407407406,1,0,0,5.623909200017806,colour1,0.3902777777777778,0.31666666666666665,1,0,0,6.423844099976122,number1,False,True,True,18,3,2019_Nov_14_1408,MA_Theta_Exp,3.0.7,60.0560202487846,
video/Experiment/zh_sp07_Ad_Ge_2_NoThetaInAudio_GlobalThetaInVideo.avi,noTheta,plusVideo,sp07,Ad,Ge,2,4,3,flow/blocks/NoThetaInAudio_GlobalThetaInVideo_A.csv,,,,,,,,,0,4,4,4,0,8,8,1,,,,,,,,,-0.34444444444444444,0.31296296296296294,1,0,0,4.802140999992844,call1,-0.04259259259259259,0.3236111111111111,1,0,0,5.619479999993928,colour1,0.3939814814814815,0.12638888888888888,1,0,0,6.402838499983773,number2,True,True,True,18,3,2019_Nov_14_1408,MA_Theta_Exp,3.0.7,60.0560202487846,
video/Experiment/zh_sp07_Ad_We_3_NoThetaInAudio_GlobalThetaInVideo.avi,noTheta,plusVideo,sp07,Ad,We,3,4,3,flow/blocks/NoThetaInAudio_GlobalThetaInVideo_A.csv,,,,,,,,,0,4,4,4,0,9,9,14,,,,,,,,,-0.3476851851851852,0.27546296296296297,1,0,0,4.9918814999982715,call1,0.07361111111111111,-0.34120370370370373,1,0,0,5.9418103999923915,colour4,0.39351851851851855,-0.31296296296296294,1,0,0,6.730617400025949,number4,True,True,False,18,3,2019_Nov_14_1408,MA_Theta_Exp,3.0.7,60.0560202487846,
video/Experiment/zh_sp01_Dr_We_4_NoThetaInAudio_GlobalThetaInVideo.avi,noTheta,plusVideo,sp01,Dr,We,4,4,3,flow/blocks/NoThetaInAudio_GlobalThetaInVideo_A.csv,,,,,,,,,0,4,4,4,0,10,10,31,,,,,,,,,-0.3685185185185185,0.3138888888888889,1,0,0,5.627277699997649,call1,0.0060185185185185185,-0.2611111111111111,1,0,0,6.493851899984293,colour4,0.36574074074074076,-0.3050925925925926,1,0,0,7.260283799958415,number4,False,True,True,18,3,2019_Nov_14_1408,MA_Theta_Exp,3.0.7,60.0560202487846,
video/Experiment/zh_sp07_Dr_We_2_NoThetaInAudio_GlobalThetaInVideo.avi,noTheta,plusVideo,sp07,Dr,We,2,4,3,flow/blocks/NoThetaInAudio_GlobalThetaInVideo_A.csv,,,,,,,,,0,4,4,4,0,11,11,29,,,,,,,,,-0.3921296296296296,0.12361111111111112,1,0,0,4.974058700026944,call2,0.02546296296296296,-0.26944444444444443,1,0,0,5.824541299953125,colour4,0.38657407407407407,0.07361111111111111,1,0,0,6.673977400001604,number2,True,True,True,18,3,2019_Nov_14_1408,MA_Theta_Exp,3.0.7,60.0560202487846,
video/Experiment/zh_sp01_Dr_Ge_3_NoThetaInAudio_GlobalThetaInVideo.avi,noTheta,plusVideo,sp01,Dr,Ge,3,4,3,flow/blocks/NoThetaInAudio_GlobalThetaInVideo_A.csv,,,,,,,,,0,4,4,4,0,12,12,18,,,,,,,,,-0.3347222222222222,0.12546296296296297,1,0,0,5.168585299979895,call2,-0.047685185185185185,0.2949074074074074,1,0,0,6.002564699971117,colour1,0.40555555555555556,-0.07731481481481481,1,0,0,6.935293700022157,number3,True,True,True,18,3,2019_Nov_14_1408,MA_Theta_Exp,3.0.7,60.0560202487846,
video/Experiment/zh_sp01_Ad_Ro_4_NoThetaInAudio_GlobalThetaInVideo.avi,noTheta,plusVideo,sp01,Ad,Ro,4,4,3,flow/blocks/NoThetaInAudio_GlobalThetaInVideo_A.csv,,,,,,,,,0,4,4,4,0,13,13,11,,,,,,,,,-0.3925925925925926,0.2652777777777778,1,0,0,5.810170000011567,call1,0.062037037037037036,-0.08333333333333333,1,0,0,6.6581355999805965,colour3,0.37962962962962965,-0.2884259259259259,1,0,0,7.509101100033149,number4,True,True,True,18,3,2019_Nov_14_1408,MA_Theta_Exp,3.0.7,60.0560202487846,
video/Experiment/zh_sp01_Dr_Ro_2_NoThetaInAudio_GlobalThetaInVideo.avi,noTheta,plusVideo,sp01,Dr,Ro,2,4,3,flow/blocks/NoThetaInAudio_GlobalThetaInVideo_A.csv,,,,,,,,,0,4,4,4,0,14,14,25,,,,,,,,,-0.40370370370370373,0.14166666666666666,1,0,0,5.604933800001163,call2,-0.0032407407407407406,-0.14537037037037037,1,0,0,6.436455199960619,colour3,0.387037037037037,0.06759259259259259,1,0,0,7.335975699999835,number2,True,True,True,18,3,2019_Nov_14_1408,MA_Theta_Exp,3.0.7,60.0560202487846,
video/Experiment/zh_sp01_Dr_We_3_NoThetaInAudio_GlobalThetaInVideo.avi,noTheta,plusVideo,sp01,Dr,We,3,4,3,flow/blocks/NoThetaInAudio_GlobalThetaInVideo_A.csv,,,,,,,,,0,4,4,4,0,15,15,30,,,,,,,,,-0.34305555555555556,0.09768518518518518,1,0,0,5.813705899985507,call2,-0.023148148148148147,-0.3226851851851852,1,0,0,6.930559900007211,colour4,0.35,-0.13425925925925927,1,0,0,8.313447799999267,number3,True,True,True,18,3,2019_Nov_14_1408,MA_Theta_Exp,3.0.7,60.0560202487846,
video/Experiment/zh_sp07_Ad_We_1_NoThetaInAudio_GlobalThetaInVideo.avi,noTheta,plusVideo,sp07,Ad,We,1,4,3,flow/blocks/NoThetaInAudio_GlobalThetaInVideo_A.csv,,,,,,,,,0,4,4,4,0,16,16,12,,,,,,,,,-0.3907407407407407,0.3365740740740741,1,0,0,4.942928799951915,call1,0.044444444444444446,-0.3175925925925926,1,0,0,6.009482199966442,colour4,0.38796296296296295,0.2689814814814815,1,0,0,7.0761462999507785,number1,True,True,True,18,3,2019_Nov_14_1408,MA_Theta_Exp,3.0.7,60.0560202487846,
video/Experiment/zh_sp01_Dr_Ge_2_NoThetaInAudio_GlobalThetaInVideo.avi,noTheta,plusVideo,sp01,Dr,Ge,2,4,3,flow/blocks/NoThetaInAudio_GlobalThetaInVideo_A.csv,,,,,,,,,0,4,4,4,0,17,17,17,,,,,,,,,-0.38287037037037036,0.11898148148148148,1,0,0,5.263465000025462,call2,-0.024074074074074074,0.36018518518518516,1,0,0,5.9827839999925345,colour1,0.350462962962963,0.1439814814814815,1,0,0,6.846827300032601,number2,True,True,True,18,3,2019_Nov_14_1408,MA_Theta_Exp,3.0.7,60.0560202487846,
video/Experiment/zh_sp07_Ad_We_4_NoThetaInAudio_GlobalThetaInVideo.avi,noTheta,plusVideo,sp07,Ad,We,4,4,3,flow/blocks/NoThetaInAudio_GlobalThetaInVideo_A.csv,,,,,,,,,0,4,4,4,0,18,18,15,,,,,,,,,-0.3736111111111111,0.24444444444444444,1,0,0,4.94360840000445,call1,-0.00787037037037037,-0.29814814814814816,1,0,0,5.9265110999695025,colour4,0.4009259259259259,-0.3125,1,0,0,6.809714300034102,number4,True,True,True,18,3,2019_Nov_14_1408,MA_Theta_Exp,3.0.7,60.0560202487846,
video/Experiment/zh_sp01_Ad_Ge_3_NoThetaInAudio_GlobalThetaInVideo.avi,noTheta,plusVideo,sp01,Ad,Ge,3,4,3,flow/blocks/NoThetaInAudio_GlobalThetaInVideo_A.csv,,,,,,,,,0,4,4,4,0,19,19,2,,,,,,,,,-0.35,0.25787037037037036,1,0,0,5.599285300006159,call1,0.009259259259259259,0.27685185185185185,1,0,0,6.282069299952127,colour1,0.35833333333333334,-0.11388888888888889,1,0,0,7.215845099999569,number3,True,True,True,18,3,2019_Nov_14_1408,MA_Theta_Exp,3.0.7,60.0560202487846,
video/Experiment/zh_sp01_Dr_Ge_4_NoThetaInAudio_GlobalThetaInVideo.avi,noTheta,plusVideo,sp01,Dr,Ge,4,4,3,flow/blocks/NoThetaInAudio_GlobalThetaInVideo_A.csv,,,,,,,,,0,4,4,4,0,20,20,19,,,,,,,,,-0.40324074074074073,0.09398148148148149,1,0,0,5.536080399993807,call2,-0.05740740740740741,0.25601851851851853,1,0,0,6.565568899968639,colour1,0.4273148148148148,-0.2671296296296296,1,0,0,7.465414600039367,number4,True,True,True,18,3,2019_Nov_14_1408,MA_Theta_Exp,3.0.7,60.0560202487846,
video/Experiment/zh_sp07_Ad_Gr_4_NoThetaInAudio_GlobalThetaInVideo.avi,noTheta,plusVideo,sp07,Ad,Gr,4,4,3,flow/blocks/NoThetaInAudio_GlobalThetaInVideo_A.csv,,,,,,,,,0,4,4,4,0,21,21,7,,,,,,,,,-0.33796296296296297,0.23935185185185184,1,0,0,5.120329199999105,call1,0.021296296296296296,0.12037037037037036,1,0,0,5.920401800016407,colour2,0.3925925925925926,-0.30092592592592593,1,0,0,6.742317800002638,number4,True,True,True,18,3,2019_Nov_14_1408,MA_Theta_Exp,3.0.7,60.0560202487846,
video/Experiment/zh_sp07_Dr_Gr_4_NoThetaInAudio_GlobalThetaInVideo.avi,noTheta,plusVideo,sp07,Dr,Gr,4,4,3,flow/blocks/NoThetaInAudio_GlobalThetaInVideo_A.csv,,,,,,,,,0,4,4,4,0,22,22,23,,,,,,,,,-0.4083333333333333,0.08981481481481482,1,0,0,4.821578299975954,call2,-0.049074074074074076,0.08657407407407407,1,0,0,5.555030899995472,colour2,0.36342592592592593,-0.2689814814814815,1,0,0,6.388332300004549,number4,True,True,True,18,3,2019_Nov_14_1408,MA_Theta_Exp,3.0.7,60.0560202487846,
video/Experiment/zh_sp07_Dr_We_1_NoThetaInAudio_GlobalThetaInVideo.avi,noTheta,plusVideo,sp07,Dr,We,1,4,3,flow/blocks/NoThetaInAudio_GlobalThetaInVideo_A.csv,,,,,,,,,0,4,4,4,0,23,23,28,,,,,,,,,-0.42916666666666664,0.11805555555555555,1,0,0,5.037208799971268,call2,-0.04398148148148148,-0.29074074074074074,1,0,0,5.870468500012066,colour4,0.3439814814814815,0.25787037037037036,1,0,0,6.842480399995111,number1,True,True,True,18,3,2019_Nov_14_1408,MA_Theta_Exp,3.0.7,60.0560202487846,
video/Experiment/zh_sp01_Ad_Ge_4_NoThetaInAudio_GlobalThetaInVideo.avi,noTheta,plusVideo,sp01,Ad,Ge,4,4,3,flow/blocks/NoThetaInAudio_GlobalThetaInVideo_A.csv,,,,,,,,,0,4,4,4,0,24,24,3,,,,,,,,,-0.475462962962963,0.3236111111111111,1,0,0,5.257840599981137,call1,-0.05324074074074074,0.3175925925925926,1,0,0,6.123870400013402,colour1,0.38981481481481484,-0.2722222222222222,1,0,0,7.124654899991583,number4,True,True,True,18,3,2019_Nov_14_1408,MA_Theta_Exp,3.0.7,60.0560202487846,
video/Experiment/zh_sp01_Ad_Gr_3_NoThetaInAudio_GlobalThetaInVideo.avi,noTheta,plusVideo,sp01,Ad,Gr,3,4,3,flow/blocks/NoThetaInAudio_GlobalThetaInVideo_A.csv,,,,,,,,,0,4,4,4,0,25,25,6,,,,,,,,,-0.37175925925925923,0.30787037037037035,1,0,0,6.001688699994702,call1,-0.014814814814814815,0.06296296296296296,1,0,0,6.784075000032317,colour2,0.3712962962962963,-0.1412037037037037,1,0,0,7.600875900010578,number3,True,True,True,18,3,2019_Nov_14_1408,MA_Theta_Exp,3.0.7,60.0560202487846,
video/Experiment/zh_sp07_Dr_Gr_1_NoThetaInAudio_GlobalThetaInVideo.avi,noTheta,plusVideo,sp07,Dr,Gr,1,4,3,flow/blocks/NoThetaInAudio_GlobalThetaInVideo_A.csv,,,,,,,,,0,4,4,4,0,26,26,20,,,,,,,,,-0.32916666666666666,0.125,1,0,0,5.013941000041086,call2,-0.006944444444444444,0.10833333333333334,1,0,0,5.814781600027345,colour2,0.3425925925925926,0.26342592592592595,1,0,0,6.647310499974992,number1,True,True,True,18,3,2019_Nov_14_1408,MA_Theta_Exp,3.0.7,60.0560202487846,
video/Experiment/zh_sp07_Dr_Ro_4_NoThetaInAudio_GlobalThetaInVideo.avi,noTheta,plusVideo,sp07,Dr,Ro,4,4,3,flow/blocks/NoThetaInAudio_GlobalThetaInVideo_A.csv,,,,,,,,,0,4,4,4,0,27,27,27,,,,,,,,,-0.3888888888888889,0.06666666666666667,1,0,0,4.8434989000088535,call2,-0.003703703703703704,-0.08333333333333333,1,0,0,5.642877499980386,colour3,0.4287037037037037,-0.287962962962963,1,0,0,6.442738400015514,number4,True,True,True,18,3,2019_Nov_14_1408,MA_Theta_Exp,3.0.7,60.0560202487846,
video/Experiment/zh_sp07_Dr_Ro_3_NoThetaInAudio_GlobalThetaInVideo.avi,noTheta,plusVideo,sp07,Dr,Ro,3,4,3,flow/blocks/NoThetaInAudio_GlobalThetaInVideo_A.csv,,,,,,,,,0,4,4,4,0,28,28,26,,,,,,,,,-0.3333333333333333,0.08888888888888889,1,0,0,4.982460699975491,call2,0.04398148148148148,-0.1,1,0,0,5.711887400015257,colour3,0.38935185185185184,-0.09907407407407408,1,0,0,6.378880199976265,number3,True,True,True,18,3,2019_Nov_14_1408,MA_Theta_Exp,3.0.7,60.0560202487846,
video/Experiment/zh_sp01_Ad_Gr_2_NoThetaInAudio_GlobalThetaInVideo.avi,noTheta,plusVideo,sp01,Ad,Gr,2,4,3,flow/blocks/NoThetaInAudio_GlobalThetaInVideo_A.csv,,,,,,,,,0,4,4,4,0,29,29,5,,,,,,,,,-0.4444444444444444,0.2675925925925926,1,0,0,5.509957199974451,call1,-0.029166666666666667,0.1175925925925926,1,0,0,6.326803200005088,colour2,0.37037037037037035,0.12546296296296297,1,0,0,7.159924299980048,number2,True,True,True,18,3,2019_Nov_14_1408,MA_Theta_Exp,3.0.7,60.0560202487846,
video/Experiment/zh_sp07_Dr_Ro_1_NoThetaInAudio_GlobalThetaInVideo.avi,noTheta,plusVideo,sp07,Dr,Ro,1,4,3,flow/blocks/NoThetaInAudio_GlobalThetaInVideo_A.csv,,,,,,,,,0,4,4,4,0,30,30,24,,,,,,,,,-0.31712962962962965,0.10925925925925926,1,0,0,4.891808600048535,call2,0.044444444444444446,-0.06018518518518518,1,0,0,5.775016299972776,colour3,0.387037037037037,0.27870370370370373,1,0,0,6.658474600000773,number1,True,True,True,18,3,2019_Nov_14_1408,MA_Theta_Exp,3.0.7,60.0560202487846,
video/Experiment/zh_sp01_Dr_Gr_3_NoThetaInAudio_GlobalThetaInVideo.avi,noTheta,plusVideo,sp01,Dr,Gr,3,4,3,flow/blocks/NoThetaInAudio_GlobalThetaInVideo_A.csv,,,,,,,,,0,4,4,4,0,31,31,22,,,,,,,,,-0.35185185185185186,0.1087962962962963,1,0,0,5.453746900020633,call2,0.06388888888888888,0.11018518518518519,1,0,0,6.204065800004173,colour2,0.4046296296296296,-0.08425925925925926,1,0,0,7.036992299952544,number3,True,True,True,18,3,2019_Nov_14_1408,MA_Theta_Exp,3.0.7,60.0560202487846,
video/Experiment/zh_sp07_Ti_Gr_2_GlobalTheta_NoVideo.avi,globalTheta,noVideo,sp07,Ti,Gr,2,0,5,flow/blocks/GlobalTheta_NoVideo_B.csv,,,,,,,,,,,,,,,,,0,0,0,0,0,0,0,5,-0.3925925925925926,0.32546296296296295,1,0,0,5.5147844000021,call1,0.02638888888888889,0.10138888888888889,1,0,0,6.266125700029079,colour2,0.41759259259259257,0.1425925925925926,1,0,0,6.914473699987866,number2,False,True,True,18,3,2019_Nov_14_1408,MA_Theta_Exp,3.0.7,60.0560202487846,
video/Experiment/zh_sp01_Ti_Ro_1_GlobalTheta_NoVideo.avi,globalTheta,noVideo,sp01,Ti,Ro,1,0,5,flow/blocks/GlobalTheta_NoVideo_B.csv,,,,,,,,,,,,,,,,,0,0,0,0,0,1,1,8,-0.3638888888888889,-0.10324074074074074,1,0,0,5.458007200038992,call3,-0.0060185185185185185,-0.07314814814814814,1,0,0,6.174255299963988,colour3,0.3712962962962963,0.31203703703703706,1,0,0,6.974183800048195,number1,True,True,True,18,3,2019_Nov_14_1408,MA_Theta_Exp,3.0.7,60.0560202487846,
video/Experiment/zh_sp01_Un_Ge_1_GlobalTheta_NoVideo.avi,globalTheta,noVideo,sp01,Un,Ge,1,0,5,flow/blocks/GlobalTheta_NoVideo_B.csv,,,,,,,,,,,,,,,,,0,0,0,0,0,2,2,16,-0.3675925925925926,-0.30185185185185187,1,0,0,5.923367699957453,call4,0.027777777777777776,0.2884259259259259,1,0,0,6.972670199989807,colour1,0.375,0.34444444444444444,1,0,0,7.772453499957919,number1,True,True,True,18,3,2019_Nov_14_1408,MA_Theta_Exp,3.0.7,60.0560202487846,
video/Experiment/zh_sp07_Un_Gr_4_GlobalTheta_NoVideo.avi,globalTheta,noVideo,sp07,Un,Gr,4,0,5,flow/blocks/GlobalTheta_NoVideo_B.csv,,,,,,,,,,,,,,,,,0,0,0,0,0,3,3,23,-0.4064814814814815,-0.2847222222222222,1,0,0,4.757810000039171,call4,-0.033796296296296297,0.12314814814814815,1,0,0,5.607666099967901,colour2,0.3726851851851852,-0.31342592592592594,1,0,0,6.37423369998578,number4,True,True,True,18,3,2019_Nov_14_1408,MA_Theta_Exp,3.0.7,60.0560202487846,
video/Experiment/zh_sp01_Ti_Ge_2_GlobalTheta_NoVideo.avi,globalTheta,noVideo,sp01,Ti,Ge,2,0,5,flow/blocks/GlobalTheta_NoVideo_B.csv,,,,,,,,,,,,,,,,,0,0,0,0,0,4,4,1,-0.37175925925925923,-0.09027777777777778,1,0,0,5.774209600000177,call3,-0.03888888888888889,0.26064814814814813,1,0,0,6.839844000001904,colour1,0.3736111111111111,0.11712962962962963,1,0,0,8.306624400021974,number2,True,True,True,18,3,2019_Nov_14_1408,MA_Theta_Exp,3.0.7,60.0560202487846,
video/Experiment/zh_sp01_Ti_Ro_2_GlobalTheta_NoVideo.avi,globalTheta,noVideo,sp01,Ti,Ro,2,0,5,flow/blocks/GlobalTheta_NoVideo_B.csv,,,,,,,,,,,,,,,,,0,0,0,0,0,5,5,9,-0.34120370370370373,-0.03888888888888889,1,0,0,5.56462650001049,call3,0.012962962962962963,-0.04351851851851852,1,0,0,6.346690499980468,colour3,0.4236111111111111,0.12361111111111112,1,0,0,7.065807300037704,number2,True,True,True,18,3,2019_Nov_14_1408,MA_Theta_Exp,3.0.7,60.0560202487846,
video/Experiment/zh_sp07_Un_We_1_GlobalTheta_NoVideo.avi,globalTheta,noVideo,sp07,Un,We,1,0,5,flow/blocks/GlobalTheta_NoVideo_B.csv,,,,,,,,,,,,,,,,,0,0,0,0,0,6,6,28,-0.34675925925925927,-0.2902777777777778,1,0,0,4.81000060000224,call4,0.062037037037037036,-0.29259259259259257,1,0,0,5.560089299979154,colour4,0.47638888888888886,0.3199074074074074,1,0,0,6.596569899993483,number1,True,True,True,18,3,2019_Nov_14_1408,MA_Theta_Exp,3.0.7,60.0560202487846,
video/Experiment/zh_sp01_Un_Ro_4_GlobalTheta_NoVideo.avi,globalTheta,noVideo,sp01,Un,Ro,4,0,5,flow/blocks/GlobalTheta_NoVideo_B.csv,,,,,,,,,,,,,,,,,0,0,0,0,0,7,7,27,-0.35648148148148145,-0.32685185185185184,1,0,0,5.54282760003116,call4,0.03009259259259259,-0.05462962962962963,1,0,0,6.326179399969988,colour3,0.399537037037037,-0.25925925925925924,1,0,0,7.192368999996688,number4,True,True,True,18,3,2019_Nov_14_1408,MA_Theta_Exp,3.0.7,60.0560202487846,
video/Experiment/zh_sp07_Ti_Gr_1_GlobalTheta_NoVideo.avi,globalTheta,noVideo,sp07,Ti,Gr,1,0,5,flow/blocks/GlobalTheta_NoVideo_B.csv,,,,,,,,,,,,,,,,,0,0,0,0,0,8,8,4,-0.38564814814814813,-0.14166666666666666,1,0,0,4.647213499993086,call3,-0.016666666666666666,0.0837962962962963,1,0,0,5.447314399993047,colour2,0.42268518518518516,0.3148148148148148,1,0,0,6.6307315999874845,number1,True,True,True,18,3,2019_Nov_14_1408,MA_Theta_Exp,3.0.7,60.0560202487846,
video/Experiment/zh_sp07_Un_Ge_4_GlobalTheta_NoVideo.avi,globalTheta,noVideo,sp07,Un,Ge,4,0,5,flow/blocks/GlobalTheta_NoVideo_B.csv,,,,,,,,,,,,,,,,,0,0,0,0,0,9,9,19,-0.40046296296296297,-0.30925925925925923,1,0,0,4.83247039996786,call4,0.03888888888888889,0.3282407407407407,1,0,0,5.699303399946075,colour1,0.4185185185185185,-0.3013888888888889,1,0,0,6.615851300011855,number4,True,True,True,18,3,2019_Nov_14_1408,MA_Theta_Exp,3.0.7,60.0560202487846,
video/Experiment/zh_sp01_Ti_Ge_3_GlobalTheta_NoVideo.avi,globalTheta,noVideo,sp01,Ti,Ge,3,0,5,flow/blocks/GlobalTheta_NoVideo_B.csv,,,,,,,,,,,,,,,,,0,0,0,0,0,10,10,2,-0.38425925925925924,-0.31851851851851853,1,0,0,5.649687000026461,call4,0.011111111111111112,0.3037037037037037,1,0,0,6.547879399964586,colour1,0.39490740740740743,-0.12268518518518519,1,0,0,7.364887700008694,number3,False,True,True,18,3,2019_Nov_14_1408,MA_Theta_Exp,3.0.7,60.0560202487846,
video/Experiment/zh_sp01_Un_Ro_1_GlobalTheta_NoVideo.avi,globalTheta,noVideo,sp01,Un,Ro,1,0,5,flow/blocks/GlobalTheta_NoVideo_B.csv,,,,,,,,,,,,,,,,,0,0,0,0,0,11,11,24,-0.33287037037037037,-0.27361111111111114,1,0,0,5.500287400034722,call4,0.0,0.2833333333333333,1,0,0,6.50048919999972,colour1,0.38796296296296295,0.2949074074074074,1,0,0,7.2334643000504,number1,True,False,True,18,3,2019_Nov_14_1408,MA_Theta_Exp,3.0.7,60.0560202487846,
video/Experiment/zh_sp07_Un_Ge_3_GlobalTheta_NoVideo.avi,globalTheta,noVideo,sp07,Un,Ge,3,0,5,flow/blocks/GlobalTheta_NoVideo_B.csv,,,,,,,,,,,,,,,,,0,0,0,0,0,12,12,18,-0.43148148148148147,-0.30324074074074076,1,0,0,4.782234999991488,call4,-0.005092592592592593,0.30185185185185187,1,0,0,5.9326931000105105,colour1,0.4125,-0.09305555555555556,1,0,0,6.848053999943659,number3,True,True,True,18,3,2019_Nov_14_1408,MA_Theta_Exp,3.0.7,60.0560202487846,
video/Experiment/zh_sp01_Ti_Gr_3_GlobalTheta_NoVideo.avi,globalTheta,noVideo,sp01,Ti,Gr,3,0,5,flow/blocks/GlobalTheta_NoVideo_B.csv,,,,,,,,,,,,,,,,,0,0,0,0,0,13,13,6,-0.3527777777777778,-0.14907407407407408,1,0,0,5.821935099957045,call3,0.000462962962962963,0.05787037037037037,1,0,0,6.771745800040662,colour2,0.43194444444444446,-0.10648148148148148,1,0,0,7.73992989998078,number3,True,True,True,18,3,2019_Nov_14_1408,MA_Theta_Exp,3.0.7,60.0560202487846,
video/Experiment/zh_sp01_Un_Ro_3_GlobalTheta_NoVideo.avi,globalTheta,noVideo,sp01,Un,Ro,3,0,5,flow/blocks/GlobalTheta_NoVideo_B.csv,,,,,,,,,,,,,,,,,0,0,0,0,0,14,14,26,-0.35462962962962963,-0.12916666666666668,1,0,0,5.451539599976968,call3,-0.0712962962962963,-0.10046296296296296,1,0,0,6.1181117000523955,colour3,0.41944444444444445,-0.11388888888888889,1,0,0,6.851570200000424,number3,False,True,True,18,3,2019_Nov_14_1408,MA_Theta_Exp,3.0.7,60.0560202487846,
video/Experiment/zh_sp01_Un_Gr_1_GlobalTheta_NoVideo.avi,globalTheta,noVideo,sp01,Un,Gr,1,0,5,flow/blocks/GlobalTheta_NoVideo_B.csv,,,,,,,,,,,,,,,,,0,0,0,0,0,15,15,20,-0.36018518518518516,-0.31527777777777777,1,0,0,5.455910399963614,call4,0.005092592592592593,0.043055555555555555,1,0,0,6.388128900027368,colour2,0.3875,0.2759259259259259,1,0,0,7.254929799993988,number1,True,True,True,18,3,2019_Nov_14_1408,MA_Theta_Exp,3.0.7,60.0560202487846,
video/Experiment/zh_sp07_Un_Gr_2_GlobalTheta_NoVideo.avi,globalTheta,noVideo,sp07,Un,Gr,2,0,5,flow/blocks/GlobalTheta_NoVideo_B.csv,,,,,,,,,,,,,,,,,0,0,0,0,0,16,16,21,-0.42962962962962964,-0.2898148148148148,1,0,0,5.034968400024809,call4,0.000925925925925926,0.06851851851851852,1,0,0,6.234522300015669,colour2,0.41064814814814815,0.06805555555555555,1,0,0,7.051006900030188,number2,True,True,True,18,3,2019_Nov_14_1408,MA_Theta_Exp,3.0.7,60.0560202487846,
video/Experiment/zh_sp01_Un_We_2_GlobalTheta_NoVideo.avi,globalTheta,noVideo,sp01,Un,We,2,0,5,flow/blocks/GlobalTheta_NoVideo_B.csv,,,,,,,,,,,,,,,,,0,0,0,0,0,17,17,29,-0.36666666666666664,-0.2759259259259259,1,0,0,5.609398500004318,call4,-0.020833333333333332,-0.29259259259259257,1,0,0,6.6426226000185125,colour4,0.399537037037037,0.075,1,0,0,7.5421446999534965,number2,True,True,True,18,3,2019_Nov_14_1408,MA_Theta_Exp,3.0.7,60.0560202487846,
video/Experiment/zh_sp07_Un_Gr_3_GlobalTheta_NoVideo.avi,globalTheta,noVideo,sp07,Un,Gr,3,0,5,flow/blocks/GlobalTheta_NoVideo_B.csv,,,,,,,,,,,,,,,,,0,0,0,0,0,18,18,22,-0.33194444444444443,-0.2902777777777778,1,0,0,4.840683399990667,call4,0.05277777777777778,0.09166666666666666,1,0,0,5.706213700002991,colour2,0.4439814814814815,-0.06388888888888888,1,0,0,6.490210100018885,number3,True,True,True,18,3,2019_Nov_14_1408,MA_Theta_Exp,3.0.7,60.0560202487846,
video/Experiment/zh_sp01_Ti_We_3_GlobalTheta_NoVideo.avi,globalTheta,noVideo,sp01,Ti,We,3,0,5,flow/blocks/GlobalTheta_NoVideo_B.csv,,,,,,,,,,,,,,,,,0,0,0,0,0,19,19,14,-0.3490740740740741,0.2388888888888889,1,0,0,5.839136700029485,call1,0.00787037037037037,-0.33611111111111114,1,0,0,7.18967709998833,colour4,0.36898148148148147,-0.16296296296296298,1,0,0,7.938698700047098,number3,False,True,True,18,3,2019_Nov_14_1408,MA_Theta_Exp,3.0.7,60.0560202487846,
video/Experiment/zh_sp07_Ti_Gr_4_GlobalTheta_NoVideo.avi,globalTheta,noVideo,sp07,Ti,Gr,4,0,5,flow/blocks/GlobalTheta_NoVideo_B.csv,,,,,,,,,,,,,,,,,0,0,0,0,0,20,20,7,-0.38981481481481484,-0.12037037037037036,1,0,0,5.074054700031411,call3,-0.020370370370370372,0.08148148148148149,1,0,0,5.756794999993872,colour2,0.41712962962962963,-0.35833333333333334,1,0,0,6.5402609999873675,number4,True,True,True,18,3,2019_Nov_14_1408,MA_Theta_Exp,3.0.7,60.0560202487846,
video/Experiment/zh_sp01_Ti_Ro_3_GlobalTheta_NoVideo.avi,globalTheta,noVideo,sp01,Ti,Ro,3,0,5,flow/blocks/GlobalTheta_NoVideo_B.csv,,,,,,,,,,,,,,,,,0,0,0,0,0,21,21,10,-0.4199074074074074,-0.15092592592592594,1,0,0,5.241893300029915,call3,-0.06018518518518518,-0.1175925925925926,1,0,0,5.941797000006773,colour3,0.38657407407407407,-0.11898148148148148,1,0,0,6.9749991000280716,number3,True,True,True,18,3,2019_Nov_14_1408,MA_Theta_Exp,3.0.7,60.0560202487846,
video/Experiment/zh_sp01_Un_We_3_GlobalTheta_NoVideo.avi,globalTheta,noVideo,sp01,Un,We,3,0,5,flow/blocks/GlobalTheta_NoVideo_B.csv,,,,,,,,,,,,,,,,,0,0,0,0,0,22,22,30,-0.36527777777777776,-0.3023148148148148,1,0,0,5.362376800039783,call4,-0.003703703703703704,-0.2986111111111111,1,0,0,6.162478199985344,colour4,0.4263888888888889,-0.10092592592592593,1,0,0,6.861760400002822,number3,True,True,True,18,3,2019_Nov_14_1408,MA_Theta_Exp,3.0.7,60.0560202487846,
video/Experiment/zh_sp07_Un_Ro_2_GlobalTheta_NoVideo.avi,globalTheta,noVideo,sp07,Un,Ro,2,0,5,flow/blocks/GlobalTheta_NoVideo_B.csv,,,,,,,,,,,,,,,,,0,0,0,0,0,23,23,25,-0.41805555555555557,-0.300462962962963,1,0,0,4.679153899953235,call4,-0.01990740740740741,-0.12129629629629629,1,0,0,5.5452975000371225,colour3,0.35648148148148145,0.043055555555555555,1,0,0,6.278751200006809,number2,True,True,True,18,3,2019_Nov_14_1408,MA_Theta_Exp,3.0.7,60.0560202487846,
video/Experiment/zh_sp01_Ti_Ro_4_GlobalTheta_NoVideo.avi,globalTheta,noVideo,sp01,Ti,Ro,4,0,5,flow/blocks/GlobalTheta_NoVideo_B.csv,,,,,,,,,,,,,,,,,0,0,0,0,0,24,24,11,-0.3699074074074074,-0.2740740740740741,1,0,0,5.4562005999614485,call4,-0.0032407407407407406,-0.0699074074074074,1,0,0,6.822324500011746,colour3,0.38564814814814813,-0.2712962962962963,1,0,0,7.762130799994338,number4,False,True,True,18,3,2019_Nov_14_1408,MA_Theta_Exp,3.0.7,60.0560202487846,
video/Experiment/zh_sp07_Ti_We_4_GlobalTheta_NoVideo.avi,globalTheta,noVideo,sp07,Ti,We,4,0,5,flow/blocks/GlobalTheta_NoVideo_B.csv,,,,,,,,,,,,,,,,,0,0,0,0,0,25,25,15,-0.4097222222222222,-0.09768518518518518,1,0,0,5.076276700012386,call3,-0.011574074074074073,-0.2912037037037037,1,0,0,5.90947860002052,colour4,0.41203703703703703,-0.2800925925925926,1,0,0,6.676048199995421,number4,True,True,True,18,3,2019_Nov_14_1408,MA_Theta_Exp,3.0.7,60.0560202487846,
video/Experiment/zh_sp07_Un_Ge_2_GlobalTheta_NoVideo.avi,globalTheta,noVideo,sp07,Un,Ge,2,0,5,flow/blocks/GlobalTheta_NoVideo_B.csv,,,,,,,,,,,,,,,,,0,0,0,0,0,26,26,17,-0.35648148148148145,-0.30972222222222223,1,0,0,4.946358200046234,call4,0.03333333333333333,0.35509259259259257,1,0,0,5.779128400026821,colour1,0.4148148148148148,0.12222222222222222,1,0,0,6.678937799995765,number2,True,True,True,18,3,2019_Nov_14_1408,MA_Theta_Exp,3.0.7,60.0560202487846,
video/Experiment/zh_sp01_Un_We_4_GlobalTheta_NoVideo.avi,globalTheta,noVideo,sp01,Un,We,4,0,5,flow/blocks/GlobalTheta_NoVideo_B.csv,,,,,,,,,,,,,,,,,0,0,0,0,0,27,27,31,-0.38472222222222224,-0.2972222222222222,1,0,0,5.412505699961912,call4,-0.06898148148148148,-0.2972222222222222,1,0,0,6.0799433999927714,colour4,0.36018518518518516,-0.3037037037037037,1,0,0,6.912583300028928,number4,True,True,True,18,3,2019_Nov_14_1408,MA_Theta_Exp,3.0.7,60.0560202487846,
video/Experiment/zh_sp07_Ti_Ge_1_GlobalTheta_NoVideo.avi,globalTheta,noVideo,sp07,Ti,Ge,1,0,5,flow/blocks/GlobalTheta_NoVideo_B.csv,,,,,,,,,,,,,,,,,0,0,0,0,0,28,28,0,-0.3472222222222222,-0.1449074074074074,1,0,0,5.233297800004948,call3,0.03657407407407407,0.2324074074074074,1,0,0,6.050345199997537,colour1,0.3425925925925926,0.30416666666666664,1,0,0,6.716641700011678,number1,True,True,True,18,3,2019_Nov_14_1408,MA_Theta_Exp,3.0.7,60.0560202487846,
video/Experiment/zh_sp07_Ti_We_2_GlobalTheta_NoVideo.avi,globalTheta,noVideo,sp07,Ti,We,2,0,5,flow/blocks/GlobalTheta_NoVideo_B.csv,,,,,,,,,,,,,,,,,0,0,0,0,0,29,29,13,-0.41388888888888886,-0.08888888888888889,1,0,0,4.748078699980397,call3,0.00787037037037037,0.12731481481481483,1,0,0,5.464791800011881,colour2,0.4263888888888889,0.1310185185185185,1,0,0,6.131684999971185,number2,True,False,True,18,3,2019_Nov_14_1408,MA_Theta_Exp,3.0.7,60.0560202487846,
video/Experiment/zh_sp07_Ti_We_1_GlobalTheta_NoVideo.avi,globalTheta,noVideo,sp07,Ti,We,1,0,5,flow/blocks/GlobalTheta_NoVideo_B.csv,,,,,,,,,,,,,,,,,0,0,0,0,0,30,30,12,-0.37777777777777777,-0.05277777777777778,1,0,0,4.660893899970688,call3,-0.040740740740740744,-0.2810185185185185,1,0,0,5.377688700042199,colour4,0.3907407407407407,0.23148148148148148,1,0,0,6.144032599986531,number1,True,True,True,18,3,2019_Nov_14_1408,MA_Theta_Exp,3.0.7,60.0560202487846,
video/Experiment/zh_sp07_Ti_Ge_4_GlobalTheta_NoVideo.avi,globalTheta,noVideo,sp07,Ti,Ge,4,0,5,flow/blocks/GlobalTheta_NoVideo_B.csv,,,,,,,,,,,,,,,,,0,0,0,0,0,31,31,3,-0.325,-0.1300925925925926,1,0,0,4.948756200028583,call3,0.01712962962962963,0.30185185185185187,1,0,0,5.732351800019387,colour1,0.4152777777777778,-0.3731481481481482,1,0,0,6.596946399949957,number4,True,True,True,18,3,2019_Nov_14_1408,MA_Theta_Exp,3.0.7,60.0560202487846,
video/Experiment/zh_sp07_Un_We_3_NoThetaInAudio_GlobalThetaInVideo.avi,noTheta,plusVideo,sp07,Un,We,3,1,3,flow/blocks/NoThetaInAudio_GlobalThetaInVideo_B.csv,,,,,,,,,,,,,,,,,0,1,1,1,0,0,0,30,-0.3337962962962963,-0.3458333333333333,1,0,0,5.1789633999578655,call4,0.0625,-0.2861111111111111,1,0,0,5.961694800003897,colour4,0.3726851851851852,-0.13333333333333333,1,0,0,6.778635399998166,number3,True,True,True,18,3,2019_Nov_14_1408,MA_Theta_Exp,3.0.7,60.0560202487846,
video/Experiment/zh_sp01_Ti_Gr_4_NoThetaInAudio_GlobalThetaInVideo.avi,noTheta,plusVideo,sp01,Ti,Gr,4,1,3,flow/blocks/NoThetaInAudio_GlobalThetaInVideo_B.csv,,,,,,,,,,,,,,,,,0,1,1,1,0,1,1,7,-0.4013888888888889,-0.08564814814814815,1,0,0,5.960718500020448,call3,-0.03611111111111111,0.14675925925925926,1,0,0,6.761584900028538,colour2,0.34444444444444444,-0.27314814814814814,1,0,0,7.72761379997246,number4,True,True,True,18,3,2019_Nov_14_1408,MA_Theta_Exp,3.0.7,60.0560202487846,
video/Experiment/zh_sp01_Ti_We_2_NoThetaInAudio_GlobalThetaInVideo.avi,noTheta,plusVideo,sp01,Ti,We,2,1,3,flow/blocks/NoThetaInAudio_GlobalThetaInVideo_B.csv,,,,,,,,,,,,,,,,,0,1,1,1,0,2,2,13,-0.41712962962962963,-0.0763888888888889,1,0,0,5.8050273999688216,call3,-0.03935185185185185,-0.26435185185185184,1,0,0,6.671552799991332,colour4,0.4222222222222222,0.09444444444444444,1,0,0,7.6543020000099204,number2,True,True,True,18,3,2019_Nov_14_1408,MA_Theta_Exp,3.0.7,60.0560202487846,
video/Experiment/zh_sp07_Un_We_4_NoThetaInAudio_GlobalThetaInVideo.avi,noTheta,plusVideo,sp07,Un,We,4,1,3,flow/blocks/NoThetaInAudio_GlobalThetaInVideo_B.csv,,,,,,,,,,,,,,,,,0,1,1,1,0,3,3,31,-0.3939814814814815,-0.2662037037037037,1,0,0,6.0763824000023305,call4,-0.04675925925925926,-0.26435185185185184,1,0,0,6.910006399964914,colour4,0.3990740740740741,-0.3,1,0,0,7.659506399999373,number4,True,True,True,18,3,2019_Nov_14_1408,MA_Theta_Exp,3.0.7,60.0560202487846,
video/Experiment/zh_sp07_Ti_We_4_NoThetaInAudio_GlobalThetaInVideo.avi,noTheta,plusVideo,sp07,Ti,We,4,1,3,flow/blocks/NoThetaInAudio_GlobalThetaInVideo_B.csv,,,,,,,,,,,,,,,,,0,1,1,1,0,4,4,15,-0.35555555555555557,-0.1175925925925926,1,0,0,5.530688799975906,call3,0.12824074074074074,-0.3101851851851852,1,0,0,6.344369300000835,colour4,0.3726851851851852,-0.29305555555555557,1,0,0,7.893614800006617,number4,True,True,True,18,3,2019_Nov_14_1408,MA_Theta_Exp,3.0.7,60.0560202487846,
video/Experiment/zh_sp01_Ti_Ro_3_NoThetaInAudio_GlobalThetaInVideo.avi,noTheta,plusVideo,sp01,Ti,Ro,3,1,3,flow/blocks/NoThetaInAudio_GlobalThetaInVideo_B.csv,,,,,,,,,,,,,,,,,0,1,1,1,0,5,5,10,-0.4041666666666667,-0.09351851851851851,1,0,0,5.342854199989233,call3,-0.005555555555555556,-0.07777777777777778,1,0,0,6.226253899978474,colour3,0.40925925925925927,-0.0962962962962963,1,0,0,7.164725700044073,number3,True,True,True,18,3,2019_Nov_14_1408,MA_Theta_Exp,3.0.7,60.0560202487846,
video/Experiment/zh_sp01_Ti_Gr_2_NoThetaInAudio_GlobalThetaInVideo.avi,noTheta,plusVideo,sp01,Ti,Gr,2,1,3,flow/blocks/NoThetaInAudio_GlobalThetaInVideo_B.csv,,,,,,,,,,,,,,,,,0,1,1,1,0,6,6,5,-0.3763888888888889,-0.05740740740740741,1,0,0,5.6631755999987945,call3,-0.02175925925925926,0.11527777777777778,1,0,0,6.446019300026819,colour2,0.4,0.1425925925925926,1,0,0,7.446251499990467,number2,True,True,True,18,3,2019_Nov_14_1408,MA_Theta_Exp,3.0.7,60.0560202487846,
video/Experiment/zh_sp07_Ti_We_1_NoThetaInAudio_GlobalThetaInVideo.avi,noTheta,plusVideo,sp07,Ti,We,1,1,3,flow/blocks/NoThetaInAudio_GlobalThetaInVideo_B.csv,,,,,,,,,,,,,,,,,0,1,1,1,0,7,7,12,-0.36898148148148147,-0.07962962962962963,1,0,0,4.882382399984635,call3,-0.07175925925925926,-0.2773148148148148,1,0,0,5.8323918000096455,colour4,0.4041666666666667,0.3425925925925926,1,0,0,6.699408999993466,number1,True,True,True,18,3,2019_Nov_14_1408,MA_Theta_Exp,3.0.7,60.0560202487846,
video/Experiment/zh_sp07_Ti_Ge_3_NoThetaInAudio_GlobalThetaInVideo.avi,noTheta,plusVideo,sp07,Ti,Ge,3,1,3,flow/blocks/NoThetaInAudio_GlobalThetaInVideo_B.csv,,,,,,,,,,,,,,,,,0,1,1,1,0,8,8,2,-0.32314814814814813,-0.07453703703703704,1,0,0,4.8705411000410095,call3,0.00787037037037037,0.2662037037037037,1,0,0,5.737879399966914,colour1,0.37453703703703706,-0.07175925925925926,1,0,0,6.737769899948034,number3,True,True,True,18,3,2019_Nov_14_1408,MA_Theta_Exp,3.0.7,60.0560202487846,
video/Experiment/zh_sp01_Un_Ro_2_NoThetaInAudio_GlobalThetaInVideo.avi,noTheta,plusVideo,sp01,Un,Ro,2,1,3,flow/blocks/NoThetaInAudio_GlobalThetaInVideo_B.csv,,,,,,,,,,,,,,,,,0,1,1,1,0,9,9,25,-0.3731481481481482,-0.3087962962962963,1,0,0,5.474203100020532,call4,0.04351851851851852,0.21805555555555556,1,0,0,6.224271300015971,colour1,0.3962962962962963,0.08657407407407407,1,0,0,7.507206499984022,number2,True,False,True,18,3,2019_Nov_14_1408,MA_Theta_Exp,3.0.7,60.0560202487846,
video/Experiment/zh_sp01_Ti_Ro_1_NoThetaInAudio_GlobalThetaInVideo.avi,noTheta,plusVideo,sp01,Ti,Ro,1,1,3,flow/blocks/NoThetaInAudio_GlobalThetaInVideo_B.csv,,,,,,,,,,,,,,,,,0,1,1,1,0,10,10,8,-0.3287037037037037,-0.08564814814814815,1,0,0,5.7635157000040635,call3,-0.03287037037037037,-0.07962962962962963,1,0,0,6.630164400034118,colour3,0.3384259259259259,0.22777777777777777,1,0,0,7.496985399979167,number1,True,True,True,18,3,2019_Nov_14_1408,MA_Theta_Exp,3.0.7,60.0560202487846,
video/Experiment/zh_sp07_Ti_Gr_3_NoThetaInAudio_GlobalThetaInVideo.avi,noTheta,plusVideo,sp07,Ti,Gr,3,1,3,flow/blocks/NoThetaInAudio_GlobalThetaInVideo_B.csv,,,,,,,,,,,,,,,,,0,1,1,1,0,11,11,6,-0.42268518518518516,-0.09444444444444444,1,0,0,4.948397999978624,call3,-0.07037037037037037,0.11851851851851852,1,0,0,5.732509300054517,colour2,0.3837962962962963,-0.07824074074074074,1,0,0,6.498698599985801,number3,True,True,True,18,3,2019_Nov_14_1408,MA_Theta_Exp,3.0.7,60.0560202487846,
video/Experiment/zh_sp01_Un_Gr_1_NoThetaInAudio_GlobalThetaInVideo.avi,noTheta,plusVideo,sp01,Un,Gr,1,1,3,flow/blocks/NoThetaInAudio_GlobalThetaInVideo_B.csv,,,,,,,,,,,,,,,,,0,1,1,1,0,12,12,20,-0.3574074074074074,-0.3106481481481482,1,0,0,5.598103399970569,call4,0.04953703703703704,0.1037037037037037,1,0,0,6.447565799986478,colour2,0.39490740740740743,0.3037037037037037,1,0,0,7.216780600021593,number1,True,True,True,18,3,2019_Nov_14_1408,MA_Theta_Exp,3.0.7,60.0560202487846,
video/Experiment/zh_sp07_Un_Ro_3_NoThetaInAudio_GlobalThetaInVideo.avi,noTheta,plusVideo,sp07,Un,Ro,3,1,3,flow/blocks/NoThetaInAudio_GlobalThetaInVideo_B.csv,,,,,,,,,,,,,,,,,0,1,1,1,0,13,13,26,-0.3662037037037037,-0.274537037037037,1,0,0,4.9143675999948755,call4,-0.020833333333333332,-0.10601851851851851,1,0,0,5.681016799993813,colour3,0.38935185185185184,-0.09583333333333334,1,0,0,6.514043100003619,number3,True,True,True,18,3,2019_Nov_14_1408,MA_Theta_Exp,3.0.7,60.0560202487846,
