videoFile,condition,video,speaker,callSign,colour,number,seq,id,block,exp.thisRepN,exp.thisTrialN,exp.thisN,exp.thisIndex,training.thisRepN,training.thisTrialN,training.thisN,training.thisIndex,firstHalf.thisRepN,firstHalf.thisTrialN,firstHalf.thisN,firstHalf.thisIndex,blocksA.thisRepN,blocksA.thisTrialN,blocksA.thisN,blocksA.thisIndex,secondHalf.thisRepN,secondHalf.thisTrialN,secondHalf.thisN,secondHalf.thisIndex,blocksB.thisRepN,blocksB.thisTrialN,blocksB.thisN,blocksB.thisIndex,mouseClickOnCall.x,mouseClickOnCall.y,mouseClickOnCall.leftButton,mouseClickOnCall.midButton,mouseClickOnCall.rightButton,mouseClickOnCall.time,mouseClickOnCall.clicked_name,mouseClickOnColour.x,mouseClickOnColour.y,mouseClickOnColour.leftButton,mouseClickOnColour.midButton,mouseClickOnColour.rightButton,mouseClickOnColour.time,mouseClickOnColour.clicked_name,callSignCorrect,colourCorrect,numberCorrect,mouseClickOnNumber.x,mouseClickOnNumber.y,mouseClickOnNumber.leftButton,mouseClickOnNumber.midButton,mouseClickOnNumber.rightButton,mouseClickOnNumber.time,mouseClickOnNumber.clicked_name,participant,order,date,expName,psychopyVersion,frameRate,
video/Training/zh_sp01_Ad_We_4_NVocInAudio_NoVideo.avi,vocoded,noVideo,sp01,Ad,We,4,,,,,,,,0,0,0,0,,,,,,,,,,,,,,,,,-0.41574074074074074,0.2810185185185185,1,0,0,9.762578000023495,call1,-0.0032407407407407406,-0.34675925925925927,1,0,0,12.629279599990696,colour4,True,True,NO_ANSW,,,,,,,,21,1,2019_Nov_14_1707,MA_Theta_Exp,3.0.7,61.10273326507573,
video/Training/zh_sp07_Ad_Ge_3_NVocInAudio_NoVideo.avi,vocoded,noVideo,sp07,Ad,Ge,3,,,,,,,,0,1,1,1,,,,,,,,,,,,,,,,,-0.4393518518518518,0.2833333333333333,1,0,0,5.309261999966111,call1,0.04259259259259259,0.30277777777777776,1,0,0,6.697528199991211,colour1,True,True,True,0.4162037037037037,-0.1162037037037037,1,0,0,7.376442399981897,number3,21,1,2019_Nov_14_1707,MA_Theta_Exp,3.0.7,61.10273326507573,
video/Training/zh_sp01_Dr_Ro_3_NVocInAudio_GlobalThetaInVideo.avi,vocoded,plusVideo,sp01,Dr,Ro,3,,,,,,,,0,2,2,2,,,,,,,,,,,,,,,,,-0.38796296296296295,0.2791666666666667,1,0,0,6.641785999992862,call1,0.013425925925925926,-0.08287037037037037,1,0,0,8.175958000007086,colour3,False,True,True,0.4009259259259259,-0.125,1,0,0,9.377248500008136,number3,21,1,2019_Nov_14_1707,MA_Theta_Exp,3.0.7,61.10273326507573,
video/Training/zh_sp07_Dr_Gr_4_NVocInAudio_GlobalThetaInVideo.avi,vocoded,plusVideo,sp07,Dr,Gr,4,,,,,,,,0,3,3,3,,,,,,,,,,,,,,,,,-0.4060185185185185,0.0699074074074074,1,0,0,6.404276799992658,call2,-0.0060185185185185185,0.07361111111111111,1,0,0,7.725527500035241,colour2,True,True,True,0.38425925925925924,-0.3148148148148148,1,0,0,9.730246299994178,number4,21,1,2019_Nov_14_1707,MA_Theta_Exp,3.0.7,61.10273326507573,
video/Training/zh_sp01_Ti_Gr_2_NoThetaInAudio_NoVideo.avi,noTheta,noVideo,sp01,Ti,Gr,2,,,,,,,,0,4,4,4,,,,,,,,,,,,,,,,,-0.40879629629629627,0.2791666666666667,1,0,0,8.405953300010879,call1,0.02175925925925926,0.28935185185185186,1,0,0,11.07284920004895,colour1,False,False,NO_ANSW,,,,,,,,21,1,2019_Nov_14_1707,MA_Theta_Exp,3.0.7,61.10273326507573,
video/Training/zh_sp07_Ti_Ro_1_NoThetaInAudio_NoVideo.avi,noTheta,noVideo,sp07,Ti,Ro,1,,,,,,,,0,5,5,5,,,,,,,,,,,,,,,,,-0.41574074074074074,0.2791666666666667,1,0,0,11.041395799955353,call1,,,,,,,,False,NO_ANSW,NO_ANSW,,,,,,,,21,1,2019_Nov_14_1707,MA_Theta_Exp,3.0.7,61.10273326507573,
video/Training/zh_sp01_Un_Ge_1_NoThetaInAudio_GlobalThetaInVideo.avi,noTheta,plusVideo,sp01,Un,Ge,1,,,,,,,,0,6,6,6,,,,,,,,,,,,,,,,,-0.38796296296296295,0.2722222222222222,1,0,0,8.717877399991266,call1,0.06342592592592593,0.27546296296296297,1,0,0,9.469079600006808,colour1,False,True,True,0.3814814814814815,0.3013888888888889,1,0,0,10.381240700022317,number1,21,1,2019_Nov_14_1707,MA_Theta_Exp,3.0.7,61.10273326507573,
video/Training/zh_sp07_Un_We_2_NoThetaInAudio_GlobalThetaInVideo.avi,noTheta,plusVideo,sp07,Un,We,2,,,,,,,,0,7,7,7,,,,,,,,,,,,,,,,,,,,,,,,,,,,,,,NO_ANSW,NO_ANSW,NO_ANSW,,,,,,,,21,1,2019_Nov_14_1707,MA_Theta_Exp,3.0.7,61.10273326507573,
video/Training/zh_sp01_Ad_Ge_1_GlobalTheta_NoVideo.avi,globalTheta,noVideo,sp01,Ad,Ge,1,,,,,,,,0,8,8,8,,,,,,,,,,,,,,,,,-0.3837962962962963,0.30416666666666664,1,0,0,6.312348399951588,call1,0.03564814814814815,0.24074074074074073,1,0,0,8.361428400035948,colour1,True,True,True,0.4703703703703704,0.2763888888888889,1,0,0,9.428541100001894,number1,21,1,2019_Nov_14_1707,MA_Theta_Exp,3.0.7,61.10273326507573,
video/Training/zh_sp07_Ad_Ro_3_GlobalTheta_NoVideo.avi,globalTheta,noVideo,sp07,Ad,Ro,3,,,,,,,,0,9,9,9,,,,,,,,,,,,,,,,,-0.37962962962962965,0.3055555555555556,1,0,0,7.172226700000465,call1,-0.046296296296296294,0.09212962962962963,1,0,0,8.440918500011321,colour2,True,False,True,0.3648148148148148,-0.1412037037037037,1,0,0,9.946363700029906,number3,21,1,2019_Nov_14_1707,MA_Theta_Exp,3.0.7,61.10273326507573,
video/Experiment/zh_sp07_Ad_Ro_1_NVocInAudio_NoVideo.avi,vocoded,noVideo,sp07,Ad,Ro,1,0,2,flow/blocks/NVocInAudio_NoVideo_A.csv,,,,,,,,,0,0,0,0,0,0,0,8,,,,,,,,,-0.412962962962963,0.29305555555555557,1,0,0,4.659079499950167,call1,0.020370370370370372,-0.13148148148148148,1,0,0,5.590438099985477,colour3,True,True,True,0.35648148148148145,0.2861111111111111,1,0,0,6.452835200005211,number1,21,1,2019_Nov_14_1707,MA_Theta_Exp,3.0.7,61.10273326507573,
video/Experiment/zh_sp01_Dr_Ro_1_NVocInAudio_NoVideo.avi,vocoded,noVideo,sp01,Dr,Ro,1,0,2,flow/blocks/NVocInAudio_NoVideo_A.csv,,,,,,,,,0,0,0,0,0,1,1,24,,,,,,,,,-0.42685185185185187,0.10694444444444444,1,0,0,5.586632399994414,call2,-0.001851851851851852,-0.12175925925925926,1,0,0,6.63912629999686,colour3,True,True,True,0.38425925925925924,0.30416666666666664,1,0,0,7.876614699955098,number1,21,1,2019_Nov_14_1707,MA_Theta_Exp,3.0.7,61.10273326507573,
video/Experiment/zh_sp01_Dr_Gr_4_NVocInAudio_NoVideo.avi,vocoded,noVideo,sp01,Dr,Gr,4,0,2,flow/blocks/NVocInAudio_NoVideo_A.csv,,,,,,,,,0,0,0,0,0,2,2,23,,,,,,,,,-0.39351851851851855,0.12824074074074074,1,0,0,5.502592900011223,call2,0.009259259259259259,0.12685185185185185,1,0,0,6.7732188000227325,colour2,True,True,True,0.43425925925925923,-0.32314814814814813,1,0,0,7.917377099976875,number4,21,1,2019_Nov_14_1707,MA_Theta_Exp,3.0.7,61.10273326507573,
video/Experiment/zh_sp01_Ad_We_3_NVocInAudio_NoVideo.avi,vocoded,noVideo,sp01,Ad,We,3,0,2,flow/blocks/NVocInAudio_NoVideo_A.csv,,,,,,,,,0,0,0,0,0,3,3,14,,,,,,,,,-0.4532407407407407,0.2708333333333333,1,0,0,5.816575399949215,call1,-0.008796296296296297,-0.3537037037037037,1,0,0,7.033909999998286,colour4,True,True,True,0.3912037037037037,-0.13842592592592592,1,0,0,8.101667999988422,number3,21,1,2019_Nov_14_1707,MA_Theta_Exp,3.0.7,61.10273326507573,
video/Experiment/zh_sp01_Ad_Ro_3_NVocInAudio_NoVideo.avi,vocoded,noVideo,sp01,Ad,Ro,3,0,2,flow/blocks/NVocInAudio_NoVideo_A.csv,,,,,,,,,0,0,0,0,0,4,4,10,,,,,,,,,-0.43796296296296294,0.29583333333333334,1,0,0,5.538916099991184,call1,-0.010185185185185186,-0.10092592592592593,1,0,0,6.503705099981744,colour3,True,True,True,0.41064814814814815,-0.11481481481481481,1,0,0,7.305857100000139,number3,21,1,2019_Nov_14_1707,MA_Theta_Exp,3.0.7,61.10273326507573,
video/Experiment/zh_sp01_Ad_Gr_3_NVocInAudio_NoVideo.avi,vocoded,noVideo,sp01,Ad,Gr,3,0,2,flow/blocks/NVocInAudio_NoVideo_A.csv,,,,,,,,,0,0,0,0,0,5,5,6,,,,,,,,,-0.3851851851851852,0.28055555555555556,1,0,0,5.3311044000438415,call1,-0.01712962962962963,0.08796296296296297,1,0,0,6.464128300023731,colour2,True,True,True,0.399537037037037,-0.12175925925925926,1,0,0,7.363027299987152,number3,21,1,2019_Nov_14_1707,MA_Theta_Exp,3.0.7,61.10273326507573,
video/Experiment/zh_sp07_Dr_Ro_2_NVocInAudio_NoVideo.avi,vocoded,noVideo,sp07,Dr,Ro,2,0,2,flow/blocks/NVocInAudio_NoVideo_A.csv,,,,,,,,,0,0,0,0,0,6,6,25,,,,,,,,,-0.4685185185185185,0.08611111111111111,1,0,0,5.002386199950706,call2,0.020370370370370372,-0.11064814814814815,1,0,0,6.0116086000343785,colour3,True,True,True,0.3439814814814815,0.07916666666666666,1,0,0,6.889670800010208,number2,21,1,2019_Nov_14_1707,MA_Theta_Exp,3.0.7,61.10273326507573,
video/Experiment/zh_sp01_Ad_Ge_3_NVocInAudio_NoVideo.avi,vocoded,noVideo,sp01,Ad,Ge,3,0,2,flow/blocks/NVocInAudio_NoVideo_A.csv,,,,,,,,,0,0,0,0,0,7,7,2,,,,,,,,,-0.45046296296296295,0.3125,1,0,0,5.301947799976915,call1,-0.03518518518518519,0.27824074074074073,1,0,0,6.191825699992478,colour1,True,True,True,0.43148148148148147,-0.11064814814814815,1,0,0,7.250363599974662,number3,21,1,2019_Nov_14_1707,MA_Theta_Exp,3.0.7,61.10273326507573,
video/Experiment/zh_sp07_Dr_Gr_2_NVocInAudio_NoVideo.avi,vocoded,noVideo,sp07,Dr,Gr,2,0,2,flow/blocks/NVocInAudio_NoVideo_A.csv,,,,,,,,,0,0,0,0,0,8,8,21,,,,,,,,,-0.3699074074074074,0.07083333333333333,1,0,0,4.816109100007452,call2,0.006481481481481481,0.06712962962962964,1,0,0,5.63504570000805,colour2,True,True,True,0.40925925925925927,0.06574074074074074,1,0,0,6.5122131000389345,number2,21,1,2019_Nov_14_1707,MA_Theta_Exp,3.0.7,61.10273326507573,
video/Experiment/zh_sp07_Ad_Gr_1_NVocInAudio_NoVideo.avi,vocoded,noVideo,sp07,Ad,Gr,1,0,2,flow/blocks/NVocInAudio_NoVideo_A.csv,,,,,,,,,0,0,0,0,0,9,9,4,,,,,,,,,-0.42685185185185187,0.28055555555555556,1,0,0,4.940126099972986,call1,-0.011574074074074073,0.0875,1,0,0,5.896567500021774,colour2,True,True,True,0.43842592592592594,0.3125,1,0,0,6.841118299984373,number1,21,1,2019_Nov_14_1707,MA_Theta_Exp,3.0.7,61.10273326507573,
video/Experiment/zh_sp01_Dr_Ro_3_NVocInAudio_NoVideo.avi,vocoded,noVideo,sp01,Dr,Ro,3,0,2,flow/blocks/NVocInAudio_NoVideo_A.csv,,,,,,,,,0,0,0,0,0,10,10,26,,,,,,,,,-0.4060185185185185,0.12824074074074074,1,0,0,5.923144200001843,call2,-0.007407407407407408,0.12407407407407407,1,0,0,7.0600033000227995,colour2,True,False,True,0.42592592592592593,-0.07731481481481481,1,0,0,7.857474399963394,number3,21,1,2019_Nov_14_1707,MA_Theta_Exp,3.0.7,61.10273326507573,
video/Experiment/zh_sp07_Dr_Ge_3_NVocInAudio_NoVideo.avi,vocoded,noVideo,sp07,Dr,Ge,3,0,2,flow/blocks/NVocInAudio_NoVideo_A.csv,,,,,,,,,0,0,0,0,0,11,11,18,,,,,,,,,-0.40324074074074073,0.03888888888888889,1,0,0,4.716617300000507,call2,0.053703703703703705,0.07916666666666666,1,0,0,5.5661602999898605,colour2,True,False,True,0.43703703703703706,-0.10925925925925926,1,0,0,6.583469000004698,number3,21,1,2019_Nov_14_1707,MA_Theta_Exp,3.0.7,61.10273326507573,
video/Experiment/zh_sp01_Dr_We_4_NVocInAudio_NoVideo.avi,vocoded,noVideo,sp01,Dr,We,4,0,2,flow/blocks/NVocInAudio_NoVideo_A.csv,,,,,,,,,0,0,0,0,0,12,12,31,,,,,,,,,-0.40324074074074073,0.07916666666666666,1,0,0,5.206996500026435,call2,-0.011574074074074073,-0.30787037037037035,1,0,0,6.035779399971943,colour4,True,True,True,0.4064814814814815,-0.29814814814814816,1,0,0,6.837796699954197,number4,21,1,2019_Nov_14_1707,MA_Theta_Exp,3.0.7,61.10273326507573,
video/Experiment/zh_sp07_Dr_We_1_NVocInAudio_NoVideo.avi,vocoded,noVideo,sp07,Dr,We,1,0,2,flow/blocks/NVocInAudio_NoVideo_A.csv,,,,,,,,,0,0,0,0,0,13,13,28,,,,,,,,,-0.48657407407407405,0.075,1,0,0,4.577232100011315,call2,-0.000462962962962963,-0.3287037037037037,1,0,0,5.410665200033691,colour4,True,True,True,0.35509259259259257,0.3263888888888889,1,0,0,6.397389699995983,number1,21,1,2019_Nov_14_1707,MA_Theta_Exp,3.0.7,61.10273326507573,
video/Experiment/zh_sp01_Ad_Gr_4_NVocInAudio_NoVideo.avi,vocoded,noVideo,sp01,Ad,Gr,4,0,2,flow/blocks/NVocInAudio_NoVideo_A.csv,,,,,,,,,0,0,0,0,0,14,14,7,,,,,,,,,-0.40046296296296297,0.25972222222222224,1,0,0,5.5508270999998786,call1,0.014814814814814815,0.08101851851851852,1,0,0,6.258494800014887,colour2,True,True,True,0.44814814814814813,-0.2828703703703704,1,0,0,7.212590400013141,number4,21,1,2019_Nov_14_1707,MA_Theta_Exp,3.0.7,61.10273326507573,
video/Experiment/zh_sp01_Dr_Ge_1_NVocInAudio_NoVideo.avi,vocoded,noVideo,sp01,Dr,Ge,1,0,2,flow/blocks/NVocInAudio_NoVideo_A.csv,,,,,,,,,0,0,0,0,0,15,15,16,,,,,,,,,-0.4212962962962963,0.07546296296296297,1,0,0,5.308488000009675,call2,-0.040740740740740744,0.2875,1,0,0,6.1361313999514095,colour1,True,True,True,0.3731481481481482,0.30833333333333335,1,0,0,6.923574600019492,number1,21,1,2019_Nov_14_1707,MA_Theta_Exp,3.0.7,61.10273326507573,
video/Experiment/zh_sp07_Dr_Gr_1_NVocInAudio_NoVideo.avi,vocoded,noVideo,sp07,Dr,Gr,1,0,2,flow/blocks/NVocInAudio_NoVideo_A.csv,,,,,,,,,0,0,0,0,0,16,16,20,,,,,,,,,-0.3921296296296296,0.05324074074074074,1,0,0,5.398469699954148,call2,-0.0587962962962963,0.07546296296296297,1,0,0,6.016399100015406,colour2,True,True,True,0.36342592592592593,0.2916666666666667,1,0,0,6.7222673000069335,number1,21,1,2019_Nov_14_1707,MA_Theta_Exp,3.0.7,61.10273326507573,
video/Experiment/zh_sp01_Dr_We_3_NVocInAudio_NoVideo.avi,vocoded,noVideo,sp01,Dr,We,3,0,2,flow/blocks/NVocInAudio_NoVideo_A.csv,,,,,,,,,0,0,0,0,0,17,17,30,,,,,,,,,-0.3685185185185185,0.0763888888888889,1,0,0,5.149403499963228,call2,0.027314814814814816,-0.3189814814814815,1,0,0,6.106232499994803,colour4,True,True,True,0.3800925925925926,-0.1259259259259259,1,0,0,7.671818999981042,number3,21,1,2019_Nov_14_1707,MA_Theta_Exp,3.0.7,61.10273326507573,
video/Experiment/zh_sp07_Dr_Gr_3_NVocInAudio_NoVideo.avi,vocoded,noVideo,sp07,Dr,Gr,3,0,2,flow/blocks/NVocInAudio_NoVideo_A.csv,,,,,,,,,0,0,0,0,0,18,18,22,,,,,,,,,-0.3990740740740741,0.08472222222222223,1,0,0,4.870943900023121,call2,0.010648148148148148,0.09027777777777778,1,0,0,5.528997000015806,colour2,True,True,True,0.38981481481481484,-0.13148148148148148,1,0,0,6.239415299962275,number3,21,1,2019_Nov_14_1707,MA_Theta_Exp,3.0.7,61.10273326507573,
video/Experiment/zh_sp07_Dr_Ge_2_NVocInAudio_NoVideo.avi,vocoded,noVideo,sp07,Dr,Ge,2,0,2,flow/blocks/NVocInAudio_NoVideo_A.csv,,,,,,,,,0,0,0,0,0,19,19,17,,,,,,,,,-0.3921296296296296,0.07916666666666666,1,0,0,4.543264299980365,call2,-0.05185185185185185,0.2763888888888889,1,0,0,5.211934600025415,colour1,True,True,True,0.3453703703703704,0.07685185185185185,1,0,0,5.913685499981511,number2,21,1,2019_Nov_14_1707,MA_Theta_Exp,3.0.7,61.10273326507573,
video/Experiment/zh_sp07_Ad_We_1_NVocInAudio_NoVideo.avi,vocoded,noVideo,sp07,Ad,We,1,0,2,flow/blocks/NVocInAudio_NoVideo_A.csv,,,,,,,,,0,0,0,0,0,20,20,12,,,,,,,,,-0.41435185185185186,0.12824074074074074,1,0,0,4.533600400027353,call2,0.013425925925925926,-0.3037037037037037,1,0,0,5.365818599995691,colour4,False,True,True,0.3814814814814815,0.3236111111111111,1,0,0,6.225729300000239,number1,21,1,2019_Nov_14_1707,MA_Theta_Exp,3.0.7,61.10273326507573,
video/Experiment/zh_sp07_Ad_Ro_2_NVocInAudio_NoVideo.avi,vocoded,noVideo,sp07,Ad,Ro,2,0,2,flow/blocks/NVocInAudio_NoVideo_A.csv,,,,,,,,,0,0,0,0,0,21,21,9,,,,,,,,,-0.4449074074074074,0.3236111111111111,1,0,0,4.618265700002667,call1,0.003703703703703704,0.3277777777777778,1,0,0,6.000965000013821,colour1,True,False,True,0.4300925925925926,0.1087962962962963,1,0,0,6.497794300026726,number2,21,1,2019_Nov_14_1707,MA_Theta_Exp,3.0.7,61.10273326507573,
video/Experiment/zh_sp07_Ad_Ge_4_NVocInAudio_NoVideo.avi,vocoded,noVideo,sp07,Ad,Ge,4,0,2,flow/blocks/NVocInAudio_NoVideo_A.csv,,,,,,,,,0,0,0,0,0,22,22,3,,,,,,,,,-0.3560185185185185,0.24583333333333332,1,0,0,4.7727713999920525,call1,-0.01712962962962963,0.2916666666666667,1,0,0,5.336323200026527,colour1,True,True,True,0.4023148148148148,-0.3287037037037037,1,0,0,6.1606198999797925,number4,21,1,2019_Nov_14_1707,MA_Theta_Exp,3.0.7,61.10273326507573,
video/Experiment/zh_sp01_Ad_We_4_NVocInAudio_NoVideo.avi,vocoded,noVideo,sp01,Ad,We,4,0,2,flow/blocks/NVocInAudio_NoVideo_A.csv,,,,,,,,,0,0,0,0,0,23,23,15,,,,,,,,,-0.44212962962962965,0.275,1,0,0,5.111142500012647,call1,-0.032407407407407406,-0.34814814814814815,1,0,0,5.770402500056662,colour4,True,True,True,0.4078703703703704,-0.3055555555555556,1,0,0,6.423007100005634,number4,21,1,2019_Nov_14_1707,MA_Theta_Exp,3.0.7,61.10273326507573,
video/Experiment/zh_sp01_Ad_Gr_2_NVocInAudio_NoVideo.avi,vocoded,noVideo,sp01,Ad,Gr,2,0,2,flow/blocks/NVocInAudio_NoVideo_A.csv,,,,,,,,,0,0,0,0,0,24,24,5,,,,,,,,,-0.4212962962962963,0.2833333333333333,1,0,0,5.376076199987438,call1,0.01898148148148148,0.06574074074074074,1,0,0,6.007240799954161,colour2,True,True,True,0.4398148148148148,0.06574074074074074,1,0,0,6.745731300034095,number2,21,1,2019_Nov_14_1707,MA_Theta_Exp,3.0.7,61.10273326507573,
video/Experiment/zh_sp07_Dr_Ge_4_NVocInAudio_NoVideo.avi,vocoded,noVideo,sp07,Dr,Ge,4,0,2,flow/blocks/NVocInAudio_NoVideo_A.csv,,,,,,,,,0,0,0,0,0,25,25,19,,,,,,,,,-0.3712962962962963,0.07222222222222222,1,0,0,4.656107600021642,call2,-0.04212962962962963,0.2611111111111111,1,0,0,5.316650099994149,colour1,True,True,True,0.4050925925925926,-0.31342592592592594,1,0,0,6.10102249996271,number4,21,1,2019_Nov_14_1707,MA_Theta_Exp,3.0.7,61.10273326507573,
video/Experiment/zh_sp07_Ad_Ge_1_NVocInAudio_NoVideo.avi,vocoded,noVideo,sp07,Ad,Ge,1,0,2,flow/blocks/NVocInAudio_NoVideo_A.csv,,,,,,,,,0,0,0,0,0,26,26,0,,,,,,,,,-0.4101851851851852,0.2611111111111111,1,0,0,4.704043600009754,call1,-0.0060185185185185185,0.28194444444444444,1,0,0,5.37912579998374,colour1,True,True,True,0.4009259259259259,0.28194444444444444,1,0,0,6.109071800019592,number1,21,1,2019_Nov_14_1707,MA_Theta_Exp,3.0.7,61.10273326507573,
video/Experiment/zh_sp01_Ad_Ge_2_NVocInAudio_NoVideo.avi,vocoded,noVideo,sp01,Ad,Ge,2,0,2,flow/blocks/NVocInAudio_NoVideo_A.csv,,,,,,,,,0,0,0,0,0,27,27,1,,,,,,,,,-0.3990740740740741,0.29768518518518516,1,0,0,5.299140199960675,call1,0.037037037037037035,0.29212962962962963,1,0,0,5.925396100035869,colour1,True,True,True,0.4550925925925926,0.10324074074074074,1,0,0,6.577859600016382,number2,21,1,2019_Nov_14_1707,MA_Theta_Exp,3.0.7,61.10273326507573,
video/Experiment/zh_sp07_Dr_We_2_NVocInAudio_NoVideo.avi,vocoded,noVideo,sp07,Dr,We,2,0,2,flow/blocks/NVocInAudio_NoVideo_A.csv,,,,,,,,,0,0,0,0,0,28,28,29,,,,,,,,,-0.4337962962962963,0.07083333333333333,1,0,0,4.555899399972986,call2,0.01898148148148148,-0.34953703703703703,1,0,0,5.239745800034143,colour4,True,True,True,0.4134259259259259,0.13333333333333333,1,0,0,6.0089176000328735,number2,21,1,2019_Nov_14_1707,MA_Theta_Exp,3.0.7,61.10273326507573,
video/Experiment/zh_sp07_Ad_Ro_4_NVocInAudio_NoVideo.avi,vocoded,noVideo,sp07,Ad,Ro,4,0,2,flow/blocks/NVocInAudio_NoVideo_A.csv,,,,,,,,,0,0,0,0,0,29,29,11,,,,,,,,,-0.44351851851851853,0.059722222222222225,1,0,0,4.648362200008705,call2,0.000925925925925926,-0.13842592592592592,1,0,0,5.551546800008509,colour3,False,True,True,0.41064814814814815,-0.3236111111111111,1,0,0,6.222390600014478,number4,21,1,2019_Nov_14_1707,MA_Theta_Exp,3.0.7,61.10273326507573,
video/Experiment/zh_sp01_Dr_Ro_4_NVocInAudio_NoVideo.avi,vocoded,noVideo,sp01,Dr,Ro,4,0,2,flow/blocks/NVocInAudio_NoVideo_A.csv,,,,,,,,,0,0,0,0,0,30,30,27,,,,,,,,,-0.40185185185185185,0.09166666666666666,1,0,0,5.144245299976319,call2,0.038425925925925926,-0.1398148148148148,1,0,0,5.826302600034978,colour3,True,True,True,0.41898148148148145,-0.33611111111111114,1,0,0,6.638840899977367,number4,21,1,2019_Nov_14_1707,MA_Theta_Exp,3.0.7,61.10273326507573,
video/Experiment/zh_sp01_Ad_We_2_NVocInAudio_NoVideo.avi,vocoded,noVideo,sp01,Ad,We,2,0,2,flow/blocks/NVocInAudio_NoVideo_A.csv,,,,,,,,,0,0,0,0,0,31,31,13,,,,,,,,,-0.4046296296296296,0.29444444444444445,1,0,0,5.3507777999620885,call1,-0.03518518518518519,-0.32037037037037036,1,0,0,6.115512599993963,colour4,True,True,True,0.3537037037037037,0.06666666666666667,1,0,0,6.9502083999686874,number2,21,1,2019_Nov_14_1707,MA_Theta_Exp,3.0.7,61.10273326507573,
video/Experiment/zh_sp01_Ad_Ge_3_NoThetaInAudio_GlobalThetaInVideo.avi,noTheta,plusVideo,sp01,Ad,Ge,3,1,3,flow/blocks/NoThetaInAudio_GlobalThetaInVideo_A.csv,,,,,,,,,0,1,1,1,0,0,0,2,,,,,,,,,-0.3976851851851852,0.25833333333333336,1,0,0,5.069465800013859,call1,-0.046296296296296294,0.25972222222222224,1,0,0,5.786991000000853,colour1,True,True,False,0.3523148148148148,-0.36342592592592593,1,0,0,6.49037940002745,number4,21,1,2019_Nov_14_1707,MA_Theta_Exp,3.0.7,61.10273326507573,
video/Experiment/zh_sp07_Dr_We_2_NoThetaInAudio_GlobalThetaInVideo.avi,noTheta,plusVideo,sp07,Dr,We,2,1,3,flow/blocks/NoThetaInAudio_GlobalThetaInVideo_A.csv,,,,,,,,,0,1,1,1,0,1,1,29,,,,,,,,,-0.40879629629629627,0.2569444444444444,1,0,0,4.849729000008665,call1,-0.02546296296296296,-0.39537037037037037,1,0,0,5.5839863999863155,colour4,False,True,False,0.37037037037037035,0.3125,1,0,0,6.335070999979507,number1,21,1,2019_Nov_14_1707,MA_Theta_Exp,3.0.7,61.10273326507573,
video/Experiment/zh_sp07_Ad_We_1_NoThetaInAudio_GlobalThetaInVideo.avi,noTheta,plusVideo,sp07,Ad,We,1,1,3,flow/blocks/NoThetaInAudio_GlobalThetaInVideo_A.csv,,,,,,,,,0,1,1,1,0,2,2,12,,,,,,,,,-0.3726851851851852,0.2708333333333333,1,0,0,4.605391099990811,call1,-0.024074074074074074,-0.337037037037037,1,0,0,5.351947899966035,colour4,True,True,True,0.4078703703703704,0.30416666666666664,1,0,0,6.210097800008953,number1,21,1,2019_Nov_14_1707,MA_Theta_Exp,3.0.7,61.10273326507573,
video/Experiment/zh_sp01_Ad_Gr_3_NoThetaInAudio_GlobalThetaInVideo.avi,noTheta,plusVideo,sp01,Ad,Gr,3,1,3,flow/blocks/NoThetaInAudio_GlobalThetaInVideo_A.csv,,,,,,,,,0,1,1,1,0,3,3,6,,,,,,,,,-0.4393518518518518,0.3013888888888889,1,0,0,5.1662307000369765,call1,-0.033796296296296297,0.11851851851851852,1,0,0,5.799542399996426,colour2,True,True,False,0.40925925925925927,-0.3472222222222222,1,0,0,6.618407000030857,number4,21,1,2019_Nov_14_1707,MA_Theta_Exp,3.0.7,61.10273326507573,
video/Experiment/zh_sp01_Dr_Ge_4_NoThetaInAudio_GlobalThetaInVideo.avi,noTheta,plusVideo,sp01,Dr,Ge,4,1,3,flow/blocks/NoThetaInAudio_GlobalThetaInVideo_A.csv,,,,,,,,,0,1,1,1,0,4,4,19,,,,,,,,,-0.44074074074074077,0.09444444444444444,1,0,0,5.1342861999874,call2,-0.031018518518518518,0.33194444444444443,1,0,0,5.856467500037979,colour1,True,True,True,0.46064814814814814,-0.33425925925925926,1,0,0,6.661771300015971,number4,21,1,2019_Nov_14_1707,MA_Theta_Exp,3.0.7,61.10273326507573,
video/Experiment/zh_sp07_Dr_Ro_4_NoThetaInAudio_GlobalThetaInVideo.avi,noTheta,plusVideo,sp07,Dr,Ro,4,1,3,flow/blocks/NoThetaInAudio_GlobalThetaInVideo_A.csv,,,,,,,,,0,1,1,1,0,5,5,27,,,,,,,,,-0.3851851851851852,0.29212962962962963,1,0,0,5.738218699989375,call1,-0.014351851851851852,0.24444444444444444,1,0,0,6.949612499971408,colour1,False,False,True,0.4134259259259259,-0.33564814814814814,1,0,0,7.581828900030814,number4,21,1,2019_Nov_14_1707,MA_Theta_Exp,3.0.7,61.10273326507573,
video/Experiment/zh_sp01_Ad_Ge_4_NoThetaInAudio_GlobalThetaInVideo.avi,noTheta,plusVideo,sp01,Ad,Ge,4,1,3,flow/blocks/NoThetaInAudio_GlobalThetaInVideo_A.csv,,,,,,,,,0,1,1,1,0,6,6,3,,,,,,,,,-0.35462962962962963,0.30694444444444446,1,0,0,5.082619499997236,call1,0.3925925925925926,-0.33425925925925926,1,0,0,5.774872299982235,colour1,True,True,True,0.3800925925925926,-0.34814814814814815,1,0,0,7.623815800005104,number4,21,1,2019_Nov_14_1707,MA_Theta_Exp,3.0.7,61.10273326507573,
video/Experiment/zh_sp07_Ad_Gr_4_NoThetaInAudio_GlobalThetaInVideo.avi,noTheta,plusVideo,sp07,Ad,Gr,4,1,3,flow/blocks/NoThetaInAudio_GlobalThetaInVideo_A.csv,,,,,,,,,0,1,1,1,0,7,7,7,,,,,,,,,-0.4101851851851852,0.25972222222222224,1,0,0,4.6846781999920495,call1,-0.0032407407407407406,0.018055555555555554,1,0,0,5.387914699967951,colour2,True,True,True,0.3592592592592593,-0.2912037037037037,1,0,0,6.028331900015473,number4,21,1,2019_Nov_14_1707,MA_Theta_Exp,3.0.7,61.10273326507573,
video/Experiment/zh_sp01_Ad_Ro_4_NoThetaInAudio_GlobalThetaInVideo.avi,noTheta,plusVideo,sp01,Ad,Ro,4,1,3,flow/blocks/NoThetaInAudio_GlobalThetaInVideo_A.csv,,,,,,,,,0,1,1,1,0,8,8,11,,,,,,,,,-0.3726851851851852,0.32083333333333336,1,0,0,5.158254600013606,call1,-0.004629629629629629,-0.1300925925925926,1,0,0,5.806190000032075,colour3,True,True,True,0.4356481481481482,-0.34444444444444444,1,0,0,6.739449599990621,number4,21,1,2019_Nov_14_1707,MA_Theta_Exp,3.0.7,61.10273326507573,
video/Experiment/zh_sp07_Dr_Ge_1_NoThetaInAudio_GlobalThetaInVideo.avi,noTheta,plusVideo,sp07,Dr,Ge,1,1,3,flow/blocks/NoThetaInAudio_GlobalThetaInVideo_A.csv,,,,,,,,,0,1,1,1,0,9,9,16,,,,,,,,,-0.42407407407407405,-0.30833333333333335,1,0,0,4.863350300001912,call4,0.03009259259259259,-0.2953703703703704,1,0,0,6.262230499996804,colour4,False,False,True,0.37175925925925923,0.3,1,0,0,6.891038300003856,number1,21,1,2019_Nov_14_1707,MA_Theta_Exp,3.0.7,61.10273326507573,
video/Experiment/zh_sp01_Dr_We_3_NoThetaInAudio_GlobalThetaInVideo.avi,noTheta,plusVideo,sp01,Dr,We,3,1,3,flow/blocks/NoThetaInAudio_GlobalThetaInVideo_A.csv,,,,,,,,,0,1,1,1,0,10,10,30,,,,,,,,,-0.4351851851851852,0.07824074074074074,1,0,0,5.221798700047657,call2,-0.0060185185185185185,-0.3023148148148148,1,0,0,5.853485399973579,colour4,True,True,True,0.3675925925925926,-0.08888888888888889,1,0,0,6.509452999976929,number3,21,1,2019_Nov_14_1707,MA_Theta_Exp,3.0.7,61.10273326507573,
video/Experiment/zh_sp01_Dr_Ro_2_NoThetaInAudio_GlobalThetaInVideo.avi,noTheta,plusVideo,sp01,Dr,Ro,2,1,3,flow/blocks/NoThetaInAudio_GlobalThetaInVideo_A.csv,,,,,,,,,0,1,1,1,0,11,11,25,,,,,,,,,-0.37407407407407406,0.08333333333333333,1,0,0,5.430668299959507,call2,0.009259259259259259,0.07083333333333333,1,0,0,6.074686000007205,colour2,True,False,True,0.42314814814814816,0.07916666666666666,1,0,0,6.856310200004373,number2,21,1,2019_Nov_14_1707,MA_Theta_Exp,3.0.7,61.10273326507573,
video/Experiment/zh_sp01_Dr_Ge_3_NoThetaInAudio_GlobalThetaInVideo.avi,noTheta,plusVideo,sp01,Dr,Ge,3,1,3,flow/blocks/NoThetaInAudio_GlobalThetaInVideo_A.csv,,,,,,,,,0,1,1,1,0,12,12,18,,,,,,,,,-0.4060185185185185,0.09166666666666666,1,0,0,4.998981800046749,call2,-0.02546296296296296,0.3013888888888889,1,0,0,5.656861800001934,colour1,True,True,True,0.3509259259259259,-0.08009259259259259,1,0,0,6.3548127000103705,number3,21,1,2019_Nov_14_1707,MA_Theta_Exp,3.0.7,61.10273326507573,
video/Experiment/zh_sp07_Ad_We_2_NoThetaInAudio_GlobalThetaInVideo.avi,noTheta,plusVideo,sp07,Ad,We,2,1,3,flow/blocks/NoThetaInAudio_GlobalThetaInVideo_A.csv,,,,,,,,,0,1,1,1,0,13,13,13,,,,,,,,,-0.3921296296296296,0.2986111111111111,1,0,0,5.010558400012087,call1,0.062037037037037036,-0.33287037037037037,1,0,0,5.76549179997528,colour4,True,True,True,0.38564814814814813,0.12777777777777777,1,0,0,6.410357800021302,number2,21,1,2019_Nov_14_1707,MA_Theta_Exp,3.0.7,61.10273326507573,
video/Experiment/zh_sp07_Ad_Ge_2_NoThetaInAudio_GlobalThetaInVideo.avi,noTheta,plusVideo,sp07,Ad,Ge,2,1,3,flow/blocks/NoThetaInAudio_GlobalThetaInVideo_A.csv,,,,,,,,,0,1,1,1,0,14,14,1,,,,,,,,,-0.3976851851851852,0.29444444444444445,1,0,0,5.003206200024579,call1,-0.01990740740740741,0.0824074074074074,1,0,0,5.666299399978016,colour2,True,False,True,0.3925925925925926,0.08611111111111111,1,0,0,6.174811700009741,number2,21,1,2019_Nov_14_1707,MA_Theta_Exp,3.0.7,61.10273326507573,
video/Experiment/zh_sp07_Dr_Ro_1_NoThetaInAudio_GlobalThetaInVideo.avi,noTheta,plusVideo,sp07,Dr,Ro,1,1,3,flow/blocks/NoThetaInAudio_GlobalThetaInVideo_A.csv,,,,,,,,,0,1,1,1,0,15,15,24,,,,,,,,,-0.42824074074074076,0.29444444444444445,1,0,0,4.29556350002531,call1,-0.01712962962962963,-0.11898148148148148,1,0,0,4.862383299972862,colour3,False,True,True,0.32175925925925924,0.29305555555555557,1,0,0,5.581064300029539,number1,21,1,2019_Nov_14_1707,MA_Theta_Exp,3.0.7,61.10273326507573,
video/Experiment/zh_sp01_Dr_Gr_3_NoThetaInAudio_GlobalThetaInVideo.avi,noTheta,plusVideo,sp01,Dr,Gr,3,1,3,flow/blocks/NoThetaInAudio_GlobalThetaInVideo_A.csv,,,,,,,,,0,1,1,1,0,16,16,22,,,,,,,,,-0.37546296296296294,0.10185185185185185,1,0,0,5.0525500000221655,call2,-0.031018518518518518,-0.32592592592592595,1,0,0,5.637220599979628,colour4,True,False,True,0.3939814814814815,-0.12222222222222222,1,0,0,6.177443600026891,number3,21,1,2019_Nov_14_1707,MA_Theta_Exp,3.0.7,61.10273326507573,
video/Experiment/zh_sp07_Ad_Ge_1_NoThetaInAudio_GlobalThetaInVideo.avi,noTheta,plusVideo,sp07,Ad,Ge,1,1,3,flow/blocks/NoThetaInAudio_GlobalThetaInVideo_A.csv,,,,,,,,,0,1,1,1,0,17,17,0,,,,,,,,,-0.4212962962962963,0.2625,1,0,0,4.570837700041011,call1,0.023148148148148147,0.275,1,0,0,5.123919299978297,colour1,True,True,True,0.43287037037037035,0.30694444444444446,1,0,0,5.632083200034685,number1,21,1,2019_Nov_14_1707,MA_Theta_Exp,3.0.7,61.10273326507573,
video/Experiment/zh_sp01_Ad_Ro_2_NoThetaInAudio_GlobalThetaInVideo.avi,noTheta,plusVideo,sp01,Ad,Ro,2,1,3,flow/blocks/NoThetaInAudio_GlobalThetaInVideo_A.csv,,,,,,,,,0,1,1,1,0,18,18,9,,,,,,,,,-0.38796296296296295,0.2671296296296296,1,0,0,5.584773000038695,call1,0.023148148148148147,-0.3800925925925926,1,0,0,6.217800899990834,colour4,True,False,False,0.4425925925925926,0.3263888888888889,1,0,0,6.934120899997652,number1,21,1,2019_Nov_14_1707,MA_Theta_Exp,3.0.7,61.10273326507573,
video/Experiment/zh_sp01_Ad_Ro_3_NoThetaInAudio_GlobalThetaInVideo.avi,noTheta,plusVideo,sp01,Ad,Ro,3,1,3,flow/blocks/NoThetaInAudio_GlobalThetaInVideo_A.csv,,,,,,,,,0,1,1,1,0,19,19,10,,,,,,,,,-0.41712962962962963,0.3111111111111111,1,0,0,5.005527600005735,call1,-0.011574074074074073,-0.12731481481481483,1,0,0,5.685729999968316,colour3,True,True,True,0.48009259259259257,-0.13194444444444445,1,0,0,6.287457900005393,number3,21,1,2019_Nov_14_1707,MA_Theta_Exp,3.0.7,61.10273326507573,
video/Experiment/zh_sp07_Dr_Gr_4_NoThetaInAudio_GlobalThetaInVideo.avi,noTheta,plusVideo,sp07,Dr,Gr,4,1,3,flow/blocks/NoThetaInAudio_GlobalThetaInVideo_A.csv,,,,,,,,,0,1,1,1,0,20,20,23,,,,,,,,,-0.4046296296296296,0.2777777777777778,1,0,0,4.739851999969687,call1,-0.000462962962962963,0.04722222222222222,1,0,0,5.385883699986152,colour2,False,True,True,0.38981481481481484,-0.337037037037037,1,0,0,6.018886799982283,number4,21,1,2019_Nov_14_1707,MA_Theta_Exp,3.0.7,61.10273326507573,
video/Experiment/zh_sp07_Dr_Ro_3_NoThetaInAudio_GlobalThetaInVideo.avi,noTheta,plusVideo,sp07,Dr,Ro,3,1,3,flow/blocks/NoThetaInAudio_GlobalThetaInVideo_A.csv,,,,,,,,,0,1,1,1,0,21,21,26,,,,,,,,,-0.38101851851851853,0.28888888888888886,1,0,0,4.418443400005344,call1,0.04259259259259259,-0.19398148148148148,1,0,0,5.005973999970593,colour3,False,True,False,0.46064814814814814,-0.3763888888888889,1,0,0,5.657154000014998,number4,21,1,2019_Nov_14_1707,MA_Theta_Exp,3.0.7,61.10273326507573,
video/Experiment/zh_sp07_Dr_Gr_1_NoThetaInAudio_GlobalThetaInVideo.avi,noTheta,plusVideo,sp07,Dr,Gr,1,1,3,flow/blocks/NoThetaInAudio_GlobalThetaInVideo_A.csv,,,,,,,,,0,1,1,1,0,22,22,20,,,,,,,,,-0.44351851851851853,0.26666666666666666,1,0,0,4.516255699971225,call1,-0.022685185185185187,0.04490740740740741,1,0,0,5.002906100009568,colour2,False,True,True,0.3537037037037037,0.2986111111111111,1,0,0,5.555630499962717,number1,21,1,2019_Nov_14_1707,MA_Theta_Exp,3.0.7,61.10273326507573,
video/Experiment/zh_sp07_Ad_Ro_1_NoThetaInAudio_GlobalThetaInVideo.avi,noTheta,plusVideo,sp07,Ad,Ro,1,1,3,flow/blocks/NoThetaInAudio_GlobalThetaInVideo_A.csv,,,,,,,,,0,1,1,1,0,23,23,8,,,,,,,,,-0.41435185185185186,0.2902777777777778,1,0,0,4.409540300024673,call1,-0.02962962962962963,-0.08287037037037037,1,0,0,5.153802799992263,colour3,True,True,True,0.3814814814814815,0.3194444444444444,1,0,0,6.055335900047794,number1,21,1,2019_Nov_14_1707,MA_Theta_Exp,3.0.7,61.10273326507573,
video/Experiment/zh_sp01_Ad_Gr_2_NoThetaInAudio_GlobalThetaInVideo.avi,noTheta,plusVideo,sp01,Ad,Gr,2,1,3,flow/blocks/NoThetaInAudio_GlobalThetaInVideo_A.csv,,,,,,,,,0,1,1,1,0,24,24,5,,,,,,,,,-0.3990740740740741,0.27824074074074073,1,0,0,5.462245200003963,call1,0.012037037037037037,0.05555555555555555,1,0,0,6.149186800001189,colour2,True,True,False,0.3578703703703704,0.28055555555555556,1,0,0,6.730919299996458,number1,21,1,2019_Nov_14_1707,MA_Theta_Exp,3.0.7,61.10273326507573,
video/Experiment/zh_sp01_Ad_Gr_1_NoThetaInAudio_GlobalThetaInVideo.avi,noTheta,plusVideo,sp01,Ad,Gr,1,1,3,flow/blocks/NoThetaInAudio_GlobalThetaInVideo_A.csv,,,,,,,,,0,1,1,1,0,25,25,4,,,,,,,,,-0.4185185185185185,0.29305555555555557,1,0,0,5.315732900053263,call1,-0.0032407407407407406,0.10462962962962963,1,0,0,6.068436499976087,colour2,True,True,True,0.449537037037037,0.28194444444444444,1,0,0,6.766348499979358,number1,21,1,2019_Nov_14_1707,MA_Theta_Exp,3.0.7,61.10273326507573,
video/Experiment/zh_sp07_Ad_We_4_NoThetaInAudio_GlobalThetaInVideo.avi,noTheta,plusVideo,sp07,Ad,We,4,1,3,flow/blocks/NoThetaInAudio_GlobalThetaInVideo_A.csv,,,,,,,,,0,1,1,1,0,26,26,15,,,,,,,,,-0.4601851851851852,0.2902777777777778,1,0,0,4.343822800030466,call1,-0.03935185185185185,-0.2800925925925926,1,0,0,5.0935433999984525,colour4,True,True,True,0.3912037037037037,-0.30648148148148147,1,0,0,5.652727300010156,number4,21,1,2019_Nov_14_1707,MA_Theta_Exp,3.0.7,61.10273326507573,
video/Experiment/zh_sp07_Ad_We_3_NoThetaInAudio_GlobalThetaInVideo.avi,noTheta,plusVideo,sp07,Ad,We,3,1,3,flow/blocks/NoThetaInAudio_GlobalThetaInVideo_A.csv,,,,,,,,,0,1,1,1,0,27,27,14,,,,,,,,,-0.39490740740740743,0.3,1,0,0,4.553793700004462,call1,-0.03657407407407407,-0.27870370370370373,1,0,0,5.303469499980565,colour4,True,True,False,0.4023148148148148,-0.31666666666666665,1,0,0,5.965077300032135,number4,21,1,2019_Nov_14_1707,MA_Theta_Exp,3.0.7,61.10273326507573,
video/Experiment/zh_sp07_Dr_We_1_NoThetaInAudio_GlobalThetaInVideo.avi,noTheta,plusVideo,sp07,Dr,We,1,1,3,flow/blocks/NoThetaInAudio_GlobalThetaInVideo_A.csv,,,,,,,,,0,1,1,1,0,28,28,28,,,,,,,,,-0.412962962962963,0.31666666666666665,1,0,0,4.587224300019443,call1,-0.000462962962962963,-0.34675925925925927,1,0,0,5.400132599985227,colour4,False,True,True,0.387037037037037,0.3194444444444444,1,0,0,6.235485400015023,number1,21,1,2019_Nov_14_1707,MA_Theta_Exp,3.0.7,61.10273326507573,
video/Experiment/zh_sp01_Dr_Ge_2_NoThetaInAudio_GlobalThetaInVideo.avi,noTheta,plusVideo,sp01,Dr,Ge,2,1,3,flow/blocks/NoThetaInAudio_GlobalThetaInVideo_A.csv,,,,,,,,,0,1,1,1,0,29,29,17,,,,,,,,,-0.43796296296296294,0.0962962962962963,1,0,0,5.250223900016863,call2,0.037037037037037035,0.07916666666666666,1,0,0,6.237325599999167,colour2,True,False,True,0.4203703703703704,0.10833333333333334,1,0,0,7.120276300003752,number2,21,1,2019_Nov_14_1707,MA_Theta_Exp,3.0.7,61.10273326507573,
video/Experiment/zh_sp01_Dr_We_4_NoThetaInAudio_GlobalThetaInVideo.avi,noTheta,plusVideo,sp01,Dr,We,4,1,3,flow/blocks/NoThetaInAudio_GlobalThetaInVideo_A.csv,,,,,,,,,0,1,1,1,0,30,30,31,,,,,,,,,-0.3976851851851852,0.08333333333333333,1,0,0,5.027479899988975,call2,0.009259259259259259,-0.29259259259259257,1,0,0,5.728342099988367,colour4,True,True,True,0.3925925925925926,-0.3050925925925926,1,0,0,6.5071482000057586,number4,21,1,2019_Nov_14_1707,MA_Theta_Exp,3.0.7,61.10273326507573,
video/Experiment/zh_sp01_Dr_Gr_2_NoThetaInAudio_GlobalThetaInVideo.avi,noTheta,plusVideo,sp01,Dr,Gr,2,1,3,flow/blocks/NoThetaInAudio_GlobalThetaInVideo_A.csv,,,,,,,,,0,1,1,1,0,31,31,21,,,,,,,,,-0.3685185185185185,0.08194444444444444,1,0,0,5.211615999985952,call2,-0.06712962962962964,0.08472222222222223,1,0,0,5.841700199991465,colour2,True,True,True,0.3384259259259259,0.08611111111111111,1,0,0,6.4738536000368185,number2,21,1,2019_Nov_14_1707,MA_Theta_Exp,3.0.7,61.10273326507573,
video/Experiment/zh_sp01_Ad_We_3_GlobalTheta_NoVideo.avi,globalTheta,noVideo,sp01,Ad,We,3,2,5,flow/blocks/GlobalTheta_NoVideo_A.csv,,,,,,,,,0,2,2,2,0,0,0,14,,,,,,,,,-0.43657407407407406,0.2513888888888889,1,0,0,5.690591700025834,call1,-0.04490740740740741,-0.33287037037037037,1,0,0,6.5735985999926925,colour4,True,True,True,0.4412037037037037,-0.14027777777777778,1,0,0,7.361579500022344,number3,21,1,2019_Nov_14_1707,MA_Theta_Exp,3.0.7,61.10273326507573,
video/Experiment/zh_sp01_Ad_Ge_2_GlobalTheta_NoVideo.avi,globalTheta,noVideo,sp01,Ad,Ge,2,2,5,flow/blocks/GlobalTheta_NoVideo_A.csv,,,,,,,,,0,2,2,2,0,1,1,1,,,,,,,,,-0.45046296296296295,0.2611111111111111,1,0,0,5.294377900019754,call1,-0.007407407407407408,0.2611111111111111,1,0,0,5.940936799976043,colour1,True,True,True,0.3939814814814815,0.09074074074074075,1,0,0,6.645701700006612,number2,21,1,2019_Nov_14_1707,MA_Theta_Exp,3.0.7,61.10273326507573,
video/Experiment/zh_sp01_Dr_Gr_2_GlobalTheta_NoVideo.avi,globalTheta,noVideo,sp01,Dr,Gr,2,2,5,flow/blocks/GlobalTheta_NoVideo_A.csv,,,,,,,,,0,2,2,2,0,2,2,21,,,,,,,,,-0.3768518518518518,0.26944444444444443,1,0,0,5.320439199975226,call1,0.027314814814814816,0.06435185185185185,1,0,0,5.93946359999245,colour2,False,True,True,0.41203703703703703,0.0763888888888889,1,0,0,6.592920899973251,number2,21,1,2019_Nov_14_1707,MA_Theta_Exp,3.0.7,61.10273326507573,
video/Experiment/zh_sp07_Dr_Ge_4_GlobalTheta_NoVideo.avi,globalTheta,noVideo,sp07,Dr,Ge,4,2,5,flow/blocks/GlobalTheta_NoVideo_A.csv,,,,,,,,,0,2,2,2,0,3,3,19,,,,,,,,,-0.3962962962962963,0.1486111111111111,1,0,0,4.75913690001471,call2,-0.010185185185185186,0.1486111111111111,1,0,0,5.640494399995077,colour2,True,False,False,0.38287037037037036,0.10740740740740741,1,0,0,6.260076900012791,number2,21,1,2019_Nov_14_1707,MA_Theta_Exp,3.0.7,61.10273326507573,
video/Experiment/zh_sp07_Ad_Gr_3_GlobalTheta_NoVideo.avi,globalTheta,noVideo,sp07,Ad,Gr,3,2,5,flow/blocks/GlobalTheta_NoVideo_A.csv,,,,,,,,,0,2,2,2,0,4,4,6,,,,,,,,,-0.4101851851851852,0.11388888888888889,1,0,0,4.396628599963151,call2,-0.040740740740740744,0.11388888888888889,1,0,0,5.038553900027182,colour2,False,True,True,0.3662037037037037,-0.09953703703703703,1,0,0,5.697888599999715,number3,21,1,2019_Nov_14_1707,MA_Theta_Exp,3.0.7,61.10273326507573,
video/Experiment/zh_sp01_Dr_Gr_3_GlobalTheta_NoVideo.avi,globalTheta,noVideo,sp01,Dr,Gr,3,2,5,flow/blocks/GlobalTheta_NoVideo_A.csv,,,,,,,,,0,2,2,2,0,5,5,22,,,,,,,,,-0.42824074074074076,0.10416666666666667,1,0,0,4.765142599993851,call2,-0.07546296296296297,0.10555555555555556,1,0,0,5.364416399970651,colour2,True,True,True,0.3578703703703704,-0.10648148148148148,1,0,0,6.0029280000017025,number3,21,1,2019_Nov_14_1707,MA_Theta_Exp,3.0.7,61.10273326507573,
video/Experiment/zh_sp01_Ad_Gr_1_GlobalTheta_NoVideo.avi,globalTheta,noVideo,sp01,Ad,Gr,1,2,5,flow/blocks/GlobalTheta_NoVideo_A.csv,,,,,,,,,0,2,2,2,0,6,6,4,,,,,,,,,-0.37824074074074077,0.11157407407407408,1,0,0,5.771906600042712,call2,-0.046296296296296294,0.09490740740740741,1,0,0,6.303644399973564,colour2,False,True,True,0.3773148148148148,0.3194444444444444,1,0,0,6.9236552999936976,number1,21,1,2019_Nov_14_1707,MA_Theta_Exp,3.0.7,61.10273326507573,
video/Experiment/zh_sp07_Ad_We_4_GlobalTheta_NoVideo.avi,globalTheta,noVideo,sp07,Ad,We,4,2,5,flow/blocks/GlobalTheta_NoVideo_A.csv,,,,,,,,,0,2,2,2,0,7,7,15,,,,,,,,,-0.42685185185185187,0.26666666666666666,1,0,0,4.467501100036316,call1,-0.046296296296296294,0.06574074074074074,1,0,0,5.085761499998625,colour2,True,False,True,0.3773148148148148,-0.34120370370370373,1,0,0,5.705605100025423,number4,21,1,2019_Nov_14_1707,MA_Theta_Exp,3.0.7,61.10273326507573,
video/Experiment/zh_sp07_Ad_Ro_3_GlobalTheta_NoVideo.avi,globalTheta,noVideo,sp07,Ad,Ro,3,2,5,flow/blocks/GlobalTheta_NoVideo_A.csv,,,,,,,,,0,2,2,2,0,8,8,10,,,,,,,,,-0.4046296296296296,0.26666666666666666,1,0,0,4.634063200035598,call1,-0.07546296296296297,0.2847222222222222,1,0,0,5.236030699976254,colour1,True,False,True,0.40925925925925927,-0.16898148148148148,1,0,0,5.850686500023585,number3,21,1,2019_Nov_14_1707,MA_Theta_Exp,3.0.7,61.10273326507573,
video/Experiment/zh_sp01_Dr_Ge_3_GlobalTheta_NoVideo.avi,globalTheta,noVideo,sp01,Dr,Ge,3,2,5,flow/blocks/GlobalTheta_NoVideo_A.csv,,,,,,,,,0,2,2,2,0,9,9,18,,,,,,,,,-0.37407407407407406,0.2375,1,0,0,5.27092719997745,call1,-0.046296296296296294,0.2388888888888889,1,0,0,5.8612766999867745,colour1,False,True,True,0.43425925925925923,-0.1398148148148148,1,0,0,6.516172199975699,number3,21,1,2019_Nov_14_1707,MA_Theta_Exp,3.0.7,61.10273326507573,
video/Experiment/zh_sp01_Dr_Ro_3_GlobalTheta_NoVideo.avi,globalTheta,noVideo,sp01,Dr,Ro,3,2,5,flow/blocks/GlobalTheta_NoVideo_A.csv,,,,,,,,,0,2,2,2,0,10,10,26,,,,,,,,,-0.3476851851851852,0.09861111111111111,1,0,0,4.8427146000321954,call2,-0.018518518518518517,0.26944444444444443,1,0,0,5.398194200010039,colour1,True,False,True,0.39675925925925926,-0.1412037037037037,1,0,0,6.01136810000753,number3,21,1,2019_Nov_14_1707,MA_Theta_Exp,3.0.7,61.10273326507573,
video/Experiment/zh_sp01_Ad_We_2_GlobalTheta_NoVideo.avi,globalTheta,noVideo,sp01,Ad,We,2,2,5,flow/blocks/GlobalTheta_NoVideo_A.csv,,,,,,,,,0,2,2,2,0,11,11,13,,,,,,,,,-0.40046296296296297,0.27546296296296297,1,0,0,5.028658299997915,call1,0.04398148148148148,-0.29814814814814816,1,0,0,5.626213399984408,colour4,True,True,True,0.36064814814814816,0.08194444444444444,1,0,0,6.339410299959127,number2,21,1,2019_Nov_14_1707,MA_Theta_Exp,3.0.7,61.10273326507573,
video/Experiment/zh_sp01_Dr_Ro_2_GlobalTheta_NoVideo.avi,globalTheta,noVideo,sp01,Dr,Ro,2,2,5,flow/blocks/GlobalTheta_NoVideo_A.csv,,,,,,,,,0,2,2,2,0,12,12,25,,,,,,,,,-0.4060185185185185,0.25416666666666665,1,0,0,5.329503200016916,call1,0.003703703703703704,-0.36898148148148147,1,0,0,6.161221699963789,colour4,False,False,True,0.3592592592592593,0.08055555555555556,1,0,0,6.928396600007545,number2,21,1,2019_Nov_14_1707,MA_Theta_Exp,3.0.7,61.10273326507573,
video/Experiment/zh_sp07_Dr_Ge_2_GlobalTheta_NoVideo.avi,globalTheta,noVideo,sp07,Dr,Ge,2,2,5,flow/blocks/GlobalTheta_NoVideo_A.csv,,,,,,,,,0,2,2,2,0,13,13,17,,,,,,,,,-0.3699074074074074,0.2638888888888889,1,0,0,4.870927799958736,call1,0.04398148148148148,0.2791666666666667,1,0,0,5.487002100038808,colour1,False,True,True,0.3787037037037037,0.06296296296296296,1,0,0,6.160262199991848,number2,21,1,2019_Nov_14_1707,MA_Theta_Exp,3.0.7,61.10273326507573,
video/Experiment/zh_sp07_Ad_Ro_2_GlobalTheta_NoVideo.avi,globalTheta,noVideo,sp07,Ad,Ro,2,2,5,flow/blocks/GlobalTheta_NoVideo_A.csv,,,,,,,,,0,2,2,2,0,14,14,9,,,,,,,,,-0.38657407407407407,0.25462962962962965,1,0,0,4.561469300009776,call1,0.023148148148148147,0.25277777777777777,1,0,0,5.455936800048221,colour1,True,False,True,0.41064814814814815,0.08935185185185185,1,0,0,6.104290699993726,number2,21,1,2019_Nov_14_1707,MA_Theta_Exp,3.0.7,61.10273326507573,
video/Experiment/zh_sp07_Dr_We_3_GlobalTheta_NoVideo.avi,globalTheta,noVideo,sp07,Dr,We,3,2,5,flow/blocks/GlobalTheta_NoVideo_A.csv,,,,,,,,,0,2,2,2,0,15,15,30,,,,,,,,,-0.3921296296296296,0.2791666666666667,1,0,0,5.423659499967471,call1,0.025925925925925925,0.06851851851851852,1,0,0,6.069196099997498,colour2,False,False,False,0.4023148148148148,-0.2967592592592593,1,0,0,6.660544699989259,number4,21,1,2019_Nov_14_1707,MA_Theta_Exp,3.0.7,61.10273326507573,
video/Experiment/zh_sp01_Dr_We_2_GlobalTheta_NoVideo.avi,globalTheta,noVideo,sp01,Dr,We,2,2,5,flow/blocks/GlobalTheta_NoVideo_A.csv,,,,,,,,,0,2,2,2,0,16,16,29,,,,,,,,,-0.38796296296296295,0.24583333333333332,1,0,0,5.243297600012738,call1,0.0023148148148148147,-0.337037037037037,1,0,0,6.004293200036045,colour4,False,True,True,0.3773148148148148,0.11805555555555555,1,0,0,6.890631199989002,number2,21,1,2019_Nov_14_1707,MA_Theta_Exp,3.0.7,61.10273326507573,
video/Experiment/zh_sp07_Dr_Gr_4_GlobalTheta_NoVideo.avi,globalTheta,noVideo,sp07,Dr,Gr,4,2,5,flow/blocks/GlobalTheta_NoVideo_A.csv,,,,,,,,,0,2,2,2,0,17,17,23,,,,,,,,,-0.4185185185185185,0.25833333333333336,1,0,0,4.346083200012799,call1,-0.03796296296296296,0.06712962962962964,1,0,0,4.964985799975693,colour2,False,True,False,0.4425925925925926,-0.14166666666666666,1,0,0,5.745978300052229,number3,21,1,2019_Nov_14_1707,MA_Theta_Exp,3.0.7,61.10273326507573,
video/Experiment/zh_sp07_Ad_Ro_1_GlobalTheta_NoVideo.avi,globalTheta,noVideo,sp07,Ad,Ro,1,2,5,flow/blocks/GlobalTheta_NoVideo_A.csv,,,,,,,,,0,2,2,2,0,18,18,8,,,,,,,,,-0.38935185185185184,0.25833333333333336,1,0,0,4.459174100018572,call1,0.023148148148148147,0.2861111111111111,1,0,0,5.023599100008141,colour1,True,False,True,0.40370370370370373,0.29583333333333334,1,0,0,5.608122200006619,number1,21,1,2019_Nov_14_1707,MA_Theta_Exp,3.0.7,61.10273326507573,
video/Experiment/zh_sp01_Dr_Gr_1_GlobalTheta_NoVideo.avi,globalTheta,noVideo,sp01,Dr,Gr,1,2,5,flow/blocks/GlobalTheta_NoVideo_A.csv,,,,,,,,,0,2,2,2,0,19,19,20,,,,,,,,,-0.42407407407407405,0.0875,1,0,0,5.027937099977862,call2,-0.03935185185185185,0.09861111111111111,1,0,0,5.564664899953641,colour2,True,True,True,0.38425925925925924,0.2625,1,0,0,6.121883100015111,number1,21,1,2019_Nov_14_1707,MA_Theta_Exp,3.0.7,61.10273326507573,
video/Experiment/zh_sp01_Ad_Ge_3_GlobalTheta_NoVideo.avi,globalTheta,noVideo,sp01,Ad,Ge,3,2,5,flow/blocks/GlobalTheta_NoVideo_A.csv,,,,,,,,,0,2,2,2,0,20,20,2,,,,,,,,,-0.42962962962962964,0.2763888888888889,1,0,0,5.353326099982951,call1,-0.022685185185185187,0.3013888888888889,1,0,0,6.093442299985327,colour1,True,True,True,0.4287037037037037,-0.1537037037037037,1,0,0,6.87571570003638,number3,21,1,2019_Nov_14_1707,MA_Theta_Exp,3.0.7,61.10273326507573,
video/Experiment/zh_sp07_Dr_We_4_GlobalTheta_NoVideo.avi,globalTheta,noVideo,sp07,Dr,We,4,2,5,flow/blocks/GlobalTheta_NoVideo_A.csv,,,,,,,,,0,2,2,2,0,21,21,31,,,,,,,,,-0.41435185185185186,0.25972222222222224,1,0,0,4.778195600025356,call1,-0.01574074074074074,-0.29398148148148145,1,0,0,5.535551999986637,colour4,False,True,False,0.43287037037037035,-0.1361111111111111,1,0,0,6.142868900031317,number3,21,1,2019_Nov_14_1707,MA_Theta_Exp,3.0.7,61.10273326507573,
video/Experiment/zh_sp01_Dr_Ro_1_GlobalTheta_NoVideo.avi,globalTheta,noVideo,sp01,Dr,Ro,1,2,5,flow/blocks/GlobalTheta_NoVideo_A.csv,,,,,,,,,0,2,2,2,0,22,22,24,,,,,,,,,-0.36435185185185187,0.0763888888888889,1,0,0,5.5500635000062175,call2,0.03425925925925926,0.09861111111111111,1,0,0,6.340944900002796,colour2,True,False,True,0.42314814814814816,0.3055555555555556,1,0,0,7.15708849998191,number1,21,1,2019_Nov_14_1707,MA_Theta_Exp,3.0.7,61.10273326507573,
video/Experiment/zh_sp07_Dr_Ge_1_GlobalTheta_NoVideo.avi,globalTheta,noVideo,sp07,Dr,Ge,1,2,5,flow/blocks/GlobalTheta_NoVideo_A.csv,,,,,,,,,0,2,2,2,0,23,23,16,,,,,,,,,-0.39351851851851855,0.26666666666666666,1,0,0,5.52466260001529,call1,0.003703703703703704,0.27361111111111114,1,0,0,6.1476697999751195,colour1,False,True,True,0.34675925925925927,0.28055555555555556,1,0,0,6.683255499985535,number1,21,1,2019_Nov_14_1707,MA_Theta_Exp,3.0.7,61.10273326507573,
video/Experiment/zh_sp07_Ad_Ge_4_GlobalTheta_NoVideo.avi,globalTheta,noVideo,sp07,Ad,Ge,4,2,5,flow/blocks/GlobalTheta_NoVideo_A.csv,,,,,,,,,0,2,2,2,0,24,24,3,,,,,,,,,-0.37546296296296294,0.24583333333333332,1,0,0,5.668797899968922,call1,-0.03518518518518519,0.05555555555555555,1,0,0,7.419754700036719,colour2,True,False,True,0.3189814814814815,-0.27870370370370373,1,0,0,7.917161499965005,number4,21,1,2019_Nov_14_1707,MA_Theta_Exp,3.0.7,61.10273326507573,
video/Experiment/zh_sp01_Ad_Ge_1_GlobalTheta_NoVideo.avi,globalTheta,noVideo,sp01,Ad,Ge,1,2,5,flow/blocks/GlobalTheta_NoVideo_A.csv,,,,,,,,,0,2,2,2,0,25,25,0,,,,,,,,,-0.3921296296296296,0.25972222222222224,1,0,0,5.554528600012418,call1,-0.024074074074074074,0.2611111111111111,1,0,0,6.251872300053947,colour1,True,True,True,0.38287037037037036,0.3194444444444444,1,0,0,7.010745000035968,number1,21,1,2019_Nov_14_1707,MA_Theta_Exp,3.0.7,61.10273326507573,
video/Experiment/zh_sp07_Ad_Gr_2_GlobalTheta_NoVideo.avi,globalTheta,noVideo,sp07,Ad,Gr,2,2,5,flow/blocks/GlobalTheta_NoVideo_A.csv,,,,,,,,,0,2,2,2,0,26,26,5,,,,,,,,,-0.40324074074074073,0.29305555555555557,1,0,0,5.196451900003012,call1,0.037037037037037035,0.08518518518518518,1,0,0,5.897911500011105,colour2,True,True,False,0.4356481481481482,0.3194444444444444,1,0,0,6.705500399984885,number1,21,1,2019_Nov_14_1707,MA_Theta_Exp,3.0.7,61.10273326507573,
video/Experiment/zh_sp01_Dr_We_1_GlobalTheta_NoVideo.avi,globalTheta,noVideo,sp01,Dr,We,1,2,5,flow/blocks/GlobalTheta_NoVideo_A.csv,,,,,,,,,0,2,2,2,0,27,27,28,,,,,,,,,-0.3726851851851852,0.08101851851851852,1,0,0,4.938308399985544,call2,-0.010185185185185186,-0.3425925925925926,1,0,0,5.695519600005355,colour4,True,True,True,0.41064814814814815,0.24861111111111112,1,0,0,6.593435699993279,number1,21,1,2019_Nov_14_1707,MA_Theta_Exp,3.0.7,61.10273326507573,
video/Experiment/zh_sp07_Dr_Ro_4_GlobalTheta_NoVideo.avi,globalTheta,noVideo,sp07,Dr,Ro,4,2,5,flow/blocks/GlobalTheta_NoVideo_A.csv,,,,,,,,,0,2,2,2,0,28,28,27,,,,,,,,,-0.40185185185185185,0.2777777777777778,1,0,0,5.081990099977702,call1,0.00787037037037037,0.2986111111111111,1,0,0,6.145712200028356,colour1,False,False,True,0.399537037037037,-0.3537037037037037,1,0,0,6.810023800004274,number4,21,1,2019_Nov_14_1707,MA_Theta_Exp,3.0.7,61.10273326507573,
video/Experiment/zh_sp07_Ad_We_1_GlobalTheta_NoVideo.avi,globalTheta,noVideo,sp07,Ad,We,1,2,5,flow/blocks/GlobalTheta_NoVideo_A.csv,,,,,,,,,0,2,2,2,0,29,29,12,,,,,,,,,-0.41574074074074074,0.27361111111111114,1,0,0,4.107691399985924,call1,-0.01574074074074074,-0.3050925925925926,1,0,0,4.781429700029548,colour4,True,True,True,0.41759259259259257,0.28194444444444444,1,0,0,5.8211256000213325,number1,21,1,2019_Nov_14_1707,MA_Theta_Exp,3.0.7,61.10273326507573,
video/Experiment/zh_sp07_Ad_Gr_4_GlobalTheta_NoVideo.avi,globalTheta,noVideo,sp07,Ad,Gr,4,2,5,flow/blocks/GlobalTheta_NoVideo_A.csv,,,,,,,,,0,2,2,2,0,30,30,7,,,,,,,,,-0.41435185185185186,0.3,1,0,0,4.346276199968997,call1,0.017592592592592594,0.05555555555555555,1,0,0,4.927964300033636,colour2,True,True,True,0.4356481481481482,-0.37037037037037035,1,0,0,5.602486499992665,number4,21,1,2019_Nov_14_1707,MA_Theta_Exp,3.0.7,61.10273326507573,
video/Experiment/zh_sp01_Ad_Ro_4_GlobalTheta_NoVideo.avi,globalTheta,noVideo,sp01,Ad,Ro,4,2,5,flow/blocks/GlobalTheta_NoVideo_A.csv,,,,,,,,,0,2,2,2,0,31,31,11,,,,,,,,,-0.38657407407407407,0.3347222222222222,1,0,0,5.1944321999908425,call1,0.025925925925925925,-0.1037037037037037,1,0,0,5.863394799991511,colour3,True,True,True,0.4217592592592593,-0.33425925925925926,1,0,0,6.556343499978539,number4,21,1,2019_Nov_14_1707,MA_Theta_Exp,3.0.7,61.10273326507573,
video/Experiment/zh_sp07_Ad_Ro_3_NVocInAudio_GlobalThetaInVideo.avi,vocoded,plusVideo,sp07,Ad,Ro,3,3,1,flow/blocks/NVocInAudio_GlobalThetaInVideo_A.csv,,,,,,,,,0,3,3,3,0,0,0,10,,,,,,,,,-0.4046296296296296,0.2847222222222222,1,0,0,4.855842299992219,call1,-0.004629629629629629,-0.11898148148148148,1,0,0,5.641967799980193,colour3,True,True,True,0.4412037037037037,-0.12222222222222222,1,0,0,6.291535800031852,number3,21,1,2019_Nov_14_1707,MA_Theta_Exp,3.0.7,61.10273326507573,
video/Experiment/zh_sp07_Ad_Ro_2_NVocInAudio_GlobalThetaInVideo.avi,vocoded,plusVideo,sp07,Ad,Ro,2,3,1,flow/blocks/NVocInAudio_GlobalThetaInVideo_A.csv,,,,,,,,,0,3,3,3,0,1,1,9,,,,,,,,,-0.40324074074074073,0.2569444444444444,1,0,0,4.566935500013642,call1,0.024537037037037038,-0.09398148148148149,1,0,0,5.28276980004739,colour3,True,True,True,0.3814814814814815,0.08611111111111111,1,0,0,5.988823699997738,number2,21,1,2019_Nov_14_1707,MA_Theta_Exp,3.0.7,61.10273326507573,
video/Experiment/zh_sp01_Ad_We_4_NVocInAudio_GlobalThetaInVideo.avi,vocoded,plusVideo,sp01,Ad,We,4,3,1,flow/blocks/NVocInAudio_GlobalThetaInVideo_A.csv,,,,,,,,,0,3,3,3,0,2,2,15,,,,,,,,,-0.3976851851851852,0.25833333333333336,1,0,0,5.049171099963132,call1,0.023148148148148147,-0.31203703703703706,1,0,0,5.7651390000246465,colour4,True,True,True,0.39814814814814814,-0.3023148148148148,1,0,0,6.411133699992206,number4,21,1,2019_Nov_14_1707,MA_Theta_Exp,3.0.7,61.10273326507573,
video/Experiment/zh_sp07_Ad_We_1_NVocInAudio_GlobalThetaInVideo.avi,vocoded,plusVideo,sp07,Ad,We,1,3,1,flow/blocks/NVocInAudio_GlobalThetaInVideo_A.csv,,,,,,,,,0,3,3,3,0,3,3,12,,,,,,,,,-0.4699074074074074,0.32222222222222224,1,0,0,4.4240185000235215,call1,-0.0060185185185185185,-0.34675925925925927,1,0,0,5.1231979000149295,colour4,True,True,True,0.4134259259259259,0.2986111111111111,1,0,0,5.874324100033846,number1,21,1,2019_Nov_14_1707,MA_Theta_Exp,3.0.7,61.10273326507573,
video/Experiment/zh_sp07_Dr_Gr_3_NVocInAudio_GlobalThetaInVideo.avi,vocoded,plusVideo,sp07,Dr,Gr,3,3,1,flow/blocks/NVocInAudio_GlobalThetaInVideo_A.csv,,,,,,,,,0,3,3,3,0,4,4,22,,,,,,,,,-0.40879629629629627,0.09212962962962963,1,0,0,4.387990600022022,call2,-0.03657407407407407,0.08796296296296297,1,0,0,5.037992300000042,colour2,True,True,True,0.42592592592592593,-0.11898148148148148,1,0,0,5.6178763000061736,number3,21,1,2019_Nov_14_1707,MA_Theta_Exp,3.0.7,61.10273326507573,
video/Experiment/zh_sp01_Ad_Gr_2_NVocInAudio_GlobalThetaInVideo.avi,vocoded,plusVideo,sp01,Ad,Gr,2,3,1,flow/blocks/NVocInAudio_GlobalThetaInVideo_A.csv,,,,,,,,,0,3,3,3,0,5,5,5,,,,,,,,,-0.43796296296296294,0.2708333333333333,1,0,0,5.330928799987305,call1,-0.021296296296296296,0.03333333333333333,1,0,0,6.379996100033168,colour2,True,True,True,0.38842592592592595,0.08333333333333333,1,0,0,6.925894199986942,number2,21,1,2019_Nov_14_1707,MA_Theta_Exp,3.0.7,61.10273326507573,
video/Experiment/zh_sp01_Dr_We_2_NVocInAudio_GlobalThetaInVideo.avi,vocoded,plusVideo,sp01,Dr,We,2,3,1,flow/blocks/NVocInAudio_GlobalThetaInVideo_A.csv,,,,,,,,,0,3,3,3,0,6,6,29,,,,,,,,,-0.44907407407407407,0.10462962962962963,1,0,0,5.145053499960341,call2,0.006481481481481481,-0.35648148148148145,1,0,0,5.859133500023745,colour4,True,True,True,0.38842592592592595,0.10277777777777777,1,0,0,6.521873400022741,number2,21,1,2019_Nov_14_1707,MA_Theta_Exp,3.0.7,61.10273326507573,
video/Experiment/zh_sp07_Dr_We_1_NVocInAudio_GlobalThetaInVideo.avi,vocoded,plusVideo,sp07,Dr,We,1,3,1,flow/blocks/NVocInAudio_GlobalThetaInVideo_A.csv,,,,,,,,,0,3,3,3,0,7,7,28,,,,,,,,,-0.45601851851851855,0.0875,1,0,0,4.41892279998865,call2,-0.01712962962962963,-0.32175925925925924,1,0,0,5.056192799995188,colour4,True,True,True,0.4148148148148148,0.3125,1,0,0,5.722838799993042,number1,21,1,2019_Nov_14_1707,MA_Theta_Exp,3.0.7,61.10273326507573,
video/Experiment/zh_sp01_Ad_Gr_4_NVocInAudio_GlobalThetaInVideo.avi,vocoded,plusVideo,sp01,Ad,Gr,4,3,1,flow/blocks/NVocInAudio_GlobalThetaInVideo_A.csv,,,,,,,,,0,3,3,3,0,8,8,7,,,,,,,,,-0.42407407407407405,0.2902777777777778,1,0,0,5.506284300005063,call1,-0.0699074074074074,0.046296296296296294,1,0,0,6.085968899948057,colour2,True,True,True,0.37453703703703706,-0.32592592592592595,1,0,0,6.772780100000091,number4,21,1,2019_Nov_14_1707,MA_Theta_Exp,3.0.7,61.10273326507573,
video/Experiment/zh_sp01_Ad_We_3_NVocInAudio_GlobalThetaInVideo.avi,vocoded,plusVideo,sp01,Ad,We,3,3,1,flow/blocks/NVocInAudio_GlobalThetaInVideo_A.csv,,,,,,,,,0,3,3,3,0,9,9,14,,,,,,,,,-0.4074074074074074,0.2986111111111111,1,0,0,5.450424000038765,call1,0.003703703703703704,-0.33611111111111114,1,0,0,6.289232400013134,colour4,True,True,True,0.39537037037037037,-0.12916666666666668,1,0,0,7.185472700046375,number3,21,1,2019_Nov_14_1707,MA_Theta_Exp,3.0.7,61.10273326507573,
video/Experiment/zh_sp01_Ad_Ge_2_NVocInAudio_GlobalThetaInVideo.avi,vocoded,plusVideo,sp01,Ad,Ge,2,3,1,flow/blocks/NVocInAudio_GlobalThetaInVideo_A.csv,,,,,,,,,0,3,3,3,0,10,10,1,,,,,,,,,-0.40185185185185185,0.3013888888888889,1,0,0,5.147165299975313,call1,0.000925925925925926,0.2949074074074074,1,0,0,5.896057499980088,colour1,True,True,True,0.43842592592592594,0.1310185185185185,1,0,0,6.654604899988044,number2,21,1,2019_Nov_14_1707,MA_Theta_Exp,3.0.7,61.10273326507573,
video/Experiment/zh_sp07_Dr_We_3_NVocInAudio_GlobalThetaInVideo.avi,vocoded,plusVideo,sp07,Dr,We,3,3,1,flow/blocks/NVocInAudio_GlobalThetaInVideo_A.csv,,,,,,,,,0,3,3,3,0,11,11,30,,,,,,,,,-0.4199074074074074,0.10740740740740741,1,0,0,4.380960099981166,call2,-0.000462962962962963,-0.3384259259259259,1,0,0,5.027488199993968,colour4,True,True,True,0.41898148148148145,-0.14953703703703702,1,0,0,5.827712900005281,number3,21,1,2019_Nov_14_1707,MA_Theta_Exp,3.0.7,61.10273326507573,
video/Experiment/zh_sp01_Dr_Gr_1_NVocInAudio_GlobalThetaInVideo.avi,vocoded,plusVideo,sp01,Dr,Gr,1,3,1,flow/blocks/NVocInAudio_GlobalThetaInVideo_A.csv,,,,,,,,,0,3,3,3,0,12,12,20,,,,,,,,,-0.38935185185185184,0.10972222222222222,1,0,0,5.2261189999990165,call2,-0.000462962962962963,0.08935185185185185,1,0,0,5.890707699989434,colour2,True,True,True,0.3439814814814815,0.29583333333333334,1,0,0,6.606668299995363,number1,21,1,2019_Nov_14_1707,MA_Theta_Exp,3.0.7,61.10273326507573,
video/Experiment/zh_sp01_Dr_Ro_3_NVocInAudio_GlobalThetaInVideo.avi,vocoded,plusVideo,sp01,Dr,Ro,3,3,1,flow/blocks/NVocInAudio_GlobalThetaInVideo_A.csv,,,,,,,,,0,3,3,3,0,13,13,26,,,,,,,,,-0.45046296296296295,0.10138888888888889,1,0,0,5.398108199995477,call2,-0.032407407407407406,0.09074074074074075,1,0,0,6.428937999997288,colour2,True,False,True,0.3939814814814815,-0.11481481481481481,1,0,0,7.1823507999652065,number3,21,1,2019_Nov_14_1707,MA_Theta_Exp,3.0.7,61.10273326507573,
video/Experiment/zh_sp07_Ad_Gr_3_NVocInAudio_GlobalThetaInVideo.avi,vocoded,plusVideo,sp07,Ad,Gr,3,3,1,flow/blocks/NVocInAudio_GlobalThetaInVideo_A.csv,,,,,,,,,0,3,3,3,0,14,14,6,,,,,,,,,-0.3962962962962963,0.28055555555555556,1,0,0,4.507004200015217,call1,0.009259259259259259,0.06851851851851852,1,0,0,5.028017300006468,colour2,True,True,True,0.39675925925925926,-0.12453703703703704,1,0,0,5.6612826000200585,number3,21,1,2019_Nov_14_1707,MA_Theta_Exp,3.0.7,61.10273326507573,
video/Experiment/zh_sp07_Ad_Gr_1_NVocInAudio_GlobalThetaInVideo.avi,vocoded,plusVideo,sp07,Ad,Gr,1,3,1,flow/blocks/NVocInAudio_GlobalThetaInVideo_A.csv,,,,,,,,,0,3,3,3,0,15,15,4,,,,,,,,,-0.4699074074074074,0.28888888888888886,1,0,0,5.156867699988652,call1,-0.024074074074074074,0.08101851851851852,1,0,0,5.685669999977108,colour2,True,True,True,0.4064814814814815,0.2902777777777778,1,0,0,6.3338417000486515,number1,21,1,2019_Nov_14_1707,MA_Theta_Exp,3.0.7,61.10273326507573,
video/Experiment/zh_sp01_Ad_We_2_NVocInAudio_GlobalThetaInVideo.avi,vocoded,plusVideo,sp01,Ad,We,2,3,1,flow/blocks/NVocInAudio_GlobalThetaInVideo_A.csv,,,,,,,,,0,3,3,3,0,16,16,13,,,,,,,,,-0.41435185185185186,0.30694444444444446,1,0,0,4.959898500004783,call1,0.013425925925925926,-0.29259259259259257,1,0,0,5.596234099997673,colour4,True,True,True,0.46064814814814814,0.1587962962962963,1,0,0,6.321430200012401,number2,21,1,2019_Nov_14_1707,MA_Theta_Exp,3.0.7,61.10273326507573,
video/Experiment/zh_sp07_Dr_Ro_4_NVocInAudio_GlobalThetaInVideo.avi,vocoded,plusVideo,sp07,Dr,Ro,4,3,1,flow/blocks/NVocInAudio_GlobalThetaInVideo_A.csv,,,,,,,,,0,3,3,3,0,17,17,27,,,,,,,,,-0.4212962962962963,0.08055555555555556,1,0,0,4.51727110001957,call2,0.038425925925925926,-0.13842592592592592,1,0,0,5.1503648000070825,colour3,True,True,False,0.4078703703703704,0.05138888888888889,1,0,0,6.0695116999559104,number2,21,1,2019_Nov_14_1707,MA_Theta_Exp,3.0.7,61.10273326507573,
video/Experiment/zh_sp07_Ad_Ro_4_NVocInAudio_GlobalThetaInVideo.avi,vocoded,plusVideo,sp07,Ad,Ro,4,3,1,flow/blocks/NVocInAudio_GlobalThetaInVideo_A.csv,,,,,,,,,0,3,3,3,0,18,18,11,,,,,,,,,-0.425462962962963,0.28379629629629627,1,0,0,4.682913700002246,call1,0.017592592592592594,-0.10787037037037037,1,0,0,5.519668699998874,colour3,True,True,True,0.40370370370370373,-0.3023148148148148,1,0,0,6.151573300012387,number4,21,1,2019_Nov_14_1707,MA_Theta_Exp,3.0.7,61.10273326507573,
video/Experiment/zh_sp07_Ad_Ge_1_NVocInAudio_GlobalThetaInVideo.avi,vocoded,plusVideo,sp07,Ad,Ge,1,3,1,flow/blocks/NVocInAudio_GlobalThetaInVideo_A.csv,,,,,,,,,0,3,3,3,0,19,19,0,,,,,,,,,-0.39490740740740743,0.2708333333333333,1,0,0,4.60806490003597,call1,-0.024074074074074074,0.2833333333333333,1,0,0,5.108911400020588,colour1,True,True,True,0.3592592592592593,0.29583333333333334,1,0,0,5.604742099996656,number1,21,1,2019_Nov_14_1707,MA_Theta_Exp,3.0.7,61.10273326507573,
video/Experiment/zh_sp07_Dr_Ge_4_NVocInAudio_GlobalThetaInVideo.avi,vocoded,plusVideo,sp07,Dr,Ge,4,3,1,flow/blocks/NVocInAudio_GlobalThetaInVideo_A.csv,,,,,,,,,0,3,3,3,0,20,20,19,,,,,,,,,-0.4462962962962963,0.09861111111111111,1,0,0,4.58789500000421,call2,-0.05185185185185185,0.2791666666666667,1,0,0,5.123921399994288,colour1,True,True,True,0.399537037037037,-0.3578703703703704,1,0,0,5.823333299951628,number4,21,1,2019_Nov_14_1707,MA_Theta_Exp,3.0.7,61.10273326507573,
video/Experiment/zh_sp07_Ad_Ge_3_NVocInAudio_GlobalThetaInVideo.avi,vocoded,plusVideo,sp07,Ad,Ge,3,3,1,flow/blocks/NVocInAudio_GlobalThetaInVideo_A.csv,,,,,,,,,0,3,3,3,0,21,21,2,,,,,,,,,-0.40324074074074073,0.2875,1,0,0,4.7806600999902,call1,-0.010185185185185186,0.29583333333333334,1,0,0,5.595473999972455,colour1,True,True,True,0.36898148148148147,-0.14675925925925926,1,0,0,6.214208999997936,number3,21,1,2019_Nov_14_1707,MA_Theta_Exp,3.0.7,61.10273326507573,
video/Experiment/zh_sp07_Ad_Ro_1_NVocInAudio_GlobalThetaInVideo.avi,vocoded,plusVideo,sp07,Ad,Ro,1,3,1,flow/blocks/NVocInAudio_GlobalThetaInVideo_A.csv,,,,,,,,,0,3,3,3,0,22,22,8,,,,,,,,,-0.42407407407407405,0.2851851851851852,1,0,0,4.175362400012091,call1,0.05092592592592592,-0.14814814814814814,1,0,0,4.73072630004026,colour3,True,True,True,0.32314814814814813,0.25277777777777777,1,0,0,5.225353099987842,number1,21,1,2019_Nov_14_1707,MA_Theta_Exp,3.0.7,61.10273326507573,
video/Experiment/zh_sp07_Dr_Ro_1_NVocInAudio_GlobalThetaInVideo.avi,vocoded,plusVideo,sp07,Dr,Ro,1,3,1,flow/blocks/NVocInAudio_GlobalThetaInVideo_A.csv,,,,,,,,,0,3,3,3,0,23,23,24,,,,,,,,,-0.37546296296296294,0.13657407407407407,1,0,0,4.35174700000789,call2,0.02175925925925926,-0.1550925925925926,1,0,0,4.86600229999749,colour3,True,True,True,0.3648148148148148,0.2972222222222222,1,0,0,5.4829829999944195,number1,21,1,2019_Nov_14_1707,MA_Theta_Exp,3.0.7,61.10273326507573,
video/Experiment/zh_sp01_Dr_Gr_2_NVocInAudio_GlobalThetaInVideo.avi,vocoded,plusVideo,sp01,Dr,Gr,2,3,1,flow/blocks/NVocInAudio_GlobalThetaInVideo_A.csv,,,,,,,,,0,3,3,3,0,24,24,21,,,,,,,,,-0.3837962962962963,0.08055555555555556,1,0,0,5.080389500013553,call2,-0.06018518518518518,0.1,1,0,0,5.613674199965317,colour2,True,True,True,0.449537037037037,0.09722222222222222,1,0,0,6.1474434999981895,number2,21,1,2019_Nov_14_1707,MA_Theta_Exp,3.0.7,61.10273326507573,
video/Experiment/zh_sp01_Dr_Ge_1_NVocInAudio_GlobalThetaInVideo.avi,vocoded,plusVideo,sp01,Dr,Ge,1,3,1,flow/blocks/NVocInAudio_GlobalThetaInVideo_A.csv,,,,,,,,,0,3,3,3,0,25,25,16,,,,,,,,,-0.3976851851851852,0.09490740740740741,1,0,0,4.963046399992891,call2,-0.010185185185185186,0.2916666666666667,1,0,0,5.533543600002304,colour1,True,True,True,0.39814814814814814,0.31527777777777777,1,0,0,6.081858000019565,number1,21,1,2019_Nov_14_1707,MA_Theta_Exp,3.0.7,61.10273326507573,
video/Experiment/zh_sp01_Dr_Ro_2_NVocInAudio_GlobalThetaInVideo.avi,vocoded,plusVideo,sp01,Dr,Ro,2,3,1,flow/blocks/NVocInAudio_GlobalThetaInVideo_A.csv,,,,,,,,,0,3,3,3,0,26,26,25,,,,,,,,,-0.40879629629629627,0.08518518518518518,1,0,0,5.301374799979385,call2,-0.02546296296296296,-0.1537037037037037,1,0,0,5.8426615000353195,colour3,True,True,True,0.35648148148148145,0.08194444444444444,1,0,0,6.389988999988418,number2,21,1,2019_Nov_14_1707,MA_Theta_Exp,3.0.7,61.10273326507573,
video/Experiment/zh_sp01_Dr_Ge_2_NVocInAudio_GlobalThetaInVideo.avi,vocoded,plusVideo,sp01,Dr,Ge,2,3,1,flow/blocks/NVocInAudio_GlobalThetaInVideo_A.csv,,,,,,,,,0,3,3,3,0,27,27,17,,,,,,,,,-0.40879629629629627,0.09305555555555556,1,0,0,5.043784000037704,call2,0.01898148148148148,0.2916666666666667,1,0,0,5.5660931000020355,colour1,True,True,True,0.40925925925925927,0.11018518518518519,1,0,0,6.100264299951959,number2,21,1,2019_Nov_14_1707,MA_Theta_Exp,3.0.7,61.10273326507573,
video/Experiment/zh_sp01_Dr_Gr_4_NVocInAudio_GlobalThetaInVideo.avi,vocoded,plusVideo,sp01,Dr,Gr,4,3,1,flow/blocks/NVocInAudio_GlobalThetaInVideo_A.csv,,,,,,,,,0,3,3,3,0,28,28,23,,,,,,,,,-0.40185185185185185,0.0824074074074074,1,0,0,5.0745328000048175,call2,-0.024074074074074074,0.08101851851851852,1,0,0,5.555889400013257,colour2,True,True,True,0.4203703703703704,-0.33425925925925926,1,0,0,6.27905130002182,number4,21,1,2019_Nov_14_1707,MA_Theta_Exp,3.0.7,61.10273326507573,
video/Experiment/zh_sp07_Dr_Ge_3_NVocInAudio_GlobalThetaInVideo.avi,vocoded,plusVideo,sp07,Dr,Ge,3,3,1,flow/blocks/NVocInAudio_GlobalThetaInVideo_A.csv,,,,,,,,,0,3,3,3,0,29,29,18,,,,,,,,,-0.37546296296296294,0.09305555555555556,1,0,0,4.500082199985627,call2,-0.0587962962962963,0.29305555555555557,1,0,0,5.0293755999882706,colour1,True,True,True,0.4703703703703704,-0.18425925925925926,1,0,0,5.612545499985572,number3,21,1,2019_Nov_14_1707,MA_Theta_Exp,3.0.7,61.10273326507573,
video/Experiment/zh_sp01_Ad_Ge_4_NVocInAudio_GlobalThetaInVideo.avi,vocoded,plusVideo,sp01,Ad,Ge,4,3,1,flow/blocks/NVocInAudio_GlobalThetaInVideo_A.csv,,,,,,,,,0,3,3,3,0,30,30,3,,,,,,,,,-0.4532407407407407,0.25555555555555554,1,0,0,4.957419699989259,call1,-0.07824074074074074,0.28194444444444444,1,0,0,5.483343999949284,colour1,True,True,True,0.40925925925925927,-0.2912037037037037,1,0,0,6.018858099996578,number4,21,1,2019_Nov_14_1707,MA_Theta_Exp,3.0.7,61.10273326507573,
video/Experiment/zh_sp01_Dr_We_4_NVocInAudio_GlobalThetaInVideo.avi,vocoded,plusVideo,sp01,Dr,We,4,3,1,flow/blocks/NVocInAudio_GlobalThetaInVideo_A.csv,,,,,,,,,0,3,3,3,0,31,31,31,,,,,,,,,-0.4199074074074074,0.1111111111111111,1,0,0,4.823251099966001,call2,0.01898148148148148,-0.3425925925925926,1,0,0,5.4034973999951035,colour4,True,True,True,0.3662037037037037,-0.31527777777777777,1,0,0,5.858314800017979,number4,21,1,2019_Nov_14_1707,MA_Theta_Exp,3.0.7,61.10273326507573,
video/Experiment/zh_sp07_Ad_Ge_2_NoThetaInAudio_NoVideo.avi,noTheta,noVideo,sp07,Ad,Ge,2,4,4,flow/blocks/NoThetaInAudio_NoVideo_A.csv,,,,,,,,,0,4,4,4,0,0,0,1,,,,,,,,,-0.44074074074074077,0.2875,1,0,0,5.095881199988071,call1,-0.02962962962962963,0.2810185185185185,1,0,0,5.708179800014477,colour1,True,True,False,0.3731481481481482,0.31666666666666665,1,0,0,6.286286599992309,number1,21,1,2019_Nov_14_1707,MA_Theta_Exp,3.0.7,61.10273326507573,
video/Experiment/zh_sp07_Dr_Gr_1_NoThetaInAudio_NoVideo.avi,noTheta,noVideo,sp07,Dr,Gr,1,4,4,flow/blocks/NoThetaInAudio_NoVideo_A.csv,,,,,,,,,0,4,4,4,0,1,1,20,,,,,,,,,-0.4115740740740741,0.07962962962962963,1,0,0,4.283276500005741,call2,0.017592592592592594,0.09722222222222222,1,0,0,4.922249699942768,colour2,True,True,True,0.36064814814814816,0.3111111111111111,1,0,0,5.552202199993189,number1,21,1,2019_Nov_14_1707,MA_Theta_Exp,3.0.7,61.10273326507573,
video/Experiment/zh_sp01_Dr_Gr_4_NoThetaInAudio_NoVideo.avi,noTheta,noVideo,sp01,Dr,Gr,4,4,4,flow/blocks/NoThetaInAudio_NoVideo_A.csv,,,,,,,,,0,4,4,4,0,2,2,23,,,,,,,,,-0.40879629629629627,0.12083333333333333,1,0,0,5.1189017000142485,call2,-0.0060185185185185185,0.12916666666666668,1,0,0,5.7060464000096545,colour2,True,True,True,0.3675925925925926,-0.3453703703703704,1,0,0,6.321949200006202,number4,21,1,2019_Nov_14_1707,MA_Theta_Exp,3.0.7,61.10273326507573,
video/Experiment/zh_sp01_Dr_Ro_4_NoThetaInAudio_NoVideo.avi,noTheta,noVideo,sp01,Dr,Ro,4,4,4,flow/blocks/NoThetaInAudio_NoVideo_A.csv,,,,,,,,,0,4,4,4,0,3,3,27,,,,,,,,,-0.35324074074074074,0.0875,1,0,0,5.058611800021026,call2,0.10787037037037037,-0.11898148148148148,1,0,0,6.0423569999984466,colour3,True,True,True,0.4162037037037037,-0.32592592592592595,1,0,0,7.159633900038898,number4,21,1,2019_Nov_14_1707,MA_Theta_Exp,3.0.7,61.10273326507573,
video/Experiment/zh_sp07_Ad_Ro_2_NoThetaInAudio_NoVideo.avi,noTheta,noVideo,sp07,Ad,Ro,2,4,4,flow/blocks/NoThetaInAudio_NoVideo_A.csv,,,,,,,,,0,4,4,4,0,4,4,9,,,,,,,,,-0.4324074074074074,0.2833333333333333,1,0,0,5.393788499990478,call1,0.03009259259259259,-0.10648148148148148,1,0,0,6.045867600012571,colour3,True,True,False,0.38287037037037036,0.26666666666666666,1,0,0,7.338207399996463,number1,21,1,2019_Nov_14_1707,MA_Theta_Exp,3.0.7,61.10273326507573,
video/Experiment/zh_sp07_Ad_Ge_4_NoThetaInAudio_NoVideo.avi,noTheta,noVideo,sp07,Ad,Ge,4,4,4,flow/blocks/NoThetaInAudio_NoVideo_A.csv,,,,,,,,,0,4,4,4,0,5,5,3,,,,,,,,,-0.4212962962962963,0.27361111111111114,1,0,0,4.5572654999559745,call1,-0.01712962962962963,-0.04814814814814815,1,0,0,5.1052288000355475,colour3,True,False,True,0.4217592592592593,-0.36064814814814816,1,0,0,5.628305399965029,number4,21,1,2019_Nov_14_1707,MA_Theta_Exp,3.0.7,61.10273326507573,
video/Experiment/zh_sp07_Ad_Gr_4_NoThetaInAudio_NoVideo.avi,noTheta,noVideo,sp07,Ad,Gr,4,4,4,flow/blocks/NoThetaInAudio_NoVideo_A.csv,,,,,,,,,0,4,4,4,0,6,6,7,,,,,,,,,-0.4199074074074074,0.29212962962962963,1,0,0,4.741142300015781,call1,-0.010185185185185186,0.046296296296296294,1,0,0,5.2534546999959275,colour2,True,True,True,0.4023148148148148,-0.3453703703703704,1,0,0,5.819330500031356,number4,21,1,2019_Nov_14_1707,MA_Theta_Exp,3.0.7,61.10273326507573,
video/Experiment/zh_sp01_Ad_We_4_NoThetaInAudio_NoVideo.avi,noTheta,noVideo,sp01,Ad,We,4,4,4,flow/blocks/NoThetaInAudio_NoVideo_A.csv,,,,,,,,,0,4,4,4,0,7,7,15,,,,,,,,,-0.36435185185185187,0.3351851851851852,1,0,0,5.0064613000140525,call1,0.027314814814814816,-0.3592592592592593,1,0,0,5.650567900040187,colour4,True,True,True,0.3509259259259259,-0.30694444444444446,1,0,0,6.252878199971747,number4,21,1,2019_Nov_14_1707,MA_Theta_Exp,3.0.7,61.10273326507573,
video/Experiment/zh_sp01_Ad_We_1_NoThetaInAudio_NoVideo.avi,noTheta,noVideo,sp01,Ad,We,1,4,4,flow/blocks/NoThetaInAudio_NoVideo_A.csv,,,,,,,,,0,4,4,4,0,8,8,12,,,,,,,,,-0.36157407407407405,0.2625,1,0,0,5.068238999985624,call1,0.010648148148148148,-0.2967592592592593,1,0,0,5.733780000009574,colour4,True,True,True,0.35648148148148145,0.3055555555555556,1,0,0,6.458997100009583,number1,21,1,2019_Nov_14_1707,MA_Theta_Exp,3.0.7,61.10273326507573,
video/Experiment/zh_sp01_Dr_Ge_3_NoThetaInAudio_NoVideo.avi,noTheta,noVideo,sp01,Dr,Ge,3,4,4,flow/blocks/NoThetaInAudio_NoVideo_A.csv,,,,,,,,,0,4,4,4,0,9,9,18,,,,,,,,,-0.35324074074074074,0.059722222222222225,1,0,0,5.063205800019205,call2,-0.031018518518518518,0.3194444444444444,1,0,0,5.988938099995721,colour1,True,True,True,0.40925925925925927,-0.1537037037037037,1,0,0,6.601900200010277,number3,21,1,2019_Nov_14_1707,MA_Theta_Exp,3.0.7,61.10273326507573,
video/Experiment/zh_sp07_Dr_Gr_2_NoThetaInAudio_NoVideo.avi,noTheta,noVideo,sp07,Dr,Gr,2,4,4,flow/blocks/NoThetaInAudio_NoVideo_A.csv,,,,,,,,,0,4,4,4,0,10,10,21,,,,,,,,,-0.3726851851851852,0.0875,1,0,0,4.603364999988116,call2,0.05787037037037037,0.06296296296296296,1,0,0,5.083839999977499,colour2,True,True,True,0.43287037037037035,0.09583333333333334,1,0,0,5.617628300038632,number2,21,1,2019_Nov_14_1707,MA_Theta_Exp,3.0.7,61.10273326507573,
video/Experiment/zh_sp01_Dr_Ro_2_NoThetaInAudio_NoVideo.avi,noTheta,noVideo,sp01,Dr,Ro,2,4,4,flow/blocks/NoThetaInAudio_NoVideo_A.csv,,,,,,,,,0,4,4,4,0,11,11,25,,,,,,,,,-0.36157407407407405,0.04722222222222222,1,0,0,5.365902899997309,call2,0.000925925925925926,-0.12314814814814815,1,0,0,6.074987899977714,colour3,True,True,True,0.4078703703703704,0.09583333333333334,1,0,0,6.499803900020197,number2,21,1,2019_Nov_14_1707,MA_Theta_Exp,3.0.7,61.10273326507573,
video/Experiment/zh_sp07_Dr_Ge_1_NoThetaInAudio_NoVideo.avi,noTheta,noVideo,sp07,Dr,Ge,1,4,4,flow/blocks/NoThetaInAudio_NoVideo_A.csv,,,,,,,,,0,4,4,4,0,12,12,16,,,,,,,,,-0.4310185185185185,0.2875,1,0,0,4.39537109999219,call1,-0.021296296296296296,0.2972222222222222,1,0,0,4.934653399977833,colour1,False,True,True,0.4287037037037037,0.2972222222222222,1,0,0,5.492421900038607,number1,21,1,2019_Nov_14_1707,MA_Theta_Exp,3.0.7,61.10273326507573,
video/Experiment/zh_sp01_Ad_We_2_NoThetaInAudio_NoVideo.avi,noTheta,noVideo,sp01,Ad,We,2,4,4,flow/blocks/NoThetaInAudio_NoVideo_A.csv,,,,,,,,,0,4,4,4,0,13,13,13,,,,,,,,,-0.38101851851851853,0.11574074074074074,1,0,0,5.049579499987885,call2,-0.32407407407407407,0.27546296296296297,1,0,0,6.5350961000076495,colour4,False,True,True,0.3425925925925926,0.10555555555555556,1,0,0,7.915434400027152,number2,21,1,2019_Nov_14_1707,MA_Theta_Exp,3.0.7,61.10273326507573,
video/Experiment/zh_sp07_Dr_We_4_NoThetaInAudio_NoVideo.avi,noTheta,noVideo,sp07,Dr,We,4,4,4,flow/blocks/NoThetaInAudio_NoVideo_A.csv,,,,,,,,,0,4,4,4,0,14,14,31,,,,,,,,,-0.42962962962962964,0.06851851851851852,1,0,0,4.501233199960552,call2,-0.012962962962962963,-0.3425925925925926,1,0,0,5.142220899986569,colour4,True,True,True,0.37592592592592594,-0.33611111111111114,1,0,0,5.703992799972184,number4,21,1,2019_Nov_14_1707,MA_Theta_Exp,3.0.7,61.10273326507573,
video/Experiment/zh_sp07_Ad_Ro_1_NoThetaInAudio_NoVideo.avi,noTheta,noVideo,sp07,Ad,Ro,1,4,4,flow/blocks/NoThetaInAudio_NoVideo_A.csv,,,,,,,,,0,4,4,4,0,15,15,8,,,,,,,,,-0.4824074074074074,0.3055555555555556,1,0,0,4.632653800013941,call1,0.04675925925925926,-0.12314814814814815,1,0,0,5.312881499994546,colour3,True,True,True,0.399537037037037,0.31712962962962965,1,0,0,6.150979799975175,number1,21,1,2019_Nov_14_1707,MA_Theta_Exp,3.0.7,61.10273326507573,
video/Experiment/zh_sp01_Ad_Ro_3_NoThetaInAudio_NoVideo.avi,noTheta,noVideo,sp01,Ad,Ro,3,4,4,flow/blocks/NoThetaInAudio_NoVideo_A.csv,,,,,,,,,0,4,4,4,0,16,16,10,,,,,,,,,-0.3824074074074074,0.24722222222222223,1,0,0,5.148975300020538,call1,-0.012962962962962963,-0.14814814814814814,1,0,0,5.779169000044931,colour3,True,True,True,0.4078703703703704,-0.125,1,0,0,6.3328590000164695,number3,21,1,2019_Nov_14_1707,MA_Theta_Exp,3.0.7,61.10273326507573,
video/Experiment/zh_sp01_Dr_We_3_NoThetaInAudio_NoVideo.avi,noTheta,noVideo,sp01,Dr,We,3,4,4,flow/blocks/NoThetaInAudio_NoVideo_A.csv,,,,,,,,,0,4,4,4,0,17,17,30,,,,,,,,,-0.49212962962962964,0.1,1,0,0,4.83833689999301,call2,0.017592592592592594,-0.3314814814814815,1,0,0,5.991923699970357,colour4,True,True,True,0.40370370370370373,-0.13194444444444445,1,0,0,7.070614300027955,number3,21,1,2019_Nov_14_1707,MA_Theta_Exp,3.0.7,61.10273326507573,
video/Experiment/zh_sp07_Ad_Gr_1_NoThetaInAudio_NoVideo.avi,noTheta,noVideo,sp07,Ad,Gr,1,4,4,flow/blocks/NoThetaInAudio_NoVideo_A.csv,,,,,,,,,0,4,4,4,0,18,18,4,,,,,,,,,-0.3851851851851852,0.2833333333333333,1,0,0,4.633768500003498,call1,0.03287037037037037,0.0587962962962963,1,0,0,5.153010800015181,colour2,True,True,False,0.43148148148148147,0.0712962962962963,1,0,0,6.013322599988896,number2,21,1,2019_Nov_14_1707,MA_Theta_Exp,3.0.7,61.10273326507573,
video/Experiment/zh_sp07_Ad_Gr_2_NoThetaInAudio_NoVideo.avi,noTheta,noVideo,sp07,Ad,Gr,2,4,4,flow/blocks/NoThetaInAudio_NoVideo_A.csv,,,,,,,,,0,4,4,4,0,19,19,5,,,,,,,,,-0.41574074074074074,0.30324074074074076,1,0,0,4.370433399977628,call1,-0.022685185185185187,0.047685185185185185,1,0,0,4.910797800053842,colour2,True,True,True,0.36203703703703705,0.10694444444444444,1,0,0,5.442026700009592,number2,21,1,2019_Nov_14_1707,MA_Theta_Exp,3.0.7,61.10273326507573,
video/Experiment/zh_sp07_Dr_Gr_3_NoThetaInAudio_NoVideo.avi,noTheta,noVideo,sp07,Dr,Gr,3,4,4,flow/blocks/NoThetaInAudio_NoVideo_A.csv,,,,,,,,,0,4,4,4,0,20,20,22,,,,,,,,,-0.43796296296296294,0.25972222222222224,1,0,0,4.4866982999956235,call1,0.03287037037037037,0.10601851851851851,1,0,0,5.038124200014863,colour2,False,True,True,0.3439814814814815,-0.12037037037037036,1,0,0,5.635216900031082,number3,21,1,2019_Nov_14_1707,MA_Theta_Exp,3.0.7,61.10273326507573,
video/Experiment/zh_sp07_Ad_Ge_1_NoThetaInAudio_NoVideo.avi,noTheta,noVideo,sp07,Ad,Ge,1,4,4,flow/blocks/NoThetaInAudio_NoVideo_A.csv,,,,,,,,,0,4,4,4,0,21,21,0,,,,,,,,,-0.4337962962962963,0.2726851851851852,1,0,0,4.393389099976048,call1,-0.01574074074074074,0.11712962962962963,1,0,0,4.95046529994579,colour2,True,False,True,0.3675925925925926,0.27361111111111114,1,0,0,5.430434299982153,number1,21,1,2019_Nov_14_1707,MA_Theta_Exp,3.0.7,61.10273326507573,
video/Experiment/zh_sp01_Dr_Ro_3_NoThetaInAudio_NoVideo.avi,noTheta,noVideo,sp01,Dr,Ro,3,4,4,flow/blocks/NoThetaInAudio_NoVideo_A.csv,,,,,,,,,0,4,4,4,0,22,22,26,,,,,,,,,-0.35324074074074074,0.06666666666666667,1,0,0,4.912580400006846,call2,0.07175925925925926,-0.1912037037037037,1,0,0,5.477520100015681,colour3,True,True,True,0.40925925925925927,-0.15694444444444444,1,0,0,6.012951899960171,number3,21,1,2019_Nov_14_1707,MA_Theta_Exp,3.0.7,61.10273326507573,
video/Experiment/zh_sp01_Dr_We_2_NoThetaInAudio_NoVideo.avi,noTheta,noVideo,sp01,Dr,We,2,4,4,flow/blocks/NoThetaInAudio_NoVideo_A.csv,,,,,,,,,0,4,4,4,0,23,23,29,,,,,,,,,-0.3712962962962963,0.06805555555555555,1,0,0,5.10579520004103,call2,0.03009259259259259,-0.32592592592592595,1,0,0,5.641389500000514,colour4,True,True,True,0.41898148148148145,0.08611111111111111,1,0,0,6.168732499994803,number2,21,1,2019_Nov_14_1707,MA_Theta_Exp,3.0.7,61.10273326507573,
video/Experiment/zh_sp01_Dr_We_1_NoThetaInAudio_NoVideo.avi,noTheta,noVideo,sp01,Dr,We,1,4,4,flow/blocks/NoThetaInAudio_NoVideo_A.csv,,,,,,,,,0,4,4,4,0,24,24,28,,,,,,,,,-0.41574074074074074,0.10138888888888889,1,0,0,5.173731499991845,call2,-0.024074074074074074,-0.3425925925925926,1,0,0,5.778348299965728,colour4,True,True,False,0.37037037037037035,0.08888888888888889,1,0,0,6.571525099978317,number2,21,1,2019_Nov_14_1707,MA_Theta_Exp,3.0.7,61.10273326507573,
video/Experiment/zh_sp01_Ad_Ge_3_NoThetaInAudio_NoVideo.avi,noTheta,noVideo,sp01,Ad,Ge,3,4,4,flow/blocks/NoThetaInAudio_NoVideo_A.csv,,,,,,,,,0,4,4,4,0,25,25,2,,,,,,,,,-0.44907407407407407,0.2791666666666667,1,0,0,4.804079700028524,call1,-0.018518518518518517,0.28194444444444444,1,0,0,5.295552099996712,colour1,True,True,True,0.4356481481481482,-0.17037037037037037,1,0,0,5.9020507000386715,number3,21,1,2019_Nov_14_1707,MA_Theta_Exp,3.0.7,61.10273326507573,
video/Experiment/zh_sp07_Dr_Ge_4_NoThetaInAudio_NoVideo.avi,noTheta,noVideo,sp07,Dr,Ge,4,4,4,flow/blocks/NoThetaInAudio_NoVideo_A.csv,,,,,,,,,0,4,4,4,0,26,26,19,,,,,,,,,-0.43657407407407406,0.12222222222222222,1,0,0,4.557917500031181,call2,-0.06712962962962964,0.2708333333333333,1,0,0,5.172033899987582,colour1,True,True,True,0.3939814814814815,-0.3175925925925926,1,0,0,5.830509499995969,number4,21,1,2019_Nov_14_1707,MA_Theta_Exp,3.0.7,61.10273326507573,
video/Experiment/zh_sp07_Dr_Ro_1_NoThetaInAudio_NoVideo.avi,noTheta,noVideo,sp07,Dr,Ro,1,4,4,flow/blocks/NoThetaInAudio_NoVideo_A.csv,,,,,,,,,0,4,4,4,0,27,27,24,,,,,,,,,-0.4199074074074074,0.12546296296296297,1,0,0,4.644368899986148,call2,0.055092592592592596,-0.08425925925925926,1,0,0,6.2439602999947965,colour3,True,True,True,0.37175925925925923,0.30833333333333335,1,0,0,6.794130000052974,number1,21,1,2019_Nov_14_1707,MA_Theta_Exp,3.0.7,61.10273326507573,
video/Experiment/zh_sp01_Ad_We_3_NoThetaInAudio_NoVideo.avi,noTheta,noVideo,sp01,Ad,We,3,4,4,flow/blocks/NoThetaInAudio_NoVideo_A.csv,,,,,,,,,0,4,4,4,0,28,28,14,,,,,,,,,-0.38935185185185184,0.3,1,0,0,4.953252799983602,call1,-0.022685185185185187,-0.34120370370370373,1,0,0,5.574535400024615,colour4,True,True,True,0.4689814814814815,-0.15648148148148147,1,0,0,6.183770000003278,number3,21,1,2019_Nov_14_1707,MA_Theta_Exp,3.0.7,61.10273326507573,
video/Experiment/zh_sp07_Dr_Ge_2_NoThetaInAudio_NoVideo.avi,noTheta,noVideo,sp07,Dr,Ge,2,4,4,flow/blocks/NoThetaInAudio_NoVideo_A.csv,,,,,,,,,0,4,4,4,0,29,29,17,,,,,,,,,-0.3726851851851852,0.0763888888888889,1,0,0,4.847320500004571,call2,0.01898148148148148,0.31666666666666665,1,0,0,5.728048799966928,colour1,True,True,True,0.3662037037037037,0.08796296296296297,1,0,0,6.3633651999989524,number2,21,1,2019_Nov_14_1707,MA_Theta_Exp,3.0.7,61.10273326507573,
video/Experiment/zh_sp01_Ad_Ro_4_NoThetaInAudio_NoVideo.avi,noTheta,noVideo,sp01,Ad,Ro,4,4,4,flow/blocks/NoThetaInAudio_NoVideo_A.csv,,,,,,,,,0,4,4,4,0,30,30,11,,,,,,,,,-0.47824074074074074,0.2569444444444444,1,0,0,5.147121400048491,call1,-0.011574074074074073,-0.13703703703703704,1,0,0,5.7770443999907,colour3,True,True,True,0.4134259259259259,-0.33611111111111114,1,0,0,6.42543060000753,number4,21,1,2019_Nov_14_1707,MA_Theta_Exp,3.0.7,61.10273326507573,
video/Experiment/zh_sp01_Ad_Gr_3_NoThetaInAudio_NoVideo.avi,noTheta,noVideo,sp01,Ad,Gr,3,4,4,flow/blocks/NoThetaInAudio_NoVideo_A.csv,,,,,,,,,0,4,4,4,0,31,31,6,,,,,,,,,-0.4324074074074074,0.28055555555555556,1,0,0,5.092357899993658,call1,0.012037037037037037,0.0837962962962963,1,0,0,5.662155999976676,colour2,True,True,True,0.3814814814814815,-0.1300925925925926,1,0,0,6.1685010000364855,number3,21,1,2019_Nov_14_1707,MA_Theta_Exp,3.0.7,61.10273326507573,
video/Experiment/zh_sp01_Ti_Ro_1_NVocInAudio_GlobalThetaInVideo.avi,vocoded,plusVideo,sp01,Ti,Ro,1,0,1,flow/blocks/NVocInAudio_GlobalThetaInVideo_B.csv,,,,,,,,,,,,,,,,,0,0,0,0,0,0,0,8,-0.3921296296296296,-0.13472222222222222,1,0,0,5.306296800030395,call3,-0.014351851851851852,-0.1162037037037037,1,0,0,6.057325000001583,colour3,True,True,True,0.3287037037037037,0.2902777777777778,1,0,0,6.812105400022119,number1,21,1,2019_Nov_14_1707,MA_Theta_Exp,3.0.7,61.10273326507573,
video/Experiment/zh_sp01_Un_Ge_3_NVocInAudio_GlobalThetaInVideo.avi,vocoded,plusVideo,sp01,Un,Ge,3,0,1,flow/blocks/NVocInAudio_GlobalThetaInVideo_B.csv,,,,,,,,,,,,,,,,,0,0,0,0,0,1,1,18,-0.40324074074074073,-0.3453703703703704,1,0,0,5.140502299997024,call4,-0.011574074074074073,0.2652777777777778,1,0,0,6.4403769000200555,colour1,True,True,True,0.43703703703703706,-0.1439814814814815,1,0,0,7.004313199955504,number3,21,1,2019_Nov_14_1707,MA_Theta_Exp,3.0.7,61.10273326507573,
video/Experiment/zh_sp07_Ti_Ge_4_NVocInAudio_GlobalThetaInVideo.avi,vocoded,plusVideo,sp07,Ti,Ge,4,0,1,flow/blocks/NVocInAudio_GlobalThetaInVideo_B.csv,,,,,,,,,,,,,,,,,0,0,0,0,0,2,2,3,-0.4101851851851852,-0.11342592592592593,1,0,0,4.571217799966689,call3,-0.0032407407407407406,0.29305555555555557,1,0,0,5.350718899979256,colour1,True,True,True,0.4634259259259259,-0.337037037037037,1,0,0,6.027692899981048,number4,21,1,2019_Nov_14_1707,MA_Theta_Exp,3.0.7,61.10273326507573,
video/Experiment/zh_sp07_Ti_Gr_2_NVocInAudio_GlobalThetaInVideo.avi,vocoded,plusVideo,sp07,Ti,Gr,2,0,1,flow/blocks/NVocInAudio_GlobalThetaInVideo_B.csv,,,,,,,,,,,,,,,,,0,0,0,0,0,3,3,5,-0.3962962962962963,-0.12916666666666668,1,0,0,4.559746400045697,call3,0.0023148148148148147,0.08055555555555556,1,0,0,5.186274399980903,colour2,True,True,True,0.3814814814814815,0.10601851851851851,1,0,0,6.002214000036474,number2,21,1,2019_Nov_14_1707,MA_Theta_Exp,3.0.7,61.10273326507573,
video/Experiment/zh_sp07_Ti_We_1_NVocInAudio_GlobalThetaInVideo.avi,vocoded,plusVideo,sp07,Ti,We,1,0,1,flow/blocks/NVocInAudio_GlobalThetaInVideo_B.csv,,,,,,,,,,,,,,,,,0,0,0,0,0,4,4,12,-0.42407407407407405,-0.1162037037037037,1,0,0,4.669061699998565,call3,-0.033796296296296297,-0.35648148148148145,1,0,0,5.281368799973279,colour4,True,True,True,0.40925925925925927,0.2916666666666667,1,0,0,5.9708783000241965,number1,21,1,2019_Nov_14_1707,MA_Theta_Exp,3.0.7,61.10273326507573,
video/Experiment/zh_sp01_Un_Ge_4_NVocInAudio_GlobalThetaInVideo.avi,vocoded,plusVideo,sp01,Un,Ge,4,0,1,flow/blocks/NVocInAudio_GlobalThetaInVideo_B.csv,,,,,,,,,,,,,,,,,0,0,0,0,0,5,5,19,-0.37407407407407406,-0.32731481481481484,1,0,0,5.164160199987236,call4,-0.02824074074074074,0.30277777777777776,1,0,0,5.915629499999341,colour1,True,True,True,0.4287037037037037,-0.3675925925925926,1,0,0,6.68340390000958,number4,21,1,2019_Nov_14_1707,MA_Theta_Exp,3.0.7,61.10273326507573,
video/Experiment/zh_sp01_Ti_Ge_2_NVocInAudio_GlobalThetaInVideo.avi,vocoded,plusVideo,sp01,Ti,Ge,2,0,1,flow/blocks/NVocInAudio_GlobalThetaInVideo_B.csv,,,,,,,,,,,,,,,,,0,0,0,0,0,6,6,1,-0.4199074074074074,-0.1125,1,0,0,5.56903469999088,call3,-0.03518518518518519,0.30694444444444446,1,0,0,6.251984899980016,colour1,True,True,True,0.3592592592592593,0.11851851851851852,1,0,0,6.948941600043327,number2,21,1,2019_Nov_14_1707,MA_Theta_Exp,3.0.7,61.10273326507573,
video/Experiment/zh_sp07_Un_Ge_2_NVocInAudio_GlobalThetaInVideo.avi,vocoded,plusVideo,sp07,Un,Ge,2,0,1,flow/blocks/NVocInAudio_GlobalThetaInVideo_B.csv,,,,,,,,,,,,,,,,,0,0,0,0,0,7,7,17,-0.4101851851851852,-0.35,1,0,0,4.764297899964731,call4,-0.05740740740740741,0.30277777777777776,1,0,0,5.362662100000307,colour1,True,True,True,0.39675925925925926,0.10416666666666667,1,0,0,5.816820400010329,number2,21,1,2019_Nov_14_1707,MA_Theta_Exp,3.0.7,61.10273326507573,
video/Experiment/zh_sp01_Un_Ro_3_NVocInAudio_GlobalThetaInVideo.avi,vocoded,plusVideo,sp01,Un,Ro,3,0,1,flow/blocks/NVocInAudio_GlobalThetaInVideo_B.csv,,,,,,,,,,,,,,,,,0,0,0,0,0,8,8,26,-0.37546296296296294,-0.33425925925925926,1,0,0,5.415641699975822,call4,-0.03796296296296296,-0.09444444444444444,1,0,0,5.981797099986579,colour3,True,True,True,0.35509259259259257,-0.09305555555555556,1,0,0,6.631926300004125,number3,21,1,2019_Nov_14_1707,MA_Theta_Exp,3.0.7,61.10273326507573,
video/Experiment/zh_sp01_Un_We_3_NVocInAudio_GlobalThetaInVideo.avi,vocoded,plusVideo,sp01,Un,We,3,0,1,flow/blocks/NVocInAudio_GlobalThetaInVideo_B.csv,,,,,,,,,,,,,,,,,0,0,0,0,0,9,9,30,-0.4212962962962963,-0.3175925925925926,1,0,0,5.247046099975705,call4,-0.04351851851851852,-0.34120370370370373,1,0,0,5.763624500017613,colour4,True,True,True,0.38564814814814813,-0.1375,1,0,0,6.364641899999697,number3,21,1,2019_Nov_14_1707,MA_Theta_Exp,3.0.7,61.10273326507573,
video/Experiment/zh_sp07_Un_Gr_4_NVocInAudio_GlobalThetaInVideo.avi,vocoded,plusVideo,sp07,Un,Gr,4,0,1,flow/blocks/NVocInAudio_GlobalThetaInVideo_B.csv,,,,,,,,,,,,,,,,,0,0,0,0,0,10,10,23,-0.44907407407407407,-0.34953703703703703,1,0,0,4.709618400025647,call4,-0.010185185185185186,0.08333333333333333,1,0,0,5.30483069998445,colour2,True,True,True,0.4078703703703704,-0.34814814814814815,1,0,0,5.879411100002471,number4,21,1,2019_Nov_14_1707,MA_Theta_Exp,3.0.7,61.10273326507573,
video/Experiment/zh_sp01_Ti_We_2_NVocInAudio_GlobalThetaInVideo.avi,vocoded,plusVideo,sp01,Ti,We,2,0,1,flow/blocks/NVocInAudio_GlobalThetaInVideo_B.csv,,,,,,,,,,,,,,,,,0,0,0,0,0,11,11,13,-0.45601851851851855,-0.11666666666666667,1,0,0,4.947646700020414,call3,-0.032407407407407406,-0.30787037037037035,1,0,0,5.559578999993391,colour4,True,True,True,0.3814814814814815,0.10416666666666667,1,0,0,6.11014459998114,number2,21,1,2019_Nov_14_1707,MA_Theta_Exp,3.0.7,61.10273326507573,
video/Experiment/zh_sp01_Un_Gr_1_NVocInAudio_GlobalThetaInVideo.avi,vocoded,plusVideo,sp01,Un,Gr,1,0,1,flow/blocks/NVocInAudio_GlobalThetaInVideo_B.csv,,,,,,,,,,,,,,,,,0,0,0,0,0,12,12,20,-0.37546296296296294,-0.34953703703703703,1,0,0,5.037265599996317,call4,-0.021296296296296296,0.09444444444444444,1,0,0,5.6380772000411525,colour2,True,True,True,0.37175925925925923,0.3138888888888889,1,0,0,6.303626400011126,number1,21,1,2019_Nov_14_1707,MA_Theta_Exp,3.0.7,61.10273326507573,
video/Experiment/zh_sp01_Un_We_4_NVocInAudio_GlobalThetaInVideo.avi,vocoded,plusVideo,sp01,Un,We,4,0,1,flow/blocks/NVocInAudio_GlobalThetaInVideo_B.csv,,,,,,,,,,,,,,,,,0,0,0,0,0,13,13,31,-0.40046296296296297,-0.32037037037037036,1,0,0,4.89026549999835,call4,-0.01990740740740741,-0.3314814814814815,1,0,0,5.424485100025777,colour4,True,True,True,0.37175925925925923,-0.31527777777777777,1,0,0,5.911675399984233,number4,21,1,2019_Nov_14_1707,MA_Theta_Exp,3.0.7,61.10273326507573,
video/Experiment/zh_sp07_Ti_We_3_NVocInAudio_GlobalThetaInVideo.avi,vocoded,plusVideo,sp07,Ti,We,3,0,1,flow/blocks/NVocInAudio_GlobalThetaInVideo_B.csv,,,,,,,,,,,,,,,,,0,0,0,0,0,14,14,14,-0.39490740740740743,-0.12777777777777777,1,0,0,4.459361499990337,call3,-0.04490740740740741,-0.30787037037037035,1,0,0,5.039112200029194,colour4,True,True,True,0.37037037037037035,-0.12916666666666668,1,0,0,5.576730600034352,number3,21,1,2019_Nov_14_1707,MA_Theta_Exp,3.0.7,61.10273326507573,
video/Experiment/zh_sp07_Un_Gr_2_NVocInAudio_GlobalThetaInVideo.avi,vocoded,plusVideo,sp07,Un,Gr,2,0,1,flow/blocks/NVocInAudio_GlobalThetaInVideo_B.csv,,,,,,,,,,,,,,,,,0,0,0,0,0,15,15,21,-0.45740740740740743,-0.3148148148148148,1,0,0,4.8947958999779075,call4,-0.031018518518518518,0.08472222222222223,1,0,0,5.4562701000249945,colour2,True,True,True,0.3731481481481482,0.14166666666666666,1,0,0,5.91899849998299,number2,21,1,2019_Nov_14_1707,MA_Theta_Exp,3.0.7,61.10273326507573,
video/Experiment/zh_sp01_Ti_Gr_1_NVocInAudio_GlobalThetaInVideo.avi,vocoded,plusVideo,sp01,Ti,Gr,1,0,1,flow/blocks/NVocInAudio_GlobalThetaInVideo_B.csv,,,,,,,,,,,,,,,,,0,0,0,0,0,16,16,4,-0.35185185185185186,-0.12361111111111112,1,0,0,5.604029599984642,call3,-0.024074074074074074,0.09861111111111111,1,0,0,6.15020050003659,colour2,True,True,True,0.33564814814814814,0.3486111111111111,1,0,0,6.743251400010195,number1,21,1,2019_Nov_14_1707,MA_Theta_Exp,3.0.7,61.10273326507573,
video/Experiment/zh_sp07_Ti_Gr_3_NVocInAudio_GlobalThetaInVideo.avi,vocoded,plusVideo,sp07,Ti,Gr,3,0,1,flow/blocks/NVocInAudio_GlobalThetaInVideo_B.csv,,,,,,,,,,,,,,,,,0,0,0,0,0,17,17,6,-0.37407407407407406,-0.1361111111111111,1,0,0,4.749629200028721,call3,-0.02546296296296296,0.10694444444444444,1,0,0,5.238589399959892,colour2,True,True,True,0.4203703703703704,-0.11342592592592593,1,0,0,5.74950269999681,number3,21,1,2019_Nov_14_1707,MA_Theta_Exp,3.0.7,61.10273326507573,
video/Experiment/zh_sp07_Un_Ge_1_NVocInAudio_GlobalThetaInVideo.avi,vocoded,plusVideo,sp07,Un,Ge,1,0,1,flow/blocks/NVocInAudio_GlobalThetaInVideo_B.csv,,,,,,,,,,,,,,,,,0,0,0,0,0,18,18,16,-0.38796296296296295,-0.29259259259259257,1,0,0,4.408396499988157,call4,-0.02824074074074074,0.3,1,0,0,4.997085099981632,colour1,True,True,True,0.42453703703703705,0.3375,1,0,0,5.551089900021907,number1,21,1,2019_Nov_14_1707,MA_Theta_Exp,3.0.7,61.10273326507573,
video/Experiment/zh_sp07_Ti_Gr_4_NVocInAudio_GlobalThetaInVideo.avi,vocoded,plusVideo,sp07,Ti,Gr,4,0,1,flow/blocks/NVocInAudio_GlobalThetaInVideo_B.csv,,,,,,,,,,,,,,,,,0,0,0,0,0,19,19,7,-0.41712962962962963,-0.1398148148148148,1,0,0,4.900647800008301,call3,-0.06435185185185185,0.10555555555555556,1,0,0,5.616414099989925,colour2,True,True,True,0.38981481481481484,-0.37037037037037035,1,0,0,6.249609299993608,number4,21,1,2019_Nov_14_1707,MA_Theta_Exp,3.0.7,61.10273326507573,
video/Experiment/zh_sp01_Ti_Ge_1_NVocInAudio_GlobalThetaInVideo.avi,vocoded,plusVideo,sp01,Ti,Ge,1,0,1,flow/blocks/NVocInAudio_GlobalThetaInVideo_B.csv,,,,,,,,,,,,,,,,,0,0,0,0,0,20,20,0,-0.3699074074074074,-0.1300925925925926,1,0,0,5.32906419999199,call3,-0.032407407407407406,0.3236111111111111,1,0,0,5.896826800017152,colour1,True,True,True,0.43703703703703706,0.3,1,0,0,6.518928900011815,number1,21,1,2019_Nov_14_1707,MA_Theta_Exp,3.0.7,61.10273326507573,
video/Experiment/zh_sp07_Un_Gr_3_NVocInAudio_GlobalThetaInVideo.avi,vocoded,plusVideo,sp07,Un,Gr,3,0,1,flow/blocks/NVocInAudio_GlobalThetaInVideo_B.csv,,,,,,,,,,,,,,,,,0,0,0,0,0,21,21,22,-0.37546296296296294,-0.3287037037037037,1,0,0,4.373990099993534,call4,-0.06157407407407407,0.06666666666666667,1,0,0,4.866522699943744,colour2,True,True,True,0.4009259259259259,-0.14814814814814814,1,0,0,5.355199299985543,number3,21,1,2019_Nov_14_1707,MA_Theta_Exp,3.0.7,61.10273326507573,
video/Experiment/zh_sp01_Un_We_1_NVocInAudio_GlobalThetaInVideo.avi,vocoded,plusVideo,sp01,Un,We,1,0,1,flow/blocks/NVocInAudio_GlobalThetaInVideo_B.csv,,,,,,,,,,,,,,,,,0,0,0,0,0,22,22,28,-0.36574074074074076,-0.3111111111111111,1,0,0,4.991881800000556,call4,-0.011574074074074073,-0.32175925925925924,1,0,0,5.429742400010582,colour4,True,True,True,0.4078703703703704,0.29305555555555557,1,0,0,6.045734400046058,number1,21,1,2019_Nov_14_1707,MA_Theta_Exp,3.0.7,61.10273326507573,
video/Experiment/zh_sp07_Ti_We_4_NVocInAudio_GlobalThetaInVideo.avi,vocoded,plusVideo,sp07,Ti,We,4,0,1,flow/blocks/NVocInAudio_GlobalThetaInVideo_B.csv,,,,,,,,,,,,,,,,,0,0,0,0,0,23,23,15,-0.40324074074074073,-0.09398148148148149,1,0,0,4.4524759000050835,call3,0.0023148148148148147,-0.2912037037037037,1,0,0,4.960767499986105,colour4,True,True,True,0.4050925925925926,-0.28425925925925927,1,0,0,5.398983900027815,number4,21,1,2019_Nov_14_1707,MA_Theta_Exp,3.0.7,61.10273326507573,
video/Experiment/zh_sp07_Un_We_2_NVocInAudio_GlobalThetaInVideo.avi,vocoded,plusVideo,sp07,Un,We,2,0,1,flow/blocks/NVocInAudio_GlobalThetaInVideo_B.csv,,,,,,,,,,,,,,,,,0,0,0,0,0,24,24,29,-0.3726851851851852,-0.28564814814814815,1,0,0,4.362853900005575,call4,-0.05462962962962963,-0.2912037037037037,1,0,0,4.911977500014473,colour4,True,True,True,0.41898148148148145,0.10972222222222222,1,0,0,5.396897999977227,number2,21,1,2019_Nov_14_1707,MA_Theta_Exp,3.0.7,61.10273326507573,
video/Experiment/zh_sp01_Un_Ro_2_NVocInAudio_GlobalThetaInVideo.avi,vocoded,plusVideo,sp01,Un,Ro,2,0,1,flow/blocks/NVocInAudio_GlobalThetaInVideo_B.csv,,,,,,,,,,,,,,,,,0,0,0,0,0,25,25,25,-0.3962962962962963,-0.3384259259259259,1,0,0,5.361355600005481,call4,0.0023148148148148147,-0.10277777777777777,1,0,0,5.905759200046305,colour3,True,True,True,0.3384259259259259,0.0875,1,0,0,6.390677899995353,number2,21,1,2019_Nov_14_1707,MA_Theta_Exp,3.0.7,61.10273326507573,
video/Experiment/zh_sp07_Un_Ro_1_NVocInAudio_GlobalThetaInVideo.avi,vocoded,plusVideo,sp07,Un,Ro,1,0,1,flow/blocks/NVocInAudio_GlobalThetaInVideo_B.csv,,,,,,,,,,,,,,,,,0,0,0,0,0,26,26,24,-0.4212962962962963,-0.33425925925925926,1,0,0,4.301185599993914,call4,0.028703703703703703,-0.14305555555555555,1,0,0,4.747752099996433,colour3,True,True,True,0.4537037037037037,0.2972222222222222,1,0,0,5.360913699958473,number1,21,1,2019_Nov_14_1707,MA_Theta_Exp,3.0.7,61.10273326507573,
video/Experiment/zh_sp07_Ti_Ro_2_NVocInAudio_GlobalThetaInVideo.avi,vocoded,plusVideo,sp07,Ti,Ro,2,0,1,flow/blocks/NVocInAudio_GlobalThetaInVideo_B.csv,,,,,,,,,,,,,,,,,0,0,0,0,0,27,27,9,-0.41712962962962963,-0.13055555555555556,1,0,0,4.465516800002661,call3,-0.05324074074074074,-0.12638888888888888,1,0,0,4.949554999999236,colour3,True,True,True,0.37037037037037035,0.09027777777777778,1,0,0,5.43349580001086,number2,21,1,2019_Nov_14_1707,MA_Theta_Exp,3.0.7,61.10273326507573,
video/Experiment/zh_sp01_Un_Ro_4_NVocInAudio_GlobalThetaInVideo.avi,vocoded,plusVideo,sp01,Un,Ro,4,0,1,flow/blocks/NVocInAudio_GlobalThetaInVideo_B.csv,,,,,,,,,,,,,,,,,0,0,0,0,0,28,28,27,-0.39351851851851855,-0.3148148148148148,1,0,0,4.9738062000251375,call4,-0.011574074074074073,-0.15,1,0,0,5.575194599980023,colour3,True,True,True,0.36064814814814816,-0.31203703703703706,1,0,0,6.092405499948654,number4,21,1,2019_Nov_14_1707,MA_Theta_Exp,3.0.7,61.10273326507573,
video/Experiment/zh_sp01_Ti_Ro_3_NVocInAudio_GlobalThetaInVideo.avi,vocoded,plusVideo,sp01,Ti,Ro,3,0,1,flow/blocks/NVocInAudio_GlobalThetaInVideo_B.csv,,,,,,,,,,,,,,,,,0,0,0,0,0,29,29,10,-0.4212962962962963,-0.13333333333333333,1,0,0,5.337506800016854,call3,-0.03935185185185185,-0.10833333333333334,1,0,0,5.826081199978944,colour3,True,True,True,0.43287037037037035,-0.11898148148148148,1,0,0,6.292410199996084,number3,21,1,2019_Nov_14_1707,MA_Theta_Exp,3.0.7,61.10273326507573,
video/Experiment/zh_sp01_Ti_Ro_4_NVocInAudio_GlobalThetaInVideo.avi,vocoded,plusVideo,sp01,Ti,Ro,4,0,1,flow/blocks/NVocInAudio_GlobalThetaInVideo_B.csv,,,,,,,,,,,,,,,,,0,0,0,0,0,30,30,11,-0.3851851851851852,-0.1412037037037037,1,0,0,4.98157619999256,call3,0.017592592592592594,-0.1439814814814815,1,0,0,5.432232999999542,colour3,True,True,True,0.43287037037037035,-0.33564814814814814,1,0,0,5.987827299977653,number4,21,1,2019_Nov_14_1707,MA_Theta_Exp,3.0.7,61.10273326507573,
video/Experiment/zh_sp07_Ti_Ge_3_NVocInAudio_GlobalThetaInVideo.avi,vocoded,plusVideo,sp07,Ti,Ge,3,0,1,flow/blocks/NVocInAudio_GlobalThetaInVideo_B.csv,,,,,,,,,,,,,,,,,0,0,0,0,0,31,31,2,-0.41435185185185186,-0.12037037037037036,1,0,0,4.3349753000075,call3,-0.02824074074074074,0.2902777777777778,1,0,0,4.890687400009483,colour1,True,True,True,0.40370370370370373,-0.1162037037037037,1,0,0,5.439118799986318,number3,21,1,2019_Nov_14_1707,MA_Theta_Exp,3.0.7,61.10273326507573,
video/Experiment/zh_sp01_Ti_We_1_NoThetaInAudio_NoVideo.avi,noTheta,noVideo,sp01,Ti,We,1,1,4,flow/blocks/NoThetaInAudio_NoVideo_B.csv,,,,,,,,,,,,,,,,,0,1,1,1,0,0,0,12,-0.3476851851851852,-0.07916666666666666,1,0,0,5.451239900023211,call3,0.009259259259259259,-0.3277777777777778,1,0,0,6.25071689998731,colour4,True,True,True,0.37175925925925923,0.2902777777777778,1,0,0,6.965045300021302,number1,21,1,2019_Nov_14_1707,MA_Theta_Exp,3.0.7,61.10273326507573,
video/Experiment/zh_sp01_Ti_Ge_2_NoThetaInAudio_NoVideo.avi,noTheta,noVideo,sp01,Ti,Ge,2,1,4,flow/blocks/NoThetaInAudio_NoVideo_B.csv,,,,,,,,,,,,,,,,,0,1,1,1,0,1,1,1,-0.38796296296296295,-0.1625,1,0,0,5.116503000026569,call3,0.006481481481481481,0.2569444444444444,1,0,0,5.829722800001036,colour1,True,True,True,0.44675925925925924,0.08796296296296297,1,0,0,6.420310599962249,number2,21,1,2019_Nov_14_1707,MA_Theta_Exp,3.0.7,61.10273326507573,
video/Experiment/zh_sp01_Ti_Ro_2_NoThetaInAudio_NoVideo.avi,noTheta,noVideo,sp01,Ti,Ro,2,1,4,flow/blocks/NoThetaInAudio_NoVideo_B.csv,,,,,,,,,,,,,,,,,0,1,1,1,0,2,2,9,-0.3296296296296296,-0.12037037037037036,1,0,0,5.129671799950302,call3,0.024537037037037038,-0.12453703703703704,1,0,0,5.960151800012682,colour3,True,True,True,0.41203703703703703,0.12916666666666668,1,0,0,6.695136700000148,number2,21,1,2019_Nov_14_1707,MA_Theta_Exp,3.0.7,61.10273326507573,
video/Experiment/zh_sp07_Un_Ro_3_NoThetaInAudio_NoVideo.avi,noTheta,noVideo,sp07,Un,Ro,3,1,4,flow/blocks/NoThetaInAudio_NoVideo_B.csv,,,,,,,,,,,,,,,,,0,1,1,1,0,3,3,26,-0.3712962962962963,-0.075,1,0,0,4.256756599992514,call3,0.00787037037037037,-0.1050925925925926,1,0,0,4.786617700010538,colour3,False,True,True,0.38287037037037036,-0.1398148148148148,1,0,0,5.3862454000045545,number3,21,1,2019_Nov_14_1707,MA_Theta_Exp,3.0.7,61.10273326507573,
video/Experiment/zh_sp01_Un_We_4_NoThetaInAudio_NoVideo.avi,noTheta,noVideo,sp01,Un,We,4,1,4,flow/blocks/NoThetaInAudio_NoVideo_B.csv,,,,,,,,,,,,,,,,,0,1,1,1,0,4,4,31,-0.3976851851851852,-0.1300925925925926,1,0,0,5.215250600012951,call3,-0.001851851851851852,-0.3189814814814815,1,0,0,5.731542400026228,colour4,False,True,True,0.39814814814814814,-0.32037037037037036,1,0,0,6.313192400033586,number4,21,1,2019_Nov_14_1707,MA_Theta_Exp,3.0.7,61.10273326507573,
video/Experiment/zh_sp07_Un_Gr_1_NoThetaInAudio_NoVideo.avi,noTheta,noVideo,sp07,Un,Gr,1,1,4,flow/blocks/NoThetaInAudio_NoVideo_B.csv,,,,,,,,,,,,,,,,,0,1,1,1,0,5,5,20,-0.35462962962962963,-0.14722222222222223,1,0,0,4.579467899980955,call3,0.009259259259259259,0.09166666666666666,1,0,0,5.098420900001656,colour2,False,True,True,0.3912037037037037,0.2986111111111111,1,0,0,5.707338000007439,number1,21,1,2019_Nov_14_1707,MA_Theta_Exp,3.0.7,61.10273326507573,
video/Experiment/zh_sp01_Ti_We_3_NoThetaInAudio_NoVideo.avi,noTheta,noVideo,sp01,Ti,We,3,1,4,flow/blocks/NoThetaInAudio_NoVideo_B.csv,,,,,,,,,,,,,,,,,0,1,1,1,0,6,6,14,-0.41712962962962963,-0.15694444444444444,1,0,0,5.591790000034962,call3,-0.049074074074074076,-0.32037037037037036,1,0,0,6.106435899971984,colour4,True,True,True,0.37453703703703706,-0.16342592592592592,1,0,0,6.709100299980491,number3,21,1,2019_Nov_14_1707,MA_Theta_Exp,3.0.7,61.10273326507573,
video/Experiment/zh_sp07_Un_Gr_2_NoThetaInAudio_NoVideo.avi,noTheta,noVideo,sp07,Un,Gr,2,1,4,flow/blocks/NoThetaInAudio_NoVideo_B.csv,,,,,,,,,,,,,,,,,0,1,1,1,0,7,7,21,-0.40046296296296297,-0.1037037037037037,1,0,0,4.4839739999733865,call3,-0.02824074074074074,0.075,1,0,0,4.983106300001964,colour2,False,True,True,0.39814814814814814,0.09305555555555556,1,0,0,5.506158200034406,number2,21,1,2019_Nov_14_1707,MA_Theta_Exp,3.0.7,61.10273326507573,
video/Experiment/zh_sp07_Ti_Gr_2_NoThetaInAudio_NoVideo.avi,noTheta,noVideo,sp07,Ti,Gr,2,1,4,flow/blocks/NoThetaInAudio_NoVideo_B.csv,,,,,,,,,,,,,,,,,0,1,1,1,0,8,8,5,-0.40324074074074073,-0.1398148148148148,1,0,0,4.6421543000033125,call3,-0.01712962962962963,0.05277777777777778,1,0,0,5.121251899981871,colour2,True,True,True,0.41064814814814815,0.08888888888888889,1,0,0,5.63836760004051,number2,21,1,2019_Nov_14_1707,MA_Theta_Exp,3.0.7,61.10273326507573,
video/Experiment/zh_sp07_Un_Gr_4_NoThetaInAudio_NoVideo.avi,noTheta,noVideo,sp07,Un,Gr,4,1,4,flow/blocks/NoThetaInAudio_NoVideo_B.csv,,,,,,,,,,,,,,,,,0,1,1,1,0,9,9,23,-0.44351851851851853,-0.13333333333333333,1,0,0,4.409507099946495,call3,0.005092592592592593,0.06666666666666667,1,0,0,4.890866400033701,colour2,False,True,True,0.387037037037037,-0.31342592592592594,1,0,0,5.486038999981247,number4,21,1,2019_Nov_14_1707,MA_Theta_Exp,3.0.7,61.10273326507573,
video/Experiment/zh_sp07_Ti_We_2_NoThetaInAudio_NoVideo.avi,noTheta,noVideo,sp07,Ti,We,2,1,4,flow/blocks/NoThetaInAudio_NoVideo_B.csv,,,,,,,,,,,,,,,,,0,1,1,1,0,10,10,13,-0.3990740740740741,-0.12777777777777777,1,0,0,4.690136100049131,call3,-0.049074074074074076,-0.2759259259259259,1,0,0,5.291072099993471,colour4,True,True,True,0.4564814814814815,0.11388888888888889,1,0,0,5.862075999961235,number2,21,1,2019_Nov_14_1707,MA_Theta_Exp,3.0.7,61.10273326507573,
video/Experiment/zh_sp01_Un_Ge_1_NoThetaInAudio_NoVideo.avi,noTheta,noVideo,sp01,Un,Ge,1,1,4,flow/blocks/NoThetaInAudio_NoVideo_B.csv,,,,,,,,,,,,,,,,,0,1,1,1,0,11,11,16,-0.3851851851851852,-0.1638888888888889,1,0,0,5.656146500026807,call3,0.07175925925925926,0.2861111111111111,1,0,0,6.46870939998189,colour1,False,True,True,0.45925925925925926,0.28888888888888886,1,0,0,6.973489199997857,number1,21,1,2019_Nov_14_1707,MA_Theta_Exp,3.0.7,61.10273326507573,
