videoFile,condition,video,speaker,callSign,colour,number,seq,id,block,exp.thisRepN,exp.thisTrialN,exp.thisN,exp.thisIndex,training.thisRepN,training.thisTrialN,training.thisN,training.thisIndex,firstHalf.thisRepN,firstHalf.thisTrialN,firstHalf.thisN,firstHalf.thisIndex,blocksA.thisRepN,blocksA.thisTrialN,blocksA.thisN,blocksA.thisIndex,secondHalf.thisRepN,secondHalf.thisTrialN,secondHalf.thisN,secondHalf.thisIndex,blocksB.thisRepN,blocksB.thisTrialN,blocksB.thisN,blocksB.thisIndex,mouseClickOnCall.x,mouseClickOnCall.y,mouseClickOnCall.leftButton,mouseClickOnCall.midButton,mouseClickOnCall.rightButton,mouseClickOnCall.time,mouseClickOnCall.clicked_name,mouseClickOnColour.x,mouseClickOnColour.y,mouseClickOnColour.leftButton,mouseClickOnColour.midButton,mouseClickOnColour.rightButton,mouseClickOnColour.time,mouseClickOnColour.clicked_name,mouseClickOnNumber.x,mouseClickOnNumber.y,mouseClickOnNumber.leftButton,mouseClickOnNumber.midButton,mouseClickOnNumber.rightButton,mouseClickOnNumber.time,mouseClickOnNumber.clicked_name,callSignCorrect,colourCorrect,numberCorrect,participant,order,date,expName,psychopyVersion,frameRate,
video/Training/zh_sp01_Ad_We_4_NVocInAudio_NoVideo.avi,vocoded,noVideo,sp01,Ad,We,4,,,,,,,,0,0,0,0,,,,,,,,,,,,,,,,,-0.42916666666666664,0.3111111111111111,1,0,0,6.4027249999926426,call1,0.001388888888888889,-0.31666666666666665,1,0,0,7.564348499989137,colour4,0.48333333333333334,-0.27175925925925926,1,0,0,8.71480449999217,number4,True,True,True,22,2,2019_Nov_15_1401,MA_Theta_Exp,3.0.7,60.0633788635217,
video/Training/zh_sp07_Ad_Ge_3_NVocInAudio_NoVideo.avi,vocoded,noVideo,sp07,Ad,Ge,3,,,,,,,,0,1,1,1,,,,,,,,,,,,,,,,,-0.46111111111111114,0.28935185185185186,1,0,0,4.684142199985217,call1,0.015277777777777777,0.300462962962963,1,0,0,6.4842310000094585,colour1,0.425,-0.13564814814814816,1,0,0,7.866901399975177,number3,True,True,True,22,2,2019_Nov_15_1401,MA_Theta_Exp,3.0.7,60.0633788635217,
video/Training/zh_sp01_Dr_Ro_3_NVocInAudio_GlobalThetaInVideo.avi,vocoded,plusVideo,sp01,Dr,Ro,3,,,,,,,,0,2,2,2,,,,,,,,,,,,,,,,,-0.3736111111111111,0.0824074074074074,1,0,0,5.995299700007308,call2,0.03611111111111111,-0.14537037037037037,1,0,0,6.895182699954603,colour3,0.4388888888888889,-0.10694444444444444,1,0,0,7.812907000014093,number3,True,True,True,22,2,2019_Nov_15_1401,MA_Theta_Exp,3.0.7,60.0633788635217,
video/Training/zh_sp07_Dr_Gr_4_NVocInAudio_GlobalThetaInVideo.avi,vocoded,plusVideo,sp07,Dr,Gr,4,,,,,,,,0,3,3,3,,,,,,,,,,,,,,,,,-0.4527777777777778,0.1388888888888889,1,0,0,6.165475299989339,call2,0.07083333333333333,0.34305555555555556,1,0,0,7.26522699999623,colour1,0.39166666666666666,-0.33564814814814814,1,0,0,8.54915889998665,number4,True,False,True,22,2,2019_Nov_15_1401,MA_Theta_Exp,3.0.7,60.0633788635217,
video/Training/zh_sp01_Ti_Gr_2_NoThetaInAudio_NoVideo.avi,noTheta,noVideo,sp01,Ti,Gr,2,,,,,,,,0,4,4,4,,,,,,,,,,,,,,,,,-0.4,0.14444444444444443,1,0,0,6.989321500004735,call2,-0.02638888888888889,0.30833333333333335,1,0,0,8.739703300001565,colour1,0.34444444444444444,0.09074074074074075,1,0,0,9.540122499980498,number2,False,False,True,22,2,2019_Nov_15_1401,MA_Theta_Exp,3.0.7,60.0633788635217,
video/Training/zh_sp07_Ti_Ro_1_NoThetaInAudio_NoVideo.avi,noTheta,noVideo,sp07,Ti,Ro,1,,,,,,,,0,5,5,5,,,,,,,,,,,,,,,,,-0.4097222222222222,-0.0912037037037037,1,0,0,4.911459000024479,call3,0.06388888888888888,0.075,1,0,0,6.043668300029822,colour2,0.38055555555555554,0.3055555555555556,1,0,0,7.209715600009076,number1,True,False,True,22,2,2019_Nov_15_1401,MA_Theta_Exp,3.0.7,60.0633788635217,
video/Training/zh_sp01_Un_Ge_1_NoThetaInAudio_GlobalThetaInVideo.avi,noTheta,plusVideo,sp01,Un,Ge,1,,,,,,,,0,6,6,6,,,,,,,,,,,,,,,,,-0.43472222222222223,0.12962962962962962,1,0,0,5.300448799971491,call2,-0.001388888888888889,0.3125,1,0,0,5.995867700024974,colour1,0.3819444444444444,0.31527777777777777,1,0,0,6.64603000000352,number1,False,True,True,22,2,2019_Nov_15_1401,MA_Theta_Exp,3.0.7,60.0633788635217,
video/Training/zh_sp07_Un_We_2_NoThetaInAudio_GlobalThetaInVideo.avi,noTheta,plusVideo,sp07,Un,We,2,,,,,,,,0,7,7,7,,,,,,,,,,,,,,,,,-0.4638888888888889,-0.27870370370370373,1,0,0,4.356054599978961,call4,-0.019444444444444445,-0.2523148148148148,1,0,0,5.3048854999942705,colour4,0.42777777777777776,0.1337962962962963,1,0,0,6.626420899992809,number2,True,True,True,22,2,2019_Nov_15_1401,MA_Theta_Exp,3.0.7,60.0633788635217,
video/Training/zh_sp01_Ad_Ge_1_GlobalTheta_NoVideo.avi,globalTheta,noVideo,sp01,Ad,Ge,1,,,,,,,,0,8,8,8,,,,,,,,,,,,,,,,,-0.41388888888888886,0.275,1,0,0,5.059654900047462,call1,0.03194444444444444,0.3,1,0,0,5.894042300002184,colour1,0.44583333333333336,0.27546296296296297,1,0,0,7.181083899980877,number1,True,True,True,22,2,2019_Nov_15_1401,MA_Theta_Exp,3.0.7,60.0633788635217,
video/Training/zh_sp07_Ad_Ro_3_GlobalTheta_NoVideo.avi,globalTheta,noVideo,sp07,Ad,Ro,3,,,,,,,,0,9,9,9,,,,,,,,,,,,,,,,,-0.40694444444444444,0.12546296296296297,1,0,0,5.417042099987157,call2,-0.015277777777777777,-0.13287037037037036,1,0,0,6.571562900033314,colour3,0.375,-0.3578703703703704,1,0,0,7.933853399998043,number4,False,True,False,22,2,2019_Nov_15_1401,MA_Theta_Exp,3.0.7,60.0633788635217,
video/Experiment/zh_sp07_Dr_Ro_3_NoThetaInAudio_GlobalThetaInVideo.avi,noTheta,plusVideo,sp07,Dr,Ro,3,0,3,flow/blocks/NoThetaInAudio_GlobalThetaInVideo_A.csv,,,,,,,,,0,0,0,0,0,0,0,26,,,,,,,,,-0.4222222222222222,0.08796296296296297,1,0,0,5.686000499990769,call2,0.027777777777777776,0.2875,1,0,0,6.470250300015323,colour1,0.35833333333333334,-0.3388888888888889,1,0,0,7.63694660004694,number4,True,False,False,22,2,2019_Nov_15_1401,MA_Theta_Exp,3.0.7,60.0633788635217,
video/Experiment/zh_sp07_Dr_We_1_NoThetaInAudio_GlobalThetaInVideo.avi,noTheta,plusVideo,sp07,Dr,We,1,0,3,flow/blocks/NoThetaInAudio_GlobalThetaInVideo_A.csv,,,,,,,,,0,0,0,0,0,1,1,28,,,,,,,,,-0.4361111111111111,0.09305555555555556,1,0,0,5.035340000002179,call2,-0.001388888888888889,-0.32314814814814813,1,0,0,6.068173200008459,colour4,0.41805555555555557,0.3277777777777778,1,0,0,6.971940300019924,number1,True,True,True,22,2,2019_Nov_15_1401,MA_Theta_Exp,3.0.7,60.0633788635217,
video/Experiment/zh_sp07_Dr_Ro_1_NoThetaInAudio_GlobalThetaInVideo.avi,noTheta,plusVideo,sp07,Dr,Ro,1,0,3,flow/blocks/NoThetaInAudio_GlobalThetaInVideo_A.csv,,,,,,,,,0,0,0,0,0,2,2,24,,,,,,,,,-0.41805555555555557,0.2569444444444444,1,0,0,5.06203650002135,call1,-0.025,-0.13564814814814816,1,0,0,5.842605700017884,colour3,0.42777777777777776,0.3416666666666667,1,0,0,7.028607599961106,number1,False,True,True,22,2,2019_Nov_15_1401,MA_Theta_Exp,3.0.7,60.0633788635217,
video/Experiment/zh_sp07_Ad_We_4_NoThetaInAudio_GlobalThetaInVideo.avi,noTheta,plusVideo,sp07,Ad,We,4,0,3,flow/blocks/NoThetaInAudio_GlobalThetaInVideo_A.csv,,,,,,,,,0,0,0,0,0,3,3,15,,,,,,,,,-0.44305555555555554,0.11527777777777778,1,0,0,5.526841500017326,call2,-0.02361111111111111,-0.33425925925925926,1,0,0,6.393158299964853,colour4,0.34444444444444444,-0.30833333333333335,1,0,0,7.2766734000178985,number4,False,True,True,22,2,2019_Nov_15_1401,MA_Theta_Exp,3.0.7,60.0633788635217,
video/Experiment/zh_sp01_Dr_Gr_2_NoThetaInAudio_GlobalThetaInVideo.avi,noTheta,plusVideo,sp01,Dr,Gr,2,0,3,flow/blocks/NoThetaInAudio_GlobalThetaInVideo_A.csv,,,,,,,,,0,0,0,0,0,4,4,21,,,,,,,,,-0.46944444444444444,0.17083333333333334,1,0,0,5.44678150000982,call2,-0.04027777777777778,-0.32037037037037036,1,0,0,6.311107699992135,colour4,0.4027777777777778,0.12916666666666668,1,0,0,7.132305899984203,number2,True,False,True,22,2,2019_Nov_15_1401,MA_Theta_Exp,3.0.7,60.0633788635217,
video/Experiment/zh_sp01_Dr_Ge_3_NoThetaInAudio_GlobalThetaInVideo.avi,noTheta,plusVideo,sp01,Dr,Ge,3,0,3,flow/blocks/NoThetaInAudio_GlobalThetaInVideo_A.csv,,,,,,,,,0,0,0,0,0,5,5,18,,,,,,,,,-0.41388888888888886,0.11574074074074074,1,0,0,5.031580099952407,call2,0.020833333333333332,0.3,1,0,0,5.811006999982055,colour1,0.34444444444444444,-0.14675925925925926,1,0,0,6.893261999997776,number3,True,True,True,22,2,2019_Nov_15_1401,MA_Theta_Exp,3.0.7,60.0633788635217,
video/Experiment/zh_sp01_Ad_Ro_4_NoThetaInAudio_GlobalThetaInVideo.avi,noTheta,plusVideo,sp01,Ad,Ro,4,0,3,flow/blocks/NoThetaInAudio_GlobalThetaInVideo_A.csv,,,,,,,,,0,0,0,0,0,6,6,11,,,,,,,,,-0.4375,0.14722222222222223,1,0,0,5.475070699991193,call2,-0.002777777777777778,-0.12314814814814815,1,0,0,6.224214799993206,colour3,0.46805555555555556,-0.3453703703703704,1,0,0,7.040926499990746,number4,False,True,True,22,2,2019_Nov_15_1401,MA_Theta_Exp,3.0.7,60.0633788635217,
video/Experiment/zh_sp01_Ad_Ro_3_NoThetaInAudio_GlobalThetaInVideo.avi,noTheta,plusVideo,sp01,Ad,Ro,3,0,3,flow/blocks/NoThetaInAudio_GlobalThetaInVideo_A.csv,,,,,,,,,0,0,0,0,0,7,7,10,,,,,,,,,-0.4388888888888889,-0.1537037037037037,1,0,0,6.305133600020781,call3,-0.059722222222222225,0.07361111111111111,1,0,0,7.171267599973362,colour2,0.4263888888888889,-0.09675925925925925,1,0,0,8.054858900024556,number3,False,False,True,22,2,2019_Nov_15_1401,MA_Theta_Exp,3.0.7,60.0633788635217,
video/Experiment/zh_sp07_Ad_Ge_1_NoThetaInAudio_GlobalThetaInVideo.avi,noTheta,plusVideo,sp07,Ad,Ge,1,0,3,flow/blocks/NoThetaInAudio_GlobalThetaInVideo_A.csv,,,,,,,,,0,0,0,0,0,8,8,0,,,,,,,,,-0.4722222222222222,0.11574074074074074,1,0,0,4.638210900011472,call2,0.006944444444444444,0.25833333333333336,1,0,0,5.372082399961073,colour1,0.4013888888888889,0.2986111111111111,1,0,0,6.4070186000317335,number1,False,True,True,22,2,2019_Nov_15_1401,MA_Theta_Exp,3.0.7,60.0633788635217,
video/Experiment/zh_sp01_Ad_Ge_3_NoThetaInAudio_GlobalThetaInVideo.avi,noTheta,plusVideo,sp01,Ad,Ge,3,0,3,flow/blocks/NoThetaInAudio_GlobalThetaInVideo_A.csv,,,,,,,,,0,0,0,0,0,9,9,2,,,,,,,,,-0.4791666666666667,0.36574074074074076,1,0,0,4.668433899991214,call1,-0.044444444444444446,0.3337962962962963,1,0,0,5.484646600030828,colour1,0.37916666666666665,-0.08148148148148149,1,0,0,6.533788000000641,number3,True,True,True,22,2,2019_Nov_15_1401,MA_Theta_Exp,3.0.7,60.0633788635217,
video/Experiment/zh_sp07_Ad_Ro_1_NoThetaInAudio_GlobalThetaInVideo.avi,noTheta,plusVideo,sp07,Ad,Ro,1,0,3,flow/blocks/NoThetaInAudio_GlobalThetaInVideo_A.csv,,,,,,,,,0,0,0,0,0,10,10,8,,,,,,,,,-0.42777777777777776,0.30277777777777776,1,0,0,5.108174900000449,call1,0.025,0.07824074074074074,1,0,0,5.991238299990073,colour2,0.4083333333333333,0.29305555555555557,1,0,0,6.926298699981999,number1,True,False,True,22,2,2019_Nov_15_1401,MA_Theta_Exp,3.0.7,60.0633788635217,
video/Experiment/zh_sp07_Ad_We_2_NoThetaInAudio_GlobalThetaInVideo.avi,noTheta,plusVideo,sp07,Ad,We,2,0,3,flow/blocks/NoThetaInAudio_GlobalThetaInVideo_A.csv,,,,,,,,,0,0,0,0,0,11,11,13,,,,,,,,,-0.4152777777777778,0.34305555555555556,1,0,0,4.768453700002283,call1,-0.022222222222222223,-0.3800925925925926,1,0,0,5.704636899987236,colour4,0.40694444444444444,0.1361111111111111,1,0,0,7.068118700000923,number2,True,True,True,22,2,2019_Nov_15_1401,MA_Theta_Exp,3.0.7,60.0633788635217,
video/Experiment/zh_sp01_Dr_Ge_4_NoThetaInAudio_GlobalThetaInVideo.avi,noTheta,plusVideo,sp01,Dr,Ge,4,0,3,flow/blocks/NoThetaInAudio_GlobalThetaInVideo_A.csv,,,,,,,,,0,0,0,0,0,12,12,19,,,,,,,,,-0.39444444444444443,0.30694444444444446,1,0,0,5.628168500028551,call1,-0.016666666666666666,0.32083333333333336,1,0,0,6.427335799962748,colour1,0.3875,-0.32037037037037036,1,0,0,7.4103992999880575,number4,False,True,True,22,2,2019_Nov_15_1401,MA_Theta_Exp,3.0.7,60.0633788635217,
video/Experiment/zh_sp01_Dr_Gr_3_NoThetaInAudio_GlobalThetaInVideo.avi,noTheta,plusVideo,sp01,Dr,Gr,3,0,3,flow/blocks/NoThetaInAudio_GlobalThetaInVideo_A.csv,,,,,,,,,0,0,0,0,0,13,13,22,,,,,,,,,-0.4652777777777778,-0.30092592592592593,1,0,0,6.180588399991393,call4,0.07222222222222222,0.12083333333333333,1,0,0,6.96230180002749,colour2,0.39444444444444443,-0.09675925925925925,1,0,0,7.850124199991114,number3,False,True,True,22,2,2019_Nov_15_1401,MA_Theta_Exp,3.0.7,60.0633788635217,
video/Experiment/zh_sp01_Dr_Ge_2_NoThetaInAudio_GlobalThetaInVideo.avi,noTheta,plusVideo,sp01,Dr,Ge,2,0,3,flow/blocks/NoThetaInAudio_GlobalThetaInVideo_A.csv,,,,,,,,,0,0,0,0,0,14,14,17,,,,,,,,,-0.4111111111111111,0.14583333333333334,1,0,0,5.170604099985212,call2,-0.034722222222222224,0.36527777777777776,1,0,0,6.014984700013883,colour1,0.3472222222222222,0.11157407407407408,1,0,0,6.915436499984935,number2,True,True,True,22,2,2019_Nov_15_1401,MA_Theta_Exp,3.0.7,60.0633788635217,
video/Experiment/zh_sp01_Dr_We_3_NoThetaInAudio_GlobalThetaInVideo.avi,noTheta,plusVideo,sp01,Dr,We,3,0,3,flow/blocks/NoThetaInAudio_GlobalThetaInVideo_A.csv,,,,,,,,,0,0,0,0,0,15,15,30,,,,,,,,,-0.4111111111111111,0.11944444444444445,1,0,0,5.335909099958371,call2,0.004166666666666667,-0.33564814814814814,1,0,0,6.237041599990334,colour4,0.4041666666666667,-0.07175925925925926,1,0,0,7.418521000014152,number3,True,True,True,22,2,2019_Nov_15_1401,MA_Theta_Exp,3.0.7,60.0633788635217,
video/Experiment/zh_sp01_Ad_Ro_2_NoThetaInAudio_GlobalThetaInVideo.avi,noTheta,plusVideo,sp01,Ad,Ro,2,0,3,flow/blocks/NoThetaInAudio_GlobalThetaInVideo_A.csv,,,,,,,,,0,0,0,0,0,16,16,9,,,,,,,,,-0.4388888888888889,-0.09675925925925925,1,0,0,6.334921500005294,call3,0.06388888888888888,0.08055555555555556,1,0,0,7.269247299991548,colour2,0.38472222222222224,0.11388888888888889,1,0,0,8.069275500020012,number2,False,False,True,22,2,2019_Nov_15_1401,MA_Theta_Exp,3.0.7,60.0633788635217,
video/Experiment/zh_sp01_Dr_We_4_NoThetaInAudio_GlobalThetaInVideo.avi,noTheta,plusVideo,sp01,Dr,We,4,0,3,flow/blocks/NoThetaInAudio_GlobalThetaInVideo_A.csv,,,,,,,,,0,0,0,0,0,17,17,31,,,,,,,,,-0.3972222222222222,-0.31342592592592594,1,0,0,6.260947500006296,call4,-0.07222222222222222,-0.28888888888888886,1,0,0,7.107206499960739,colour4,0.3861111111111111,-0.3162037037037037,1,0,0,7.890106500010006,number4,False,True,True,22,2,2019_Nov_15_1401,MA_Theta_Exp,3.0.7,60.0633788635217,
video/Experiment/zh_sp01_Ad_Gr_1_NoThetaInAudio_GlobalThetaInVideo.avi,noTheta,plusVideo,sp01,Ad,Gr,1,0,3,flow/blocks/NoThetaInAudio_GlobalThetaInVideo_A.csv,,,,,,,,,0,0,0,0,0,18,18,4,,,,,,,,,-0.4263888888888889,-0.09398148148148149,1,0,0,6.40015579998726,call3,0.09722222222222222,0.07777777777777778,1,0,0,7.299248700030148,colour2,0.3597222222222222,0.30694444444444446,1,0,0,8.632804099994246,number1,False,True,True,22,2,2019_Nov_15_1401,MA_Theta_Exp,3.0.7,60.0633788635217,
video/Experiment/zh_sp01_Ad_Gr_2_NoThetaInAudio_GlobalThetaInVideo.avi,noTheta,plusVideo,sp01,Ad,Gr,2,0,3,flow/blocks/NoThetaInAudio_GlobalThetaInVideo_A.csv,,,,,,,,,0,0,0,0,0,19,19,5,,,,,,,,,-0.4222222222222222,0.34305555555555556,1,0,0,5.692533799970988,call1,-0.05277777777777778,-0.1412037037037037,1,0,0,6.50349890004145,colour3,0.36666666666666664,0.12222222222222222,1,0,0,7.60323760000756,number2,True,False,True,22,2,2019_Nov_15_1401,MA_Theta_Exp,3.0.7,60.0633788635217,
video/Experiment/zh_sp07_Dr_Gr_4_NoThetaInAudio_GlobalThetaInVideo.avi,noTheta,plusVideo,sp07,Dr,Gr,4,0,3,flow/blocks/NoThetaInAudio_GlobalThetaInVideo_A.csv,,,,,,,,,0,0,0,0,0,20,20,23,,,,,,,,,-0.39444444444444443,0.09861111111111111,1,0,0,5.679647099983413,call2,-0.011111111111111112,-0.35648148148148145,1,0,0,6.528810199990403,colour4,0.3875,-0.25833333333333336,1,0,0,7.378696000028867,number4,True,False,True,22,2,2019_Nov_15_1401,MA_Theta_Exp,3.0.7,60.0633788635217,
video/Experiment/zh_sp07_Ad_Gr_4_NoThetaInAudio_GlobalThetaInVideo.avi,noTheta,plusVideo,sp07,Ad,Gr,4,0,3,flow/blocks/NoThetaInAudio_GlobalThetaInVideo_A.csv,,,,,,,,,0,0,0,0,0,21,21,7,,,,,,,,,-0.4638888888888889,-0.24722222222222223,1,0,0,5.489244399999734,call4,0.004166666666666667,0.09166666666666666,1,0,0,6.256142599973828,colour2,0.34444444444444444,-0.32175925925925924,1,0,0,7.372178000048734,number4,False,True,True,22,2,2019_Nov_15_1401,MA_Theta_Exp,3.0.7,60.0633788635217,
video/Experiment/zh_sp07_Ad_We_1_NoThetaInAudio_GlobalThetaInVideo.avi,noTheta,plusVideo,sp07,Ad,We,1,0,3,flow/blocks/NoThetaInAudio_GlobalThetaInVideo_A.csv,,,,,,,,,0,0,0,0,0,22,22,12,,,,,,,,,-0.43194444444444446,0.35694444444444445,1,0,0,5.801192400045693,call1,0.018055555555555554,0.11157407407407408,1,0,0,7.104214699997101,colour2,0.39861111111111114,0.3388888888888889,1,0,0,8.00046419998398,number1,True,False,True,22,2,2019_Nov_15_1401,MA_Theta_Exp,3.0.7,60.0633788635217,
video/Experiment/zh_sp07_Ad_Ge_2_NoThetaInAudio_GlobalThetaInVideo.avi,noTheta,plusVideo,sp07,Ad,Ge,2,0,3,flow/blocks/NoThetaInAudio_GlobalThetaInVideo_A.csv,,,,,,,,,0,0,0,0,0,23,23,1,,,,,,,,,-0.46805555555555556,0.3101851851851852,1,0,0,4.474558799993247,call1,0.05416666666666667,-0.12037037037037036,1,0,0,5.524191199976485,colour3,0.4666666666666667,0.12222222222222222,1,0,0,6.626543399994262,number2,True,False,True,22,2,2019_Nov_15_1401,MA_Theta_Exp,3.0.7,60.0633788635217,
video/Experiment/zh_sp07_Dr_We_2_NoThetaInAudio_GlobalThetaInVideo.avi,noTheta,plusVideo,sp07,Dr,We,2,0,3,flow/blocks/NoThetaInAudio_GlobalThetaInVideo_A.csv,,,,,,,,,0,0,0,0,0,24,24,29,,,,,,,,,-0.41388888888888886,0.12407407407407407,1,0,0,5.001327199977823,call2,-0.004166666666666667,-0.3439814814814815,1,0,0,5.834688000031747,colour4,0.46805555555555556,0.3458333333333333,1,0,0,6.750411599990912,number1,True,True,False,22,2,2019_Nov_15_1401,MA_Theta_Exp,3.0.7,60.0633788635217,
video/Experiment/zh_sp07_Dr_Ge_1_NoThetaInAudio_GlobalThetaInVideo.avi,noTheta,plusVideo,sp07,Dr,Ge,1,0,3,flow/blocks/NoThetaInAudio_GlobalThetaInVideo_A.csv,,,,,,,,,0,0,0,0,0,25,25,16,,,,,,,,,-0.42777777777777776,0.2986111111111111,1,0,0,5.136325899977237,call1,0.03611111111111111,0.09907407407407408,1,0,0,6.169966400018893,colour2,0.46944444444444444,0.27361111111111114,1,0,0,7.1859913999796845,number1,False,False,True,22,2,2019_Nov_15_1401,MA_Theta_Exp,3.0.7,60.0633788635217,
video/Experiment/zh_sp01_Ad_Ge_4_NoThetaInAudio_GlobalThetaInVideo.avi,noTheta,plusVideo,sp01,Ad,Ge,4,0,3,flow/blocks/NoThetaInAudio_GlobalThetaInVideo_A.csv,,,,,,,,,0,0,0,0,0,26,26,3,,,,,,,,,-0.35138888888888886,0.3013888888888889,1,0,0,5.925711199990474,call1,-0.011111111111111112,0.3194444444444444,1,0,0,6.673791499983054,colour1,0.37083333333333335,-0.3023148148148148,1,0,0,7.574264099996071,number4,True,True,True,22,2,2019_Nov_15_1401,MA_Theta_Exp,3.0.7,60.0633788635217,
video/Experiment/zh_sp07_Ad_We_3_NoThetaInAudio_GlobalThetaInVideo.avi,noTheta,plusVideo,sp07,Ad,We,3,0,3,flow/blocks/NoThetaInAudio_GlobalThetaInVideo_A.csv,,,,,,,,,0,0,0,0,0,27,27,14,,,,,,,,,-0.4,0.31527777777777777,1,0,0,4.462734500004444,call1,-0.05277777777777778,-0.3675925925925926,1,0,0,5.29624260001583,colour4,0.4444444444444444,-0.28425925925925927,1,0,0,6.130326299986336,number4,True,True,False,22,2,2019_Nov_15_1401,MA_Theta_Exp,3.0.7,60.0633788635217,
video/Experiment/zh_sp01_Dr_Ro_2_NoThetaInAudio_GlobalThetaInVideo.avi,noTheta,plusVideo,sp01,Dr,Ro,2,0,3,flow/blocks/NoThetaInAudio_GlobalThetaInVideo_A.csv,,,,,,,,,0,0,0,0,0,28,28,25,,,,,,,,,-0.39305555555555555,0.13194444444444445,1,0,0,5.1474015999701805,call2,0.05138888888888889,-0.13842592592592592,1,0,0,5.897448200033978,colour3,0.37916666666666665,0.15555555555555556,1,0,0,6.6974692000076175,number2,True,True,True,22,2,2019_Nov_15_1401,MA_Theta_Exp,3.0.7,60.0633788635217,
video/Experiment/zh_sp01_Ad_Gr_3_NoThetaInAudio_GlobalThetaInVideo.avi,noTheta,plusVideo,sp01,Ad,Gr,3,0,3,flow/blocks/NoThetaInAudio_GlobalThetaInVideo_A.csv,,,,,,,,,0,0,0,0,0,29,29,6,,,,,,,,,-0.45555555555555555,0.30277777777777776,1,0,0,5.078059899969958,call1,-0.025,0.08935185185185185,1,0,0,5.694660600041971,colour2,0.3875,-0.1675925925925926,1,0,0,6.460863400017843,number3,True,True,True,22,2,2019_Nov_15_1401,MA_Theta_Exp,3.0.7,60.0633788635217,
video/Experiment/zh_sp07_Dr_Gr_1_NoThetaInAudio_GlobalThetaInVideo.avi,noTheta,plusVideo,sp07,Dr,Gr,1,0,3,flow/blocks/NoThetaInAudio_GlobalThetaInVideo_A.csv,,,,,,,,,0,0,0,0,0,30,30,20,,,,,,,,,-0.39861111111111114,0.125,1,0,0,4.635941999964416,call2,0.001388888888888889,0.1361111111111111,1,0,0,5.303069400019012,colour2,0.4166666666666667,0.31666666666666665,1,0,0,5.935801399988122,number1,True,True,True,22,2,2019_Nov_15_1401,MA_Theta_Exp,3.0.7,60.0633788635217,
video/Experiment/zh_sp07_Dr_Ro_4_NoThetaInAudio_GlobalThetaInVideo.avi,noTheta,plusVideo,sp07,Dr,Ro,4,0,3,flow/blocks/NoThetaInAudio_GlobalThetaInVideo_A.csv,,,,,,,,,0,0,0,0,0,31,31,27,,,,,,,,,-0.4375,0.300462962962963,1,0,0,4.324448800005484,call1,-0.05138888888888889,0.29768518518518516,1,0,0,4.9548628000193276,colour1,0.3375,-0.2884259259259259,1,0,0,5.821395000035409,number4,False,False,True,22,2,2019_Nov_15_1401,MA_Theta_Exp,3.0.7,60.0633788635217,
video/Experiment/zh_sp01_Dr_We_2_GlobalTheta_NoVideo.avi,globalTheta,noVideo,sp01,Dr,We,2,1,5,flow/blocks/GlobalTheta_NoVideo_A.csv,,,,,,,,,0,1,1,1,0,0,0,29,,,,,,,,,-0.37916666666666665,0.13472222222222222,1,0,0,5.6681986000039615,call2,-0.002777777777777778,-0.29814814814814816,1,0,0,6.818937500007451,colour4,0.44583333333333336,0.10416666666666667,1,0,0,7.8357263000216335,number2,True,True,True,22,2,2019_Nov_15_1401,MA_Theta_Exp,3.0.7,60.0633788635217,
video/Experiment/zh_sp07_Ad_Ro_2_GlobalTheta_NoVideo.avi,globalTheta,noVideo,sp07,Ad,Ro,2,1,5,flow/blocks/GlobalTheta_NoVideo_A.csv,,,,,,,,,0,1,1,1,0,1,1,9,,,,,,,,,-0.4111111111111111,0.2791666666666667,1,0,0,4.919539800030179,call1,-0.005555555555555556,0.3,1,0,0,5.968268500000704,colour1,0.44166666666666665,0.0962962962962963,1,0,0,6.886328999942634,number2,True,False,True,22,2,2019_Nov_15_1401,MA_Theta_Exp,3.0.7,60.0633788635217,
video/Experiment/zh_sp07_Dr_Gr_4_GlobalTheta_NoVideo.avi,globalTheta,noVideo,sp07,Dr,Gr,4,1,5,flow/blocks/GlobalTheta_NoVideo_A.csv,,,,,,,,,0,1,1,1,0,2,2,23,,,,,,,,,-0.41805555555555557,0.32222222222222224,1,0,0,4.270735099969897,call1,-0.04861111111111111,0.11851851851851852,1,0,0,4.936910899996292,colour2,0.3763888888888889,-0.12731481481481483,1,0,0,5.754032200027723,number3,False,True,False,22,2,2019_Nov_15_1401,MA_Theta_Exp,3.0.7,60.0633788635217,
video/Experiment/zh_sp01_Ad_Ge_3_GlobalTheta_NoVideo.avi,globalTheta,noVideo,sp01,Ad,Ge,3,1,5,flow/blocks/GlobalTheta_NoVideo_A.csv,,,,,,,,,0,1,1,1,0,3,3,2,,,,,,,,,-0.40555555555555556,0.3055555555555556,1,0,0,5.473007199994754,call1,0.008333333333333333,0.2875,1,0,0,6.221947899961378,colour1,0.39166666666666666,-0.12731481481481483,1,0,0,7.155657100025564,number3,True,True,True,22,2,2019_Nov_15_1401,MA_Theta_Exp,3.0.7,60.0633788635217,
video/Experiment/zh_sp01_Ad_We_3_GlobalTheta_NoVideo.avi,globalTheta,noVideo,sp01,Ad,We,3,1,5,flow/blocks/GlobalTheta_NoVideo_A.csv,,,,,,,,,0,1,1,1,0,4,4,14,,,,,,,,,-0.44583333333333336,0.2833333333333333,1,0,0,4.903059000032954,call1,-0.022222222222222223,-0.32592592592592595,1,0,0,5.703383999993093,colour4,0.44027777777777777,-0.0763888888888889,1,0,0,6.502663099963684,number3,True,True,True,22,2,2019_Nov_15_1401,MA_Theta_Exp,3.0.7,60.0633788635217,
video/Experiment/zh_sp07_Ad_Ro_1_GlobalTheta_NoVideo.avi,globalTheta,noVideo,sp07,Ad,Ro,1,1,5,flow/blocks/GlobalTheta_NoVideo_A.csv,,,,,,,,,0,1,1,1,0,5,5,8,,,,,,,,,-0.4152777777777778,0.12962962962962962,1,0,0,4.823707100003958,call2,0.03333333333333333,0.075,1,0,0,5.772605100006331,colour2,0.43194444444444446,0.29583333333333334,1,0,0,6.605965299997479,number1,False,False,True,22,2,2019_Nov_15_1401,MA_Theta_Exp,3.0.7,60.0633788635217,
video/Experiment/zh_sp07_Dr_Ge_1_GlobalTheta_NoVideo.avi,globalTheta,noVideo,sp07,Dr,Ge,1,1,5,flow/blocks/GlobalTheta_NoVideo_A.csv,,,,,,,,,0,1,1,1,0,6,6,16,,,,,,,,,-0.4097222222222222,-0.2800925925925926,1,0,0,5.000907499983441,call4,-0.025,-0.3037037037037037,1,0,0,5.884245100023691,colour4,0.4166666666666667,0.23194444444444445,1,0,0,6.73665069998242,number1,False,False,True,22,2,2019_Nov_15_1401,MA_Theta_Exp,3.0.7,60.0633788635217,
video/Experiment/zh_sp01_Ad_Ro_4_GlobalTheta_NoVideo.avi,globalTheta,noVideo,sp01,Ad,Ro,4,1,5,flow/blocks/GlobalTheta_NoVideo_A.csv,,,,,,,,,0,1,1,1,0,7,7,11,,,,,,,,,-0.3958333333333333,0.3194444444444444,1,0,0,5.070344900013879,call1,0.0,0.32407407407407407,1,0,0,5.820544799964409,colour1,0.375,-0.3162037037037037,1,0,0,6.821276200003922,number4,True,False,True,22,2,2019_Nov_15_1401,MA_Theta_Exp,3.0.7,60.0633788635217,
video/Experiment/zh_sp07_Dr_Ge_2_GlobalTheta_NoVideo.avi,globalTheta,noVideo,sp07,Dr,Ge,2,1,5,flow/blocks/GlobalTheta_NoVideo_A.csv,,,,,,,,,0,1,1,1,0,8,8,17,,,,,,,,,-0.4777777777777778,0.11574074074074074,1,0,0,4.6304663000046276,call2,0.009722222222222222,0.2791666666666667,1,0,0,5.363671500002965,colour1,0.39861111111111114,0.29583333333333334,1,0,0,6.163643300009426,number1,True,True,False,22,2,2019_Nov_15_1401,MA_Theta_Exp,3.0.7,60.0633788635217,
video/Experiment/zh_sp01_Dr_Gr_2_GlobalTheta_NoVideo.avi,globalTheta,noVideo,sp01,Dr,Gr,2,1,5,flow/blocks/GlobalTheta_NoVideo_A.csv,,,,,,,,,0,1,1,1,0,9,9,21,,,,,,,,,-0.39166666666666666,-0.3662037037037037,1,0,0,5.106964299979154,call4,0.02361111111111111,0.3013888888888889,1,0,0,6.370669200026896,colour1,0.4222222222222222,0.11296296296296296,1,0,0,7.129285999981221,number2,False,False,True,22,2,2019_Nov_15_1401,MA_Theta_Exp,3.0.7,60.0633788635217,
video/Experiment/zh_sp01_Dr_Ro_3_GlobalTheta_NoVideo.avi,globalTheta,noVideo,sp01,Dr,Ro,3,1,5,flow/blocks/GlobalTheta_NoVideo_A.csv,,,,,,,,,0,1,1,1,0,10,10,26,,,,,,,,,-0.4111111111111111,0.06712962962962964,1,0,0,5.086606599972583,call2,0.022222222222222223,0.09768518518518518,1,0,0,5.787020400050096,colour2,0.4375,-0.14537037037037037,1,0,0,6.522458599996753,number3,True,False,True,22,2,2019_Nov_15_1401,MA_Theta_Exp,3.0.7,60.0633788635217,
video/Experiment/zh_sp07_Ad_We_4_GlobalTheta_NoVideo.avi,globalTheta,noVideo,sp07,Ad,We,4,1,5,flow/blocks/GlobalTheta_NoVideo_A.csv,,,,,,,,,0,1,1,1,0,11,11,15,,,,,,,,,-0.4527777777777778,0.3,1,0,0,4.339180600014515,call1,-0.03611111111111111,-0.36064814814814816,1,0,0,5.142583300010301,colour4,0.4041666666666667,-0.28888888888888886,1,0,0,5.921149700006936,number4,True,True,True,22,2,2019_Nov_15_1401,MA_Theta_Exp,3.0.7,60.0633788635217,
video/Experiment/zh_sp07_Ad_Gr_4_GlobalTheta_NoVideo.avi,globalTheta,noVideo,sp07,Ad,Gr,4,1,5,flow/blocks/GlobalTheta_NoVideo_A.csv,,,,,,,,,0,1,1,1,0,12,12,7,,,,,,,,,-0.4236111111111111,0.33611111111111114,1,0,0,4.16869099996984,call1,0.011111111111111112,0.09351851851851851,1,0,0,4.93566960003227,colour2,0.42083333333333334,-0.27037037037037037,1,0,0,5.706213400000706,number4,True,True,True,22,2,2019_Nov_15_1401,MA_Theta_Exp,3.0.7,60.0633788635217,
video/Experiment/zh_sp07_Ad_Gr_2_GlobalTheta_NoVideo.avi,globalTheta,noVideo,sp07,Ad,Gr,2,1,5,flow/blocks/GlobalTheta_NoVideo_A.csv,,,,,,,,,0,1,1,1,0,13,13,5,,,,,,,,,-0.39166666666666666,0.3013888888888889,1,0,0,4.314092099957634,call1,-0.05,0.10185185185185185,1,0,0,4.9974321000045165,colour2,0.39166666666666666,0.11018518518518519,1,0,0,5.6990324999787845,number2,True,True,True,22,2,2019_Nov_15_1401,MA_Theta_Exp,3.0.7,60.0633788635217,
video/Experiment/zh_sp01_Ad_Gr_1_GlobalTheta_NoVideo.avi,globalTheta,noVideo,sp01,Ad,Gr,1,1,5,flow/blocks/GlobalTheta_NoVideo_A.csv,,,,,,,,,0,1,1,1,0,14,14,4,,,,,,,,,-0.4083333333333333,0.3,1,0,0,5.387806799961254,call1,0.025,0.05185185185185185,1,0,0,6.021703800011892,colour2,0.45,0.31805555555555554,1,0,0,6.74080829997547,number1,True,True,True,22,2,2019_Nov_15_1401,MA_Theta_Exp,3.0.7,60.0633788635217,
video/Experiment/zh_sp07_Dr_Ro_4_GlobalTheta_NoVideo.avi,globalTheta,noVideo,sp07,Dr,Ro,4,1,5,flow/blocks/GlobalTheta_NoVideo_A.csv,,,,,,,,,0,1,1,1,0,15,15,27,,,,,,,,,-0.4,0.28194444444444444,1,0,0,4.4525507999933325,call1,0.020833333333333332,0.29305555555555557,1,0,0,5.0859991000033915,colour1,0.3638888888888889,-0.34675925925925927,1,0,0,6.033039500005543,number4,False,False,True,22,2,2019_Nov_15_1401,MA_Theta_Exp,3.0.7,60.0633788635217,
video/Experiment/zh_sp01_Dr_Gr_1_GlobalTheta_NoVideo.avi,globalTheta,noVideo,sp01,Dr,Gr,1,1,5,flow/blocks/GlobalTheta_NoVideo_A.csv,,,,,,,,,0,1,1,1,0,16,16,20,,,,,,,,,-0.48194444444444445,0.12361111111111112,1,0,0,5.323158200015314,call2,-0.05416666666666667,0.09768518518518518,1,0,0,6.073036299960222,colour2,0.42083333333333334,0.2847222222222222,1,0,0,6.8892313000396825,number1,True,True,True,22,2,2019_Nov_15_1401,MA_Theta_Exp,3.0.7,60.0633788635217,
video/Experiment/zh_sp01_Dr_Gr_3_GlobalTheta_NoVideo.avi,globalTheta,noVideo,sp01,Dr,Gr,3,1,5,flow/blocks/GlobalTheta_NoVideo_A.csv,,,,,,,,,0,1,1,1,0,17,17,22,,,,,,,,,-0.4111111111111111,0.09351851851851851,1,0,0,5.349584399955347,call2,-0.04027777777777778,0.0699074074074074,1,0,0,6.016567100014072,colour2,0.44166666666666665,-0.13703703703703704,1,0,0,6.750067899993155,number3,True,True,True,22,2,2019_Nov_15_1401,MA_Theta_Exp,3.0.7,60.0633788635217,
video/Experiment/zh_sp01_Dr_Ro_2_GlobalTheta_NoVideo.avi,globalTheta,noVideo,sp01,Dr,Ro,2,1,5,flow/blocks/GlobalTheta_NoVideo_A.csv,,,,,,,,,0,1,1,1,0,18,18,25,,,,,,,,,-0.38333333333333336,-0.11342592592592593,1,0,0,5.82557549997,call3,0.05555555555555555,-0.09305555555555556,1,0,0,6.4708829000010155,colour3,0.44722222222222224,0.14351851851851852,1,0,0,7.487411400012206,number2,False,True,True,22,2,2019_Nov_15_1401,MA_Theta_Exp,3.0.7,60.0633788635217,
video/Experiment/zh_sp01_Dr_Ge_3_GlobalTheta_NoVideo.avi,globalTheta,noVideo,sp01,Dr,Ge,3,1,5,flow/blocks/GlobalTheta_NoVideo_A.csv,,,,,,,,,0,1,1,1,0,19,19,18,,,,,,,,,-0.3888888888888889,-0.3175925925925926,1,0,0,5.346543100022245,call4,0.020833333333333332,0.3486111111111111,1,0,0,6.144425299949944,colour1,0.37222222222222223,-0.09953703703703703,1,0,0,7.0472417999990284,number3,False,True,True,22,2,2019_Nov_15_1401,MA_Theta_Exp,3.0.7,60.0633788635217,
video/Experiment/zh_sp07_Dr_We_3_GlobalTheta_NoVideo.avi,globalTheta,noVideo,sp07,Dr,We,3,1,5,flow/blocks/GlobalTheta_NoVideo_A.csv,,,,,,,,,0,1,1,1,0,20,20,30,,,,,,,,,-0.42916666666666664,0.11944444444444445,1,0,0,5.148188600025605,call2,-0.002777777777777778,-0.33564814814814814,1,0,0,6.046949199982919,colour4,0.4125,-0.05555555555555555,1,0,0,6.950498100020923,number3,True,True,True,22,2,2019_Nov_15_1401,MA_Theta_Exp,3.0.7,60.0633788635217,
video/Experiment/zh_sp07_Dr_Ge_4_GlobalTheta_NoVideo.avi,globalTheta,noVideo,sp07,Dr,Ge,4,1,5,flow/blocks/GlobalTheta_NoVideo_A.csv,,,,,,,,,0,1,1,1,0,21,21,19,,,,,,,,,-0.4111111111111111,0.3194444444444444,1,0,0,4.718369900016114,call1,-0.06805555555555555,0.3236111111111111,1,0,0,5.470283199974801,colour1,0.44583333333333336,-0.33287037037037037,1,0,0,6.400513999979012,number4,False,True,True,22,2,2019_Nov_15_1401,MA_Theta_Exp,3.0.7,60.0633788635217,
video/Experiment/zh_sp01_Ad_Ge_2_GlobalTheta_NoVideo.avi,globalTheta,noVideo,sp01,Ad,Ge,2,1,5,flow/blocks/GlobalTheta_NoVideo_A.csv,,,,,,,,,0,1,1,1,0,22,22,1,,,,,,,,,-0.4166666666666667,0.1527777777777778,1,0,0,4.887811099993996,call2,0.044444444444444446,0.3277777777777778,1,0,0,5.588787899992894,colour1,0.44305555555555554,0.049074074074074076,1,0,0,6.290852700010873,number2,False,True,True,22,2,2019_Nov_15_1401,MA_Theta_Exp,3.0.7,60.0633788635217,
video/Experiment/zh_sp01_Ad_We_2_GlobalTheta_NoVideo.avi,globalTheta,noVideo,sp01,Ad,We,2,1,5,flow/blocks/GlobalTheta_NoVideo_A.csv,,,,,,,,,0,1,1,1,0,23,23,13,,,,,,,,,-0.3486111111111111,0.2916666666666667,1,0,0,5.426043000014033,call1,0.03333333333333333,-0.30648148148148147,1,0,0,6.358021399995778,colour4,0.46111111111111114,0.11851851851851852,1,0,0,7.475196800020058,number2,True,True,True,22,2,2019_Nov_15_1401,MA_Theta_Exp,3.0.7,60.0633788635217,
video/Experiment/zh_sp01_Ad_Ge_1_GlobalTheta_NoVideo.avi,globalTheta,noVideo,sp01,Ad,Ge,1,1,5,flow/blocks/GlobalTheta_NoVideo_A.csv,,,,,,,,,0,1,1,1,0,24,24,0,,,,,,,,,-0.43194444444444446,-0.3398148148148148,1,0,0,5.4259217999642715,call4,0.04861111111111111,0.3236111111111111,1,0,0,6.476889299985487,colour1,0.39444444444444443,0.3333333333333333,1,0,0,7.3140320999664254,number1,False,True,True,22,2,2019_Nov_15_1401,MA_Theta_Exp,3.0.7,60.0633788635217,
video/Experiment/zh_sp01_Dr_We_1_GlobalTheta_NoVideo.avi,globalTheta,noVideo,sp01,Dr,We,1,1,5,flow/blocks/GlobalTheta_NoVideo_A.csv,,,,,,,,,0,1,1,1,0,25,25,28,,,,,,,,,-0.3972222222222222,0.06851851851851852,1,0,0,5.416288200009149,call2,-0.013888888888888888,-0.337037037037037,1,0,0,6.209278800000902,colour4,0.4041666666666667,0.3541666666666667,1,0,0,7.165162899997085,number1,True,True,True,22,2,2019_Nov_15_1401,MA_Theta_Exp,3.0.7,60.0633788635217,
video/Experiment/zh_sp01_Dr_Ro_1_GlobalTheta_NoVideo.avi,globalTheta,noVideo,sp01,Dr,Ro,1,1,5,flow/blocks/GlobalTheta_NoVideo_A.csv,,,,,,,,,0,1,1,1,0,26,26,24,,,,,,,,,-0.4041666666666667,0.09074074074074075,1,0,0,5.0442692000069655,call2,0.016666666666666666,-0.2050925925925926,1,0,0,5.661322000029031,colour3,0.42777777777777776,0.3388888888888889,1,0,0,6.944001699972432,number1,True,True,True,22,2,2019_Nov_15_1401,MA_Theta_Exp,3.0.7,60.0633788635217,
video/Experiment/zh_sp07_Ad_We_1_GlobalTheta_NoVideo.avi,globalTheta,noVideo,sp07,Ad,We,1,1,5,flow/blocks/GlobalTheta_NoVideo_A.csv,,,,,,,,,0,1,1,1,0,27,27,12,,,,,,,,,-0.4638888888888889,0.2740740740740741,1,0,0,4.155431499995757,call1,0.005555555555555556,-0.39675925925925926,1,0,0,4.955724100000225,colour4,0.4791666666666667,0.33240740740740743,1,0,0,5.793804800021462,number1,True,True,True,22,2,2019_Nov_15_1401,MA_Theta_Exp,3.0.7,60.0633788635217,
video/Experiment/zh_sp07_Ad_Ro_3_GlobalTheta_NoVideo.avi,globalTheta,noVideo,sp07,Ad,Ro,3,1,5,flow/blocks/GlobalTheta_NoVideo_A.csv,,,,,,,,,0,1,1,1,0,28,28,10,,,,,,,,,-0.41805555555555557,0.05740740740740741,1,0,0,4.652524599980097,call2,0.011111111111111112,0.10138888888888889,1,0,0,5.35326730000088,colour2,0.4152777777777778,-0.1537037037037037,1,0,0,6.296772800036706,number3,False,False,True,22,2,2019_Nov_15_1401,MA_Theta_Exp,3.0.7,60.0633788635217,
video/Experiment/zh_sp07_Ad_Ge_4_GlobalTheta_NoVideo.avi,globalTheta,noVideo,sp07,Ad,Ge,4,1,5,flow/blocks/GlobalTheta_NoVideo_A.csv,,,,,,,,,0,1,1,1,0,29,29,3,,,,,,,,,-0.37916666666666665,0.2949074074074074,1,0,0,4.525403200008441,call1,-0.03333333333333333,0.30277777777777776,1,0,0,5.125459000002593,colour1,0.38055555555555554,-0.32175925925925924,1,0,0,6.007655700028408,number4,True,True,True,22,2,2019_Nov_15_1401,MA_Theta_Exp,3.0.7,60.0633788635217,
video/Experiment/zh_sp07_Dr_We_4_GlobalTheta_NoVideo.avi,globalTheta,noVideo,sp07,Dr,We,4,1,5,flow/blocks/GlobalTheta_NoVideo_A.csv,,,,,,,,,0,1,1,1,0,30,30,31,,,,,,,,,-0.44722222222222224,0.3347222222222222,1,0,0,5.199228100012988,call1,-0.001388888888888889,-0.34953703703703703,1,0,0,5.970488400023896,colour4,0.38472222222222224,-0.31805555555555554,1,0,0,6.621357400028501,number4,False,True,True,22,2,2019_Nov_15_1401,MA_Theta_Exp,3.0.7,60.0633788635217,
video/Experiment/zh_sp07_Ad_Gr_3_GlobalTheta_NoVideo.avi,globalTheta,noVideo,sp07,Ad,Gr,3,1,5,flow/blocks/GlobalTheta_NoVideo_A.csv,,,,,,,,,0,1,1,1,0,31,31,6,,,,,,,,,-0.4527777777777778,0.3574074074074074,1,0,0,4.428023200016469,call1,0.05694444444444444,0.044444444444444446,1,0,0,5.374220400000922,colour2,0.4111111111111111,-0.10787037037037037,1,0,0,6.189055800030474,number3,True,True,True,22,2,2019_Nov_15_1401,MA_Theta_Exp,3.0.7,60.0633788635217,
video/Experiment/zh_sp01_Ad_We_4_NVocInAudio_GlobalThetaInVideo.avi,vocoded,plusVideo,sp01,Ad,We,4,2,1,flow/blocks/NVocInAudio_GlobalThetaInVideo_A.csv,,,,,,,,,0,2,2,2,0,0,0,15,,,,,,,,,-0.42083333333333334,0.30833333333333335,1,0,0,5.420622200006619,call1,0.022222222222222223,0.0962962962962963,1,0,0,6.4373435999732465,colour2,0.36944444444444446,-0.2884259259259259,1,0,0,7.205221200012602,number4,True,False,True,22,2,2019_Nov_15_1401,MA_Theta_Exp,3.0.7,60.0633788635217,
video/Experiment/zh_sp01_Dr_We_4_NVocInAudio_GlobalThetaInVideo.avi,vocoded,plusVideo,sp01,Dr,We,4,2,1,flow/blocks/NVocInAudio_GlobalThetaInVideo_A.csv,,,,,,,,,0,2,2,2,0,1,1,31,,,,,,,,,-0.36944444444444446,0.09305555555555556,1,0,0,4.95334659999935,call2,0.025,-0.2953703703703704,1,0,0,5.648318700026721,colour4,0.39861111111111114,-0.2875,1,0,0,6.362981099984609,number4,True,True,True,22,2,2019_Nov_15_1401,MA_Theta_Exp,3.0.7,60.0633788635217,
video/Experiment/zh_sp07_Dr_Ge_4_NVocInAudio_GlobalThetaInVideo.avi,vocoded,plusVideo,sp07,Dr,Ge,4,2,1,flow/blocks/NVocInAudio_GlobalThetaInVideo_A.csv,,,,,,,,,0,2,2,2,0,2,2,19,,,,,,,,,-0.4527777777777778,0.09027777777777778,1,0,0,4.397140000015497,call2,0.002777777777777778,0.35,1,0,0,4.997456899960525,colour1,0.36666666666666664,-0.30648148148148147,1,0,0,5.747422400047071,number4,True,True,True,22,2,2019_Nov_15_1401,MA_Theta_Exp,3.0.7,60.0633788635217,
video/Experiment/zh_sp01_Dr_Gr_4_NVocInAudio_GlobalThetaInVideo.avi,vocoded,plusVideo,sp01,Dr,Gr,4,2,1,flow/blocks/NVocInAudio_GlobalThetaInVideo_A.csv,,,,,,,,,0,2,2,2,0,3,3,23,,,,,,,,,-0.39305555555555555,0.1111111111111111,1,0,0,5.0672966000274755,call2,0.02361111111111111,0.14907407407407408,1,0,0,5.683234399999492,colour2,0.3402777777777778,-0.2967592592592593,1,0,0,6.517000399995595,number4,True,True,True,22,2,2019_Nov_15_1401,MA_Theta_Exp,3.0.7,60.0633788635217,
video/Experiment/zh_sp01_Ad_We_3_NVocInAudio_GlobalThetaInVideo.avi,vocoded,plusVideo,sp01,Ad,We,3,2,1,flow/blocks/NVocInAudio_GlobalThetaInVideo_A.csv,,,,,,,,,0,2,2,2,0,4,4,14,,,,,,,,,-0.3611111111111111,0.2722222222222222,1,0,0,5.099965100002009,call1,-0.002777777777777778,-0.2759259259259259,1,0,0,5.7663462000200525,colour4,0.42083333333333334,-0.06527777777777778,1,0,0,6.416526000015438,number3,True,True,True,22,2,2019_Nov_15_1401,MA_Theta_Exp,3.0.7,60.0633788635217,
video/Experiment/zh_sp01_Dr_We_2_NVocInAudio_GlobalThetaInVideo.avi,vocoded,plusVideo,sp01,Dr,We,2,2,1,flow/blocks/NVocInAudio_GlobalThetaInVideo_A.csv,,,,,,,,,0,2,2,2,0,5,5,29,,,,,,,,,-0.4,0.13194444444444445,1,0,0,5.288263299968094,call2,-0.002777777777777778,-0.2912037037037037,1,0,0,5.919206899998244,colour4,0.44027777777777777,0.12777777777777777,1,0,0,6.639853700005915,number2,True,True,True,22,2,2019_Nov_15_1401,MA_Theta_Exp,3.0.7,60.0633788635217,
video/Experiment/zh_sp01_Ad_Ge_2_NVocInAudio_GlobalThetaInVideo.avi,vocoded,plusVideo,sp01,Ad,Ge,2,2,1,flow/blocks/NVocInAudio_GlobalThetaInVideo_A.csv,,,,,,,,,0,2,2,2,0,6,6,1,,,,,,,,,-0.38055555555555554,0.26666666666666666,1,0,0,5.180330699949991,call1,-0.034722222222222224,0.3402777777777778,1,0,0,5.746797100000549,colour1,0.31527777777777777,0.1087962962962963,1,0,0,6.331388099992182,number2,True,True,True,22,2,2019_Nov_15_1401,MA_Theta_Exp,3.0.7,60.0633788635217,
video/Experiment/zh_sp07_Ad_Gr_3_NVocInAudio_GlobalThetaInVideo.avi,vocoded,plusVideo,sp07,Ad,Gr,3,2,1,flow/blocks/NVocInAudio_GlobalThetaInVideo_A.csv,,,,,,,,,0,2,2,2,0,7,7,6,,,,,,,,,-0.3958333333333333,0.3472222222222222,1,0,0,4.454569900000934,call1,0.03611111111111111,0.07962962962962963,1,0,0,5.051457600027788,colour2,0.4263888888888889,-0.12453703703703704,1,0,0,5.623196100001223,number3,True,True,True,22,2,2019_Nov_15_1401,MA_Theta_Exp,3.0.7,60.0633788635217,
video/Experiment/zh_sp07_Dr_We_1_NVocInAudio_GlobalThetaInVideo.avi,vocoded,plusVideo,sp07,Dr,We,1,2,1,flow/blocks/NVocInAudio_GlobalThetaInVideo_A.csv,,,,,,,,,0,2,2,2,0,8,8,28,,,,,,,,,-0.4236111111111111,0.1125,1,0,0,4.457500500022434,call2,-0.030555555555555555,-0.2800925925925926,1,0,0,5.057066199951805,colour4,0.40694444444444444,0.26666666666666666,1,0,0,5.853846200043336,number1,True,True,True,22,2,2019_Nov_15_1401,MA_Theta_Exp,3.0.7,60.0633788635217,
video/Experiment/zh_sp01_Ad_We_2_NVocInAudio_GlobalThetaInVideo.avi,vocoded,plusVideo,sp01,Ad,We,2,2,1,flow/blocks/NVocInAudio_GlobalThetaInVideo_A.csv,,,,,,,,,0,2,2,2,0,9,9,13,,,,,,,,,-0.3902777777777778,0.31527777777777777,1,0,0,5.26583779999055,call1,-0.11944444444444445,-0.28703703703703703,1,0,0,5.917354000033811,colour4,0.39166666666666666,0.15694444444444444,1,0,0,6.900215600035153,number2,True,True,True,22,2,2019_Nov_15_1401,MA_Theta_Exp,3.0.7,60.0633788635217,
video/Experiment/zh_sp01_Dr_Ro_3_NVocInAudio_GlobalThetaInVideo.avi,vocoded,plusVideo,sp01,Dr,Ro,3,2,1,flow/blocks/NVocInAudio_GlobalThetaInVideo_A.csv,,,,,,,,,0,2,2,2,0,10,10,26,,,,,,,,,-0.3736111111111111,0.06944444444444445,1,0,0,4.9126271000131965,call2,-0.013888888888888888,-0.10648148148148148,1,0,0,5.493950499978382,colour3,0.4041666666666667,-0.09444444444444444,1,0,0,6.111119800014421,number3,True,True,True,22,2,2019_Nov_15_1401,MA_Theta_Exp,3.0.7,60.0633788635217,
video/Experiment/zh_sp01_Ad_Ge_4_NVocInAudio_GlobalThetaInVideo.avi,vocoded,plusVideo,sp01,Ad,Ge,4,2,1,flow/blocks/NVocInAudio_GlobalThetaInVideo_A.csv,,,,,,,,,0,2,2,2,0,11,11,3,,,,,,,,,-0.40694444444444444,0.3013888888888889,1,0,0,4.896544800023548,call1,-0.016666666666666666,0.3013888888888889,1,0,0,5.730098599975463,colour1,0.3541666666666667,-0.30787037037037035,1,0,0,6.596861400001217,number4,True,True,True,22,2,2019_Nov_15_1401,MA_Theta_Exp,3.0.7,60.0633788635217,
video/Experiment/zh_sp07_Dr_Ro_1_NVocInAudio_GlobalThetaInVideo.avi,vocoded,plusVideo,sp07,Dr,Ro,1,2,1,flow/blocks/NVocInAudio_GlobalThetaInVideo_A.csv,,,,,,,,,0,2,2,2,0,12,12,24,,,,,,,,,-0.39861111111111114,0.29305555555555557,1,0,0,5.066953200032003,call1,-0.004166666666666667,-0.13148148148148148,1,0,0,5.733888500020839,colour3,0.3763888888888889,0.2722222222222222,1,0,0,6.516737399972044,number1,False,True,True,22,2,2019_Nov_15_1401,MA_Theta_Exp,3.0.7,60.0633788635217,
video/Experiment/zh_sp07_Ad_Ro_4_NVocInAudio_GlobalThetaInVideo.avi,vocoded,plusVideo,sp07,Ad,Ro,4,2,1,flow/blocks/NVocInAudio_GlobalThetaInVideo_A.csv,,,,,,,,,0,2,2,2,0,13,13,11,,,,,,,,,-0.41388888888888886,0.28379629629629627,1,0,0,4.9727427999605425,call1,-0.04861111111111111,-0.13842592592592592,1,0,0,5.7053897000150755,colour3,0.3972222222222222,-0.3439814814814815,1,0,0,6.473174299986567,number4,True,True,True,22,2,2019_Nov_15_1401,MA_Theta_Exp,3.0.7,60.0633788635217,
video/Experiment/zh_sp07_Ad_Ro_3_NVocInAudio_GlobalThetaInVideo.avi,vocoded,plusVideo,sp07,Ad,Ro,3,2,1,flow/blocks/NVocInAudio_GlobalThetaInVideo_A.csv,,,,,,,,,0,2,2,2,0,14,14,10,,,,,,,,,-0.47638888888888886,0.2722222222222222,1,0,0,4.269158600014634,call1,-0.03611111111111111,-0.1287037037037037,1,0,0,4.935586499981582,colour3,0.3819444444444444,-0.13842592592592592,1,0,0,5.651993700012099,number3,True,True,True,22,2,2019_Nov_15_1401,MA_Theta_Exp,3.0.7,60.0633788635217,
video/Experiment/zh_sp01_Dr_Gr_1_NVocInAudio_GlobalThetaInVideo.avi,vocoded,plusVideo,sp01,Dr,Gr,1,2,1,flow/blocks/NVocInAudio_GlobalThetaInVideo_A.csv,,,,,,,,,0,2,2,2,0,15,15,20,,,,,,,,,-0.4097222222222222,0.1361111111111111,1,0,0,5.376707200019155,call2,-0.009722222222222222,0.15046296296296297,1,0,0,5.960885300009977,colour2,0.4111111111111111,0.3486111111111111,1,0,0,6.561278799956199,number1,True,True,True,22,2,2019_Nov_15_1401,MA_Theta_Exp,3.0.7,60.0633788635217,
video/Experiment/zh_sp07_Dr_Ro_4_NVocInAudio_GlobalThetaInVideo.avi,vocoded,plusVideo,sp07,Dr,Ro,4,2,1,flow/blocks/NVocInAudio_GlobalThetaInVideo_A.csv,,,,,,,,,0,2,2,2,0,16,16,27,,,,,,,,,-0.4361111111111111,0.08657407407407407,1,0,0,4.730852700013202,call2,-0.015277777777777777,-0.13842592592592592,1,0,0,5.279752200003713,colour3,0.36944444444444446,-0.3384259259259259,1,0,0,5.817139100050554,number4,True,True,True,22,2,2019_Nov_15_1401,MA_Theta_Exp,3.0.7,60.0633788635217,
video/Experiment/zh_sp01_Dr_Gr_2_NVocInAudio_GlobalThetaInVideo.avi,vocoded,plusVideo,sp01,Dr,Gr,2,2,1,flow/blocks/NVocInAudio_GlobalThetaInVideo_A.csv,,,,,,,,,0,2,2,2,0,17,17,21,,,,,,,,,-0.3972222222222222,0.1125,1,0,0,5.331691199971829,call2,-0.018055555555555554,0.1125,1,0,0,5.8313457000185736,colour2,0.39861111111111114,0.11527777777777778,1,0,0,6.3144350000075065,number2,True,True,True,22,2,2019_Nov_15_1401,MA_Theta_Exp,3.0.7,60.0633788635217,
video/Experiment/zh_sp07_Ad_Ge_1_NVocInAudio_GlobalThetaInVideo.avi,vocoded,plusVideo,sp07,Ad,Ge,1,2,1,flow/blocks/NVocInAudio_GlobalThetaInVideo_A.csv,,,,,,,,,0,2,2,2,0,18,18,0,,,,,,,,,-0.3958333333333333,0.3013888888888889,1,0,0,4.320434900000691,call1,-0.02361111111111111,0.32222222222222224,1,0,0,4.853081500041299,colour1,0.36527777777777776,0.3347222222222222,1,0,0,5.370478499971796,number1,True,True,True,22,2,2019_Nov_15_1401,MA_Theta_Exp,3.0.7,60.0633788635217,
video/Experiment/zh_sp07_Dr_We_3_NVocInAudio_GlobalThetaInVideo.avi,vocoded,plusVideo,sp07,Dr,We,3,2,1,flow/blocks/NVocInAudio_GlobalThetaInVideo_A.csv,,,,,,,,,0,2,2,2,0,19,19,30,,,,,,,,,-0.36944444444444446,0.10740740740740741,1,0,0,4.417833500017878,call2,0.004166666666666667,-0.31342592592592594,1,0,0,5.03439599997364,colour4,0.3902777777777778,-0.05277777777777778,1,0,0,5.636517700040713,number3,True,True,True,22,2,2019_Nov_15_1401,MA_Theta_Exp,3.0.7,60.0633788635217,
video/Experiment/zh_sp07_Ad_Ge_3_NVocInAudio_GlobalThetaInVideo.avi,vocoded,plusVideo,sp07,Ad,Ge,3,2,1,flow/blocks/NVocInAudio_GlobalThetaInVideo_A.csv,,,,,,,,,0,2,2,2,0,20,20,2,,,,,,,,,-0.4305555555555556,0.1125,1,0,0,4.491176400042605,call2,0.008333333333333333,0.3138888888888889,1,0,0,5.056449099967722,colour1,0.375,-0.13425925925925927,1,0,0,5.760562400042545,number3,False,True,True,22,2,2019_Nov_15_1401,MA_Theta_Exp,3.0.7,60.0633788635217,
video/Experiment/zh_sp01_Ad_Gr_4_NVocInAudio_GlobalThetaInVideo.avi,vocoded,plusVideo,sp01,Ad,Gr,4,2,1,flow/blocks/NVocInAudio_GlobalThetaInVideo_A.csv,,,,,,,,,0,2,2,2,0,21,21,7,,,,,,,,,-0.37222222222222223,0.36018518518518516,1,0,0,5.134112899948377,call1,-0.015277777777777777,0.11018518518518519,1,0,0,5.671604999981355,colour2,0.4,-0.3384259259259259,1,0,0,6.33752329996787,number4,True,True,True,22,2,2019_Nov_15_1401,MA_Theta_Exp,3.0.7,60.0633788635217,
video/Experiment/zh_sp01_Dr_Ge_1_NVocInAudio_GlobalThetaInVideo.avi,vocoded,plusVideo,sp01,Dr,Ge,1,2,1,flow/blocks/NVocInAudio_GlobalThetaInVideo_A.csv,,,,,,,,,0,2,2,2,0,22,22,16,,,,,,,,,-0.3972222222222222,0.08333333333333333,1,0,0,5.281056299980264,call2,0.001388888888888889,0.2861111111111111,1,0,0,5.9292641000356525,colour1,0.3861111111111111,0.3194444444444444,1,0,0,6.497043300012592,number1,True,True,True,22,2,2019_Nov_15_1401,MA_Theta_Exp,3.0.7,60.0633788635217,
video/Experiment/zh_sp01_Dr_Ge_2_NVocInAudio_GlobalThetaInVideo.avi,vocoded,plusVideo,sp01,Dr,Ge,2,2,1,flow/blocks/NVocInAudio_GlobalThetaInVideo_A.csv,,,,,,,,,0,2,2,2,0,23,23,17,,,,,,,,,-0.3763888888888889,0.07685185185185185,1,0,0,5.363601799996104,call2,0.011111111111111112,0.2625,1,0,0,5.899350399966352,colour1,0.3875,0.08935185185185185,1,0,0,6.481383300037123,number2,True,True,True,22,2,2019_Nov_15_1401,MA_Theta_Exp,3.0.7,60.0633788635217,
video/Experiment/zh_sp07_Dr_Gr_3_NVocInAudio_GlobalThetaInVideo.avi,vocoded,plusVideo,sp07,Dr,Gr,3,2,1,flow/blocks/NVocInAudio_GlobalThetaInVideo_A.csv,,,,,,,,,0,2,2,2,0,24,24,22,,,,,,,,,-0.525,0.14027777777777778,1,0,0,4.314921299985144,call2,0.004166666666666667,0.14166666666666666,1,0,0,5.194374799961224,colour2,0.40555555555555556,-0.12175925925925926,1,0,0,5.779793500027154,number3,True,True,True,22,2,2019_Nov_15_1401,MA_Theta_Exp,3.0.7,60.0633788635217,
video/Experiment/zh_sp01_Ad_Gr_2_NVocInAudio_GlobalThetaInVideo.avi,vocoded,plusVideo,sp01,Ad,Gr,2,2,1,flow/blocks/NVocInAudio_GlobalThetaInVideo_A.csv,,,,,,,,,0,2,2,2,0,25,25,5,,,,,,,,,-0.41388888888888886,0.3476851851851852,1,0,0,5.188414299977012,call1,0.05277777777777778,0.09490740740740741,1,0,0,5.754698500037193,colour2,0.44722222222222224,0.09444444444444444,1,0,0,6.419894299993757,number2,True,True,True,22,2,2019_Nov_15_1401,MA_Theta_Exp,3.0.7,60.0633788635217,
video/Experiment/zh_sp07_Ad_Ro_2_NVocInAudio_GlobalThetaInVideo.avi,vocoded,plusVideo,sp07,Ad,Ro,2,2,1,flow/blocks/NVocInAudio_GlobalThetaInVideo_A.csv,,,,,,,,,0,2,2,2,0,26,26,9,,,,,,,,,-0.4388888888888889,0.3138888888888889,1,0,0,4.5876200000057,call1,-0.07083333333333333,-0.08842592592592592,1,0,0,5.2202879000105895,colour3,0.4027777777777778,0.13333333333333333,1,0,0,5.838649099983741,number2,True,True,True,22,2,2019_Nov_15_1401,MA_Theta_Exp,3.0.7,60.0633788635217,
video/Experiment/zh_sp01_Dr_Ro_2_NVocInAudio_GlobalThetaInVideo.avi,vocoded,plusVideo,sp01,Dr,Ro,2,2,1,flow/blocks/NVocInAudio_GlobalThetaInVideo_A.csv,,,,,,,,,0,2,2,2,0,27,27,25,,,,,,,,,-0.43472222222222223,0.11157407407407408,1,0,0,5.119058299984317,call2,-0.04583333333333333,-0.1550925925925926,1,0,0,5.7359022999880835,colour3,0.4111111111111111,0.07777777777777778,1,0,0,6.3857697999919765,number2,True,True,True,22,2,2019_Nov_15_1401,MA_Theta_Exp,3.0.7,60.0633788635217,
video/Experiment/zh_sp07_Ad_Gr_1_NVocInAudio_GlobalThetaInVideo.avi,vocoded,plusVideo,sp07,Ad,Gr,1,2,1,flow/blocks/NVocInAudio_GlobalThetaInVideo_A.csv,,,,,,,,,0,2,2,2,0,28,28,4,,,,,,,,,-0.41805555555555557,0.39351851851851855,1,0,0,4.58168730000034,call1,-0.02361111111111111,0.1310185185185185,1,0,0,5.114514800021425,colour2,0.375,0.26666666666666666,1,0,0,5.650888299976941,number1,True,True,True,22,2,2019_Nov_15_1401,MA_Theta_Exp,3.0.7,60.0633788635217,
video/Experiment/zh_sp07_Ad_We_1_NVocInAudio_GlobalThetaInVideo.avi,vocoded,plusVideo,sp07,Ad,We,1,2,1,flow/blocks/NVocInAudio_GlobalThetaInVideo_A.csv,,,,,,,,,0,2,2,2,0,29,29,12,,,,,,,,,-0.37222222222222223,0.2740740740740741,1,0,0,4.44222849997459,call1,-0.02638888888888889,-0.27037037037037037,1,0,0,5.02712399995653,colour4,0.40694444444444444,0.2972222222222222,1,0,0,5.75900720001664,number1,True,True,True,22,2,2019_Nov_15_1401,MA_Theta_Exp,3.0.7,60.0633788635217,
video/Experiment/zh_sp07_Ad_Ro_1_NVocInAudio_GlobalThetaInVideo.avi,vocoded,plusVideo,sp07,Ad,Ro,1,2,1,flow/blocks/NVocInAudio_GlobalThetaInVideo_A.csv,,,,,,,,,0,2,2,2,0,30,30,8,,,,,,,,,-0.4083333333333333,0.2652777777777778,1,0,0,4.342967900040094,call1,-0.019444444444444445,-0.10648148148148148,1,0,0,4.904130999988411,colour3,0.4041666666666667,0.31666666666666665,1,0,0,5.572804399998859,number1,True,True,True,22,2,2019_Nov_15_1401,MA_Theta_Exp,3.0.7,60.0633788635217,
video/Experiment/zh_sp07_Dr_Ge_3_NVocInAudio_GlobalThetaInVideo.avi,vocoded,plusVideo,sp07,Dr,Ge,3,2,1,flow/blocks/NVocInAudio_GlobalThetaInVideo_A.csv,,,,,,,,,0,2,2,2,0,31,31,18,,,,,,,,,-0.4013888888888889,0.07268518518518519,1,0,0,4.499804199964274,call2,0.0375,0.2847222222222222,1,0,0,5.049638100026641,colour1,0.39305555555555555,-0.13425925925925927,1,0,0,5.732219600002281,number3,True,True,True,22,2,2019_Nov_15_1401,MA_Theta_Exp,3.0.7,60.0633788635217,
video/Experiment/zh_sp07_Dr_Gr_3_NoThetaInAudio_NoVideo.avi,noTheta,noVideo,sp07,Dr,Gr,3,3,4,flow/blocks/NoThetaInAudio_NoVideo_A.csv,,,,,,,,,0,3,3,3,0,0,0,22,,,,,,,,,-0.4236111111111111,0.10833333333333334,1,0,0,4.756156800023746,call2,-0.041666666666666664,0.09305555555555556,1,0,0,5.4025377000216395,colour2,0.4152777777777778,-0.09398148148148149,1,0,0,6.017970799992327,number3,True,True,True,22,2,2019_Nov_15_1401,MA_Theta_Exp,3.0.7,60.0633788635217,
video/Experiment/zh_sp01_Ad_Gr_3_NoThetaInAudio_NoVideo.avi,noTheta,noVideo,sp01,Ad,Gr,3,3,4,flow/blocks/NoThetaInAudio_NoVideo_A.csv,,,,,,,,,0,3,3,3,0,1,1,6,,,,,,,,,-0.3486111111111111,0.3282407407407407,1,0,0,5.0739323000307195,call1,-0.015277777777777777,0.1087962962962963,1,0,0,5.641004099976271,colour2,0.4027777777777778,-0.1412037037037037,1,0,0,6.209235300018918,number3,True,True,True,22,2,2019_Nov_15_1401,MA_Theta_Exp,3.0.7,60.0633788635217,
video/Experiment/zh_sp07_Ad_Ro_2_NoThetaInAudio_NoVideo.avi,noTheta,noVideo,sp07,Ad,Ro,2,3,4,flow/blocks/NoThetaInAudio_NoVideo_A.csv,,,,,,,,,0,3,3,3,0,2,2,9,,,,,,,,,-0.3486111111111111,0.2875,1,0,0,4.449443600024097,call1,-0.022222222222222223,-0.10787037037037037,1,0,0,4.949602500011679,colour3,0.3861111111111111,0.10277777777777777,1,0,0,5.464048499998171,number2,True,True,True,22,2,2019_Nov_15_1401,MA_Theta_Exp,3.0.7,60.0633788635217,
video/Experiment/zh_sp01_Ad_We_3_NoThetaInAudio_NoVideo.avi,noTheta,noVideo,sp01,Ad,We,3,3,4,flow/blocks/NoThetaInAudio_NoVideo_A.csv,,,,,,,,,0,3,3,3,0,3,3,14,,,,,,,,,-0.3597222222222222,0.24027777777777778,1,0,0,5.155518900020979,call1,-0.03333333333333333,-0.27314814814814814,1,0,0,5.8049850999959745,colour4,0.4222222222222222,-0.05138888888888889,1,0,0,6.371776700019836,number3,True,True,True,22,2,2019_Nov_15_1401,MA_Theta_Exp,3.0.7,60.0633788635217,
video/Experiment/zh_sp07_Dr_Gr_2_NoThetaInAudio_NoVideo.avi,noTheta,noVideo,sp07,Dr,Gr,2,3,4,flow/blocks/NoThetaInAudio_NoVideo_A.csv,,,,,,,,,0,3,3,3,0,4,4,21,,,,,,,,,-0.375,0.30277777777777776,1,0,0,4.701272499980405,call1,-0.018055555555555554,0.12546296296296297,1,0,0,5.182568700052798,colour2,0.30833333333333335,0.0824074074074074,1,0,0,5.667903500027023,number2,False,True,True,22,2,2019_Nov_15_1401,MA_Theta_Exp,3.0.7,60.0633788635217,
video/Experiment/zh_sp01_Dr_We_2_NoThetaInAudio_NoVideo.avi,noTheta,noVideo,sp01,Dr,We,2,3,4,flow/blocks/NoThetaInAudio_NoVideo_A.csv,,,,,,,,,0,3,3,3,0,5,5,29,,,,,,,,,-0.4236111111111111,0.12129629629629629,1,0,0,5.053211499995086,call2,0.025,-0.34120370370370373,1,0,0,5.635908299998846,colour4,0.43472222222222223,0.0763888888888889,1,0,0,6.286940399964806,number2,True,True,True,22,2,2019_Nov_15_1401,MA_Theta_Exp,3.0.7,60.0633788635217,
video/Experiment/zh_sp01_Ad_We_2_NoThetaInAudio_NoVideo.avi,noTheta,noVideo,sp01,Ad,We,2,3,4,flow/blocks/NoThetaInAudio_NoVideo_A.csv,,,,,,,,,0,3,3,3,0,6,6,13,,,,,,,,,-0.5430555555555555,0.3263888888888889,1,0,0,4.867642299970612,call1,-0.03611111111111111,-0.25092592592592594,1,0,0,5.820083500002511,colour4,0.3472222222222222,0.13194444444444445,1,0,0,6.487831100006588,number2,True,True,True,22,2,2019_Nov_15_1401,MA_Theta_Exp,3.0.7,60.0633788635217,
video/Experiment/zh_sp07_Dr_Ro_1_NoThetaInAudio_NoVideo.avi,noTheta,noVideo,sp07,Dr,Ro,1,3,4,flow/blocks/NoThetaInAudio_NoVideo_A.csv,,,,,,,,,0,3,3,3,0,7,7,24,,,,,,,,,-0.3736111111111111,0.2847222222222222,1,0,0,4.489597600011621,call1,-0.07083333333333333,-0.05092592592592592,1,0,0,4.988832300005015,colour3,0.4152777777777778,0.1449074074074074,1,0,0,5.886210100026801,number2,False,True,False,22,2,2019_Nov_15_1401,MA_Theta_Exp,3.0.7,60.0633788635217,
video/Experiment/zh_sp01_Dr_Ro_3_NoThetaInAudio_NoVideo.avi,noTheta,noVideo,sp01,Dr,Ro,3,3,4,flow/blocks/NoThetaInAudio_NoVideo_A.csv,,,,,,,,,0,3,3,3,0,8,8,26,,,,,,,,,-0.4111111111111111,0.3263888888888889,1,0,0,4.979297800047789,call1,-0.016666666666666666,-0.09953703703703703,1,0,0,5.562833099975251,colour3,0.35833333333333334,-0.0625,1,0,0,6.161941799975466,number3,False,True,True,22,2,2019_Nov_15_1401,MA_Theta_Exp,3.0.7,60.0633788635217,
video/Experiment/zh_sp01_Ad_Ro_3_NoThetaInAudio_NoVideo.avi,noTheta,noVideo,sp01,Ad,Ro,3,3,4,flow/blocks/NoThetaInAudio_NoVideo_A.csv,,,,,,,,,0,3,3,3,0,9,9,10,,,,,,,,,-0.425,0.31527777777777777,1,0,0,4.891473199997563,call1,0.02361111111111111,-0.14675925925925926,1,0,0,5.442968400020618,colour3,0.37222222222222223,-0.0875,1,0,0,5.9245130000053905,number3,True,True,True,22,2,2019_Nov_15_1401,MA_Theta_Exp,3.0.7,60.0633788635217,
video/Experiment/zh_sp07_Dr_Ge_2_NoThetaInAudio_NoVideo.avi,noTheta,noVideo,sp07,Dr,Ge,2,3,4,flow/blocks/NoThetaInAudio_NoVideo_A.csv,,,,,,,,,0,3,3,3,0,10,10,17,,,,,,,,,-0.3875,0.14027777777777778,1,0,0,4.498461099981796,call2,-0.029166666666666667,0.33194444444444443,1,0,0,5.01919680001447,colour1,0.41388888888888886,0.10324074074074074,1,0,0,5.5705590000143275,number2,True,True,True,22,2,2019_Nov_15_1401,MA_Theta_Exp,3.0.7,60.0633788635217,
video/Experiment/zh_sp07_Dr_Gr_1_NoThetaInAudio_NoVideo.avi,noTheta,noVideo,sp07,Dr,Gr,1,3,4,flow/blocks/NoThetaInAudio_NoVideo_A.csv,,,,,,,,,0,3,3,3,0,11,11,20,,,,,,,,,-0.4,0.12962962962962962,1,0,0,4.398431800014805,call2,-0.04722222222222222,0.12962962962962962,1,0,0,4.848036399984267,colour2,0.37777777777777777,0.29444444444444445,1,0,0,5.431568200001493,number1,True,True,True,22,2,2019_Nov_15_1401,MA_Theta_Exp,3.0.7,60.0633788635217,
video/Experiment/zh_sp07_Ad_Ge_4_NoThetaInAudio_NoVideo.avi,noTheta,noVideo,sp07,Ad,Ge,4,3,4,flow/blocks/NoThetaInAudio_NoVideo_A.csv,,,,,,,,,0,3,3,3,0,12,12,3,,,,,,,,,-0.3972222222222222,0.29768518518518516,1,0,0,4.430545999959577,call1,-0.0125,0.30833333333333335,1,0,0,4.91614769998705,colour1,0.35694444444444445,-0.3537037037037037,1,0,0,5.661466599965934,number4,True,True,True,22,2,2019_Nov_15_1401,MA_Theta_Exp,3.0.7,60.0633788635217,
video/Experiment/zh_sp01_Ad_We_4_NoThetaInAudio_NoVideo.avi,noTheta,noVideo,sp01,Ad,We,4,3,4,flow/blocks/NoThetaInAudio_NoVideo_A.csv,,,,,,,,,0,3,3,3,0,13,13,15,,,,,,,,,-0.38055555555555554,0.32083333333333336,1,0,0,5.409852999961004,call1,0.0125,-0.3287037037037037,1,0,0,6.143135500024073,colour4,0.43472222222222223,-0.2708333333333333,1,0,0,6.75977329997113,number4,True,True,True,22,2,2019_Nov_15_1401,MA_Theta_Exp,3.0.7,60.0633788635217,
video/Experiment/zh_sp07_Dr_We_4_NoThetaInAudio_NoVideo.avi,noTheta,noVideo,sp07,Dr,We,4,3,4,flow/blocks/NoThetaInAudio_NoVideo_A.csv,,,,,,,,,0,3,3,3,0,14,14,31,,,,,,,,,-0.3875,0.3111111111111111,1,0,0,4.7956679000053555,call1,-0.02361111111111111,-0.26064814814814813,1,0,0,5.361049800005276,colour4,0.34444444444444444,-0.2569444444444444,1,0,0,5.9095531000057235,number4,False,True,True,22,2,2019_Nov_15_1401,MA_Theta_Exp,3.0.7,60.0633788635217,
video/Experiment/zh_sp01_Ad_Ro_4_NoThetaInAudio_NoVideo.avi,noTheta,noVideo,sp01,Ad,Ro,4,3,4,flow/blocks/NoThetaInAudio_NoVideo_A.csv,,,,,,,,,0,3,3,3,0,15,15,11,,,,,,,,,-0.38472222222222224,0.3111111111111111,1,0,0,5.057698599994183,call1,0.058333333333333334,-0.13842592592592592,1,0,0,5.771359100006521,colour3,0.39166666666666666,-0.3189814814814815,1,0,0,6.269529099983629,number4,True,True,True,22,2,2019_Nov_15_1401,MA_Theta_Exp,3.0.7,60.0633788635217,
video/Experiment/zh_sp01_Dr_Ro_2_NoThetaInAudio_NoVideo.avi,noTheta,noVideo,sp01,Dr,Ro,2,3,4,flow/blocks/NoThetaInAudio_NoVideo_A.csv,,,,,,,,,0,3,3,3,0,16,16,25,,,,,,,,,-0.38333333333333336,0.07361111111111111,1,0,0,5.407797700027004,call2,-0.008333333333333333,-0.12731481481481483,1,0,0,5.85755999997491,colour3,0.44583333333333336,0.10277777777777777,1,0,0,6.424207600008231,number2,True,True,True,22,2,2019_Nov_15_1401,MA_Theta_Exp,3.0.7,60.0633788635217,
video/Experiment/zh_sp01_Dr_Ro_4_NoThetaInAudio_NoVideo.avi,noTheta,noVideo,sp01,Dr,Ro,4,3,4,flow/blocks/NoThetaInAudio_NoVideo_A.csv,,,,,,,,,0,3,3,3,0,17,17,27,,,,,,,,,-0.3763888888888889,0.3263888888888889,1,0,0,5.0853596000233665,call1,0.008333333333333333,-0.1037037037037037,1,0,0,5.618835999979638,colour3,0.35833333333333334,-0.3106481481481482,1,0,0,6.219034200010356,number4,False,True,True,22,2,2019_Nov_15_1401,MA_Theta_Exp,3.0.7,60.0633788635217,
video/Experiment/zh_sp01_Dr_We_1_NoThetaInAudio_NoVideo.avi,noTheta,noVideo,sp01,Dr,We,1,3,4,flow/blocks/NoThetaInAudio_NoVideo_A.csv,,,,,,,,,0,3,3,3,0,18,18,28,,,,,,,,,-0.38472222222222224,0.14212962962962963,1,0,0,5.069488700013608,call2,0.009722222222222222,-0.29814814814814816,1,0,0,5.624619000009261,colour4,0.4736111111111111,0.24444444444444444,1,0,0,6.320167100057006,number1,True,True,True,22,2,2019_Nov_15_1401,MA_Theta_Exp,3.0.7,60.0633788635217,
video/Experiment/zh_sp07_Ad_Ge_2_NoThetaInAudio_NoVideo.avi,noTheta,noVideo,sp07,Ad,Ge,2,3,4,flow/blocks/NoThetaInAudio_NoVideo_A.csv,,,,,,,,,0,3,3,3,0,19,19,1,,,,,,,,,-0.4013888888888889,0.2777777777777778,1,0,0,4.779385000001639,call1,0.006944444444444444,0.2875,1,0,0,5.21298900002148,colour1,0.39166666666666666,0.021296296296296296,1,0,0,5.779136199969798,number2,True,True,True,22,2,2019_Nov_15_1401,MA_Theta_Exp,3.0.7,60.0633788635217,
video/Experiment/zh_sp07_Ad_Ge_1_NoThetaInAudio_NoVideo.avi,noTheta,noVideo,sp07,Ad,Ge,1,3,4,flow/blocks/NoThetaInAudio_NoVideo_A.csv,,,,,,,,,0,3,3,3,0,20,20,0,,,,,,,,,-0.38472222222222224,0.287962962962963,1,0,0,4.388908499968238,call1,0.08888888888888889,0.2763888888888889,1,0,0,4.872356800013222,colour1,0.42777777777777776,0.31666666666666665,1,0,0,5.488699099980295,number1,True,True,True,22,2,2019_Nov_15_1401,MA_Theta_Exp,3.0.7,60.0633788635217,
video/Experiment/zh_sp07_Dr_Ge_1_NoThetaInAudio_NoVideo.avi,noTheta,noVideo,sp07,Dr,Ge,1,3,4,flow/blocks/NoThetaInAudio_NoVideo_A.csv,,,,,,,,,0,3,3,3,0,21,21,16,,,,,,,,,-0.41805555555555557,0.32222222222222224,1,0,0,4.388008400041144,call1,-0.011111111111111112,0.3263888888888889,1,0,0,4.839624799962621,colour1,0.4125,0.2962962962962963,1,0,0,5.421491999994032,number1,False,True,True,22,2,2019_Nov_15_1401,MA_Theta_Exp,3.0.7,60.0633788635217,
video/Experiment/zh_sp07_Dr_Ge_4_NoThetaInAudio_NoVideo.avi,noTheta,noVideo,sp07,Dr,Ge,4,3,4,flow/blocks/NoThetaInAudio_NoVideo_A.csv,,,,,,,,,0,3,3,3,0,22,22,19,,,,,,,,,-0.3375,0.2949074074074074,1,0,0,4.266730000032112,call1,0.08055555555555556,0.287962962962963,1,0,0,4.800624999974389,colour1,0.4388888888888889,-0.3537037037037037,1,0,0,5.584328000026289,number4,False,True,True,22,2,2019_Nov_15_1401,MA_Theta_Exp,3.0.7,60.0633788635217,
video/Experiment/zh_sp07_Ad_Gr_2_NoThetaInAudio_NoVideo.avi,noTheta,noVideo,sp07,Ad,Gr,2,3,4,flow/blocks/NoThetaInAudio_NoVideo_A.csv,,,,,,,,,0,3,3,3,0,23,23,5,,,,,,,,,-0.25,0.25833333333333336,1,0,0,4.477516699989792,call1,-0.001388888888888889,0.0962962962962963,1,0,0,5.276280499994755,colour2,0.3861111111111111,0.1,1,0,0,5.761223599954974,number2,True,True,True,22,2,2019_Nov_15_1401,MA_Theta_Exp,3.0.7,60.0633788635217,
video/Experiment/zh_sp01_Dr_We_3_NoThetaInAudio_NoVideo.avi,noTheta,noVideo,sp01,Dr,We,3,3,4,flow/blocks/NoThetaInAudio_NoVideo_A.csv,,,,,,,,,0,3,3,3,0,24,24,30,,,,,,,,,-0.42916666666666664,0.09351851851851851,1,0,0,5.2225269000045955,call2,-0.03194444444444444,-0.2884259259259259,1,0,0,5.838159499980975,colour4,0.38333333333333336,-0.0875,1,0,0,6.437171199999284,number3,True,True,True,22,2,2019_Nov_15_1401,MA_Theta_Exp,3.0.7,60.0633788635217,
video/Experiment/zh_sp01_Dr_Gr_4_NoThetaInAudio_NoVideo.avi,noTheta,noVideo,sp01,Dr,Gr,4,3,4,flow/blocks/NoThetaInAudio_NoVideo_A.csv,,,,,,,,,0,3,3,3,0,25,25,23,,,,,,,,,-0.3458333333333333,0.08194444444444444,1,0,0,4.999903200019617,call2,-0.019444444444444445,0.09861111111111111,1,0,0,5.533351999998558,colour2,0.3597222222222222,-0.30925925925925923,1,0,0,6.200460500025656,number4,True,True,True,22,2,2019_Nov_15_1401,MA_Theta_Exp,3.0.7,60.0633788635217,
video/Experiment/zh_sp01_Ad_Ge_3_NoThetaInAudio_NoVideo.avi,noTheta,noVideo,sp01,Ad,Ge,3,3,4,flow/blocks/NoThetaInAudio_NoVideo_A.csv,,,,,,,,,0,3,3,3,0,26,26,2,,,,,,,,,-0.44305555555555554,0.3125,1,0,0,4.983236700005364,call1,-0.06944444444444445,0.3125,1,0,0,5.431702199974097,colour1,0.34305555555555556,-0.15925925925925927,1,0,0,6.131220100040082,number3,True,True,True,22,2,2019_Nov_15_1401,MA_Theta_Exp,3.0.7,60.0633788635217,
video/Experiment/zh_sp07_Ad_Gr_4_NoThetaInAudio_NoVideo.avi,noTheta,noVideo,sp07,Ad,Gr,4,3,4,flow/blocks/NoThetaInAudio_NoVideo_A.csv,,,,,,,,,0,3,3,3,0,27,27,7,,,,,,,,,-0.4305555555555556,0.35555555555555557,1,0,0,4.317840600037016,call1,0.004166666666666667,0.05462962962962963,1,0,0,4.834681099979207,colour2,0.37777777777777777,-0.32175925925925924,1,0,0,5.368010400037747,number4,True,True,True,22,2,2019_Nov_15_1401,MA_Theta_Exp,3.0.7,60.0633788635217,
video/Experiment/zh_sp07_Ad_Ro_1_NoThetaInAudio_NoVideo.avi,noTheta,noVideo,sp07,Ad,Ro,1,3,4,flow/blocks/NoThetaInAudio_NoVideo_A.csv,,,,,,,,,0,3,3,3,0,28,28,8,,,,,,,,,-0.3486111111111111,0.26805555555555555,1,0,0,4.443076999974437,call1,0.009722222222222222,-0.13148148148148148,1,0,0,4.975360499985982,colour3,0.3611111111111111,0.2222222222222222,1,0,0,5.526560899976175,number1,True,True,True,22,2,2019_Nov_15_1401,MA_Theta_Exp,3.0.7,60.0633788635217,
video/Experiment/zh_sp01_Ad_We_1_NoThetaInAudio_NoVideo.avi,noTheta,noVideo,sp01,Ad,We,1,3,4,flow/blocks/NoThetaInAudio_NoVideo_A.csv,,,,,,,,,0,3,3,3,0,29,29,12,,,,,,,,,-0.3861111111111111,0.29305555555555557,1,0,0,5.712795400002506,call1,-0.018055555555555554,-0.10925925925925926,1,0,0,6.345403499959502,colour3,0.45416666666666666,0.30416666666666664,1,0,0,7.080382100015413,number1,True,False,True,22,2,2019_Nov_15_1401,MA_Theta_Exp,3.0.7,60.0633788635217,
video/Experiment/zh_sp01_Dr_Ge_3_NoThetaInAudio_NoVideo.avi,noTheta,noVideo,sp01,Dr,Ge,3,3,4,flow/blocks/NoThetaInAudio_NoVideo_A.csv,,,,,,,,,0,3,3,3,0,30,30,18,,,,,,,,,-0.36666666666666664,0.07268518518518519,1,0,0,4.856647800013889,call2,0.002777777777777778,0.2722222222222222,1,0,0,5.393773499992676,colour1,0.35138888888888886,-0.14537037037037037,1,0,0,5.97352120000869,number3,True,True,True,22,2,2019_Nov_15_1401,MA_Theta_Exp,3.0.7,60.0633788635217,
video/Experiment/zh_sp07_Ad_Gr_1_NoThetaInAudio_NoVideo.avi,noTheta,noVideo,sp07,Ad,Gr,1,3,4,flow/blocks/NoThetaInAudio_NoVideo_A.csv,,,,,,,,,0,3,3,3,0,31,31,4,,,,,,,,,-0.4263888888888889,0.3111111111111111,1,0,0,4.426523100002669,call1,-0.011111111111111112,0.09490740740740741,1,0,0,4.976560499984771,colour2,0.3347222222222222,0.2875,1,0,0,5.5593275999999605,number1,True,True,True,22,2,2019_Nov_15_1401,MA_Theta_Exp,3.0.7,60.0633788635217,
video/Experiment/zh_sp01_Dr_We_4_NVocInAudio_NoVideo.avi,vocoded,noVideo,sp01,Dr,We,4,4,2,flow/blocks/NVocInAudio_NoVideo_A.csv,,,,,,,,,0,4,4,4,0,0,0,31,,,,,,,,,-0.40555555555555556,0.10324074074074074,1,0,0,5.07256800000323,call2,0.002777777777777778,-0.3425925925925926,1,0,0,5.705497899965849,colour4,0.36527777777777776,-0.275,1,0,0,6.319041999988258,number4,True,True,True,22,2,2019_Nov_15_1401,MA_Theta_Exp,3.0.7,60.0633788635217,
video/Experiment/zh_sp07_Dr_We_2_NVocInAudio_NoVideo.avi,vocoded,noVideo,sp07,Dr,We,2,4,2,flow/blocks/NVocInAudio_NoVideo_A.csv,,,,,,,,,0,4,4,4,0,1,1,29,,,,,,,,,-0.4305555555555556,0.06944444444444445,1,0,0,4.4452261999831535,call2,-0.07083333333333333,-0.22314814814814815,1,0,0,4.994733500003349,colour4,0.4222222222222222,0.14583333333333334,1,0,0,5.693860500003211,number2,True,True,True,22,2,2019_Nov_15_1401,MA_Theta_Exp,3.0.7,60.0633788635217,
video/Experiment/zh_sp07_Dr_Ge_2_NVocInAudio_NoVideo.avi,vocoded,noVideo,sp07,Dr,Ge,2,4,2,flow/blocks/NVocInAudio_NoVideo_A.csv,,,,,,,,,0,4,4,4,0,2,2,17,,,,,,,,,-0.4166666666666667,0.14351851851851852,1,0,0,4.308164199988823,call2,-0.05138888888888889,0.3625,1,0,0,4.793577500036918,colour1,0.35555555555555557,0.09490740740740741,1,0,0,5.375037599995267,number2,True,True,True,22,2,2019_Nov_15_1401,MA_Theta_Exp,3.0.7,60.0633788635217,
video/Experiment/zh_sp01_Ad_We_3_NVocInAudio_NoVideo.avi,vocoded,noVideo,sp01,Ad,We,3,4,2,flow/blocks/NVocInAudio_NoVideo_A.csv,,,,,,,,,0,4,4,4,0,3,3,14,,,,,,,,,-0.38333333333333336,0.3435185185185185,1,0,0,4.9667276999680325,call1,-0.03333333333333333,-0.33287037037037037,1,0,0,5.637853100022767,colour4,0.3958333333333333,-0.08888888888888889,1,0,0,6.283304699987639,number3,True,True,True,22,2,2019_Nov_15_1401,MA_Theta_Exp,3.0.7,60.0633788635217,
video/Experiment/zh_sp07_Ad_Gr_1_NVocInAudio_NoVideo.avi,vocoded,noVideo,sp07,Ad,Gr,1,4,2,flow/blocks/NVocInAudio_NoVideo_A.csv,,,,,,,,,0,4,4,4,0,4,4,4,,,,,,,,,-0.3472222222222222,0.2652777777777778,1,0,0,4.5525155999930575,call1,0.019444444444444445,0.08657407407407407,1,0,0,5.43649049999658,colour2,0.3888888888888889,0.2652777777777778,1,0,0,6.155466800031718,number1,True,True,True,22,2,2019_Nov_15_1401,MA_Theta_Exp,3.0.7,60.0633788635217,
video/Experiment/zh_sp07_Ad_Ge_4_NVocInAudio_NoVideo.avi,vocoded,noVideo,sp07,Ad,Ge,4,4,2,flow/blocks/NVocInAudio_NoVideo_A.csv,,,,,,,,,0,4,4,4,0,5,5,3,,,,,,,,,-0.4388888888888889,0.2962962962962963,1,0,0,4.632885599974543,call1,-0.05416666666666667,0.3,1,0,0,5.19865390000632,colour1,0.42083333333333334,-0.3189814814814815,1,0,0,6.08205009996891,number4,True,True,True,22,2,2019_Nov_15_1401,MA_Theta_Exp,3.0.7,60.0633788635217,
video/Experiment/zh_sp01_Ad_We_4_NVocInAudio_NoVideo.avi,vocoded,noVideo,sp01,Ad,We,4,4,2,flow/blocks/NVocInAudio_NoVideo_A.csv,,,,,,,,,0,4,4,4,0,6,6,15,,,,,,,,,-0.4097222222222222,0.3333333333333333,1,0,0,4.842644299962558,call1,0.08472222222222223,-0.3287037037037037,1,0,0,5.608614500029944,colour4,0.4305555555555556,-0.2916666666666667,1,0,0,6.263175899977796,number4,True,True,True,22,2,2019_Nov_15_1401,MA_Theta_Exp,3.0.7,60.0633788635217,
video/Experiment/zh_sp01_Ad_Gr_2_NVocInAudio_NoVideo.avi,vocoded,noVideo,sp01,Ad,Gr,2,4,2,flow/blocks/NVocInAudio_NoVideo_A.csv,,,,,,,,,0,4,4,4,0,7,7,5,,,,,,,,,-0.42083333333333334,0.3125,1,0,0,5.183745199989062,call1,0.05277777777777778,0.09861111111111111,1,0,0,6.168297600001097,colour2,0.4361111111111111,0.06851851851851852,1,0,0,7.203057200007606,number2,True,True,True,22,2,2019_Nov_15_1401,MA_Theta_Exp,3.0.7,60.0633788635217,
video/Experiment/zh_sp07_Dr_Ro_2_NVocInAudio_NoVideo.avi,vocoded,noVideo,sp07,Dr,Ro,2,4,2,flow/blocks/NVocInAudio_NoVideo_A.csv,,,,,,,,,0,4,4,4,0,8,8,25,,,,,,,,,-0.4388888888888889,0.16435185185185186,1,0,0,4.808886100014206,call2,-0.05277777777777778,-0.12731481481481483,1,0,0,5.338363600021694,colour3,0.39305555555555555,0.09861111111111111,1,0,0,5.87210259999847,number2,True,True,True,22,2,2019_Nov_15_1401,MA_Theta_Exp,3.0.7,60.0633788635217,
video/Experiment/zh_sp07_Ad_Ro_2_NVocInAudio_NoVideo.avi,vocoded,noVideo,sp07,Ad,Ro,2,4,2,flow/blocks/NVocInAudio_NoVideo_A.csv,,,,,,,,,0,4,4,4,0,9,9,9,,,,,,,,,-0.4041666666666667,0.31527777777777777,1,0,0,4.378043800010346,call1,-0.0375,-0.13148148148148148,1,0,0,4.935889900021721,colour3,0.45416666666666666,0.10694444444444444,1,0,0,5.506921099964529,number2,True,True,True,22,2,2019_Nov_15_1401,MA_Theta_Exp,3.0.7,60.0633788635217,
video/Experiment/zh_sp07_Dr_Gr_3_NVocInAudio_NoVideo.avi,vocoded,noVideo,sp07,Dr,Gr,3,4,2,flow/blocks/NVocInAudio_NoVideo_A.csv,,,,,,,,,0,4,4,4,0,10,10,22,,,,,,,,,-0.3875,0.08796296296296297,1,0,0,4.776685400051065,call2,-0.025,0.07407407407407407,1,0,0,5.258019700006116,colour2,0.39166666666666666,-0.13564814814814816,1,0,0,5.7933223999571055,number3,True,True,True,22,2,2019_Nov_15_1401,MA_Theta_Exp,3.0.7,60.0633788635217,
video/Experiment/zh_sp07_Ad_We_1_NVocInAudio_NoVideo.avi,vocoded,noVideo,sp07,Ad,We,1,4,2,flow/blocks/NVocInAudio_NoVideo_A.csv,,,,,,,,,0,4,4,4,0,11,11,12,,,,,,,,,-0.34444444444444444,0.36944444444444446,1,0,0,4.939707899990026,call1,0.0125,-0.29814814814814816,1,0,0,5.889324999996461,colour4,0.4375,0.2875,1,0,0,6.956174499995541,number1,True,True,True,22,2,2019_Nov_15_1401,MA_Theta_Exp,3.0.7,60.0633788635217,
video/Experiment/zh_sp01_Dr_Ge_1_NVocInAudio_NoVideo.avi,vocoded,noVideo,sp01,Dr,Ge,1,4,2,flow/blocks/NVocInAudio_NoVideo_A.csv,,,,,,,,,0,4,4,4,0,12,12,16,,,,,,,,,-0.44305555555555554,0.08657407407407407,1,0,0,5.359168499999214,call2,0.059722222222222225,0.3101851851851852,1,0,0,6.79244099999778,colour1,0.43194444444444446,0.27546296296296297,1,0,0,7.424999400041997,number1,True,True,True,22,2,2019_Nov_15_1401,MA_Theta_Exp,3.0.7,60.0633788635217,
video/Experiment/zh_sp01_Ad_We_2_NVocInAudio_NoVideo.avi,vocoded,noVideo,sp01,Ad,We,2,4,2,flow/blocks/NVocInAudio_NoVideo_A.csv,,,,,,,,,0,4,4,4,0,13,13,13,,,,,,,,,-0.44027777777777777,0.2824074074074074,1,0,0,4.890955600014422,call1,-0.016666666666666666,-0.32037037037037036,1,0,0,5.557531400001608,colour4,0.41944444444444445,0.10185185185185185,1,0,0,6.441380200034473,number2,True,True,True,22,2,2019_Nov_15_1401,MA_Theta_Exp,3.0.7,60.0633788635217,
video/Experiment/zh_sp07_Ad_Ro_4_NVocInAudio_NoVideo.avi,vocoded,noVideo,sp07,Ad,Ro,4,4,2,flow/blocks/NVocInAudio_NoVideo_A.csv,,,,,,,,,0,4,4,4,0,14,14,11,,,,,,,,,-0.3861111111111111,0.26805555555555555,1,0,0,4.498724100005347,call1,-0.04583333333333333,-0.12453703703703704,1,0,0,5.062467299983837,colour3,0.3972222222222222,-0.3509259259259259,1,0,0,5.695689900021534,number4,True,True,True,22,2,2019_Nov_15_1401,MA_Theta_Exp,3.0.7,60.0633788635217,
video/Experiment/zh_sp01_Ad_Ge_3_NVocInAudio_NoVideo.avi,vocoded,noVideo,sp01,Ad,Ge,3,4,2,flow/blocks/NVocInAudio_NoVideo_A.csv,,,,,,,,,0,4,4,4,0,15,15,2,,,,,,,,,-0.4388888888888889,0.3111111111111111,1,0,0,4.694028300000355,call1,-0.06944444444444445,0.2962962962962963,1,0,0,5.177935100044124,colour1,0.3638888888888889,-0.0912037037037037,1,0,0,5.928450500010513,number3,True,True,True,22,2,2019_Nov_15_1401,MA_Theta_Exp,3.0.7,60.0633788635217,
video/Experiment/zh_sp01_Ad_Gr_3_NVocInAudio_NoVideo.avi,vocoded,noVideo,sp01,Ad,Gr,3,4,2,flow/blocks/NVocInAudio_NoVideo_A.csv,,,,,,,,,0,4,4,4,0,16,16,6,,,,,,,,,-0.39305555555555555,0.3055555555555556,1,0,0,5.080461500037927,call1,0.001388888888888889,0.12407407407407407,1,0,0,5.621064800012391,colour2,0.45416666666666666,-0.14537037037037037,1,0,0,6.217587799998,number3,True,True,True,22,2,2019_Nov_15_1401,MA_Theta_Exp,3.0.7,60.0633788635217,
video/Experiment/zh_sp07_Dr_Ge_3_NVocInAudio_NoVideo.avi,vocoded,noVideo,sp07,Dr,Ge,3,4,2,flow/blocks/NVocInAudio_NoVideo_A.csv,,,,,,,,,0,4,4,4,0,17,17,18,,,,,,,,,-0.36666666666666664,0.06111111111111111,1,0,0,4.763887899986003,call2,0.02361111111111111,0.28194444444444444,1,0,0,5.2996988000231795,colour1,0.4125,-0.11342592592592593,1,0,0,5.880098800000269,number3,True,True,True,22,2,2019_Nov_15_1401,MA_Theta_Exp,3.0.7,60.0633788635217,
video/Experiment/zh_sp01_Ad_Gr_4_NVocInAudio_NoVideo.avi,vocoded,noVideo,sp01,Ad,Gr,4,4,2,flow/blocks/NVocInAudio_NoVideo_A.csv,,,,,,,,,0,4,4,4,0,18,18,7,,,,,,,,,-0.5333333333333333,0.3277777777777778,1,0,0,5.015707099984866,call1,0.011111111111111112,0.08657407407407407,1,0,0,5.8131985000218265,colour2,0.36944444444444446,-0.28564814814814815,1,0,0,6.463199399993755,number4,True,True,True,22,2,2019_Nov_15_1401,MA_Theta_Exp,3.0.7,60.0633788635217,
video/Experiment/zh_sp07_Dr_Gr_1_NVocInAudio_NoVideo.avi,vocoded,noVideo,sp07,Dr,Gr,1,4,2,flow/blocks/NVocInAudio_NoVideo_A.csv,,,,,,,,,0,4,4,4,0,19,19,20,,,,,,,,,-0.4027777777777778,0.08888888888888889,1,0,0,4.591593899996951,call2,-0.04583333333333333,0.07546296296296297,1,0,0,5.099948699993547,colour2,0.37222222222222223,0.2569444444444444,1,0,0,5.645554200047627,number1,True,True,True,22,2,2019_Nov_15_1401,MA_Theta_Exp,3.0.7,60.0633788635217,
video/Experiment/zh_sp07_Ad_Ro_1_NVocInAudio_NoVideo.avi,vocoded,noVideo,sp07,Ad,Ro,1,4,2,flow/blocks/NVocInAudio_NoVideo_A.csv,,,,,,,,,0,4,4,4,0,20,20,8,,,,,,,,,-0.4013888888888889,0.28888888888888886,1,0,0,4.277180699980818,call1,-0.03888888888888889,-0.1287037037037037,1,0,0,4.827689500001725,colour3,0.41805555555555557,0.2708333333333333,1,0,0,5.415707800013479,number1,True,True,True,22,2,2019_Nov_15_1401,MA_Theta_Exp,3.0.7,60.0633788635217,
video/Experiment/zh_sp01_Dr_Ro_3_NVocInAudio_NoVideo.avi,vocoded,noVideo,sp01,Dr,Ro,3,4,2,flow/blocks/NVocInAudio_NoVideo_A.csv,,,,,,,,,0,4,4,4,0,21,21,26,,,,,,,,,-0.4722222222222222,0.10324074074074074,1,0,0,4.798143699998036,call2,-0.019444444444444445,-0.14953703703703702,1,0,0,5.363763600005768,colour3,0.4125,-0.12361111111111112,1,0,0,5.9795388000202365,number3,True,True,True,22,2,2019_Nov_15_1401,MA_Theta_Exp,3.0.7,60.0633788635217,
video/Experiment/zh_sp01_Ad_Ge_2_NVocInAudio_NoVideo.avi,vocoded,noVideo,sp01,Ad,Ge,2,4,2,flow/blocks/NVocInAudio_NoVideo_A.csv,,,,,,,,,0,4,4,4,0,22,22,1,,,,,,,,,-0.4361111111111111,0.3236111111111111,1,0,0,5.253804599982686,call1,-0.05277777777777778,0.3138888888888889,1,0,0,5.759879700024612,colour1,0.40694444444444444,0.0962962962962963,1,0,0,6.293168700009119,number2,True,True,True,22,2,2019_Nov_15_1401,MA_Theta_Exp,3.0.7,60.0633788635217,
video/Experiment/zh_sp01_Dr_We_3_NVocInAudio_NoVideo.avi,vocoded,noVideo,sp01,Dr,We,3,4,2,flow/blocks/NVocInAudio_NoVideo_A.csv,,,,,,,,,0,4,4,4,0,23,23,30,,,,,,,,,-0.4708333333333333,0.14351851851851852,1,0,0,4.82182329997886,call2,-0.016666666666666666,-0.3037037037037037,1,0,0,5.384115800028667,colour4,0.36527777777777776,-0.09305555555555556,1,0,0,5.98774539999431,number3,True,True,True,22,2,2019_Nov_15_1401,MA_Theta_Exp,3.0.7,60.0633788635217,
video/Experiment/zh_sp07_Ad_Ge_1_NVocInAudio_NoVideo.avi,vocoded,noVideo,sp07,Ad,Ge,1,4,2,flow/blocks/NVocInAudio_NoVideo_A.csv,,,,,,,,,0,4,4,4,0,24,24,0,,,,,,,,,-0.3736111111111111,0.3236111111111111,1,0,0,4.508992699964438,call1,0.06805555555555555,0.3236111111111111,1,0,0,5.8601577000226825,colour1,0.39305555555555555,0.36944444444444446,1,0,0,6.4104618999990635,number1,True,True,True,22,2,2019_Nov_15_1401,MA_Theta_Exp,3.0.7,60.0633788635217,
video/Experiment/zh_sp01_Ad_Ro_3_NVocInAudio_NoVideo.avi,vocoded,noVideo,sp01,Ad,Ro,3,4,2,flow/blocks/NVocInAudio_NoVideo_A.csv,,,,,,,,,0,4,4,4,0,25,25,10,,,,,,,,,-0.3972222222222222,0.25277777777777777,1,0,0,5.3209121999680065,call1,-0.059722222222222225,-0.13148148148148148,1,0,0,5.853882700030226,colour3,0.4263888888888889,-0.03564814814814815,1,0,0,6.545571199967526,number3,True,True,True,22,2,2019_Nov_15_1401,MA_Theta_Exp,3.0.7,60.0633788635217,
video/Experiment/zh_sp07_Dr_We_1_NVocInAudio_NoVideo.avi,vocoded,noVideo,sp07,Dr,We,1,4,2,flow/blocks/NVocInAudio_NoVideo_A.csv,,,,,,,,,0,4,4,4,0,26,26,28,,,,,,,,,-0.37083333333333335,0.0699074074074074,1,0,0,5.122672399971634,call2,-0.018055555555555554,-0.3175925925925926,1,0,0,5.686200900003314,colour4,0.3819444444444444,0.28888888888888886,1,0,0,6.440666100010276,number1,True,True,True,22,2,2019_Nov_15_1401,MA_Theta_Exp,3.0.7,60.0633788635217,
video/Experiment/zh_sp01_Dr_Ro_1_NVocInAudio_NoVideo.avi,vocoded,noVideo,sp01,Dr,Ro,1,4,2,flow/blocks/NVocInAudio_NoVideo_A.csv,,,,,,,,,0,4,4,4,0,27,27,24,,,,,,,,,-0.4305555555555556,0.3296296296296296,1,0,0,5.139705199981108,call1,-0.03333333333333333,-0.12314814814814815,1,0,0,5.823866199993063,colour3,0.38472222222222224,0.31666666666666665,1,0,0,6.51842169999145,number1,False,True,True,22,2,2019_Nov_15_1401,MA_Theta_Exp,3.0.7,60.0633788635217,
video/Experiment/zh_sp01_Dr_Ro_4_NVocInAudio_NoVideo.avi,vocoded,noVideo,sp01,Dr,Ro,4,4,2,flow/blocks/NVocInAudio_NoVideo_A.csv,,,,,,,,,0,4,4,4,0,28,28,27,,,,,,,,,-0.43194444444444446,0.06296296296296296,1,0,0,4.774323199992068,call2,0.002777777777777778,-0.16620370370370371,1,0,0,5.241662899963558,colour3,0.3972222222222222,-0.30925925925925923,1,0,0,5.721331599983387,number4,True,True,True,22,2,2019_Nov_15_1401,MA_Theta_Exp,3.0.7,60.0633788635217,
video/Experiment/zh_sp07_Dr_Ge_4_NVocInAudio_NoVideo.avi,vocoded,noVideo,sp07,Dr,Ge,4,4,2,flow/blocks/NVocInAudio_NoVideo_A.csv,,,,,,,,,0,4,4,4,0,29,29,19,,,,,,,,,-0.3875,0.12222222222222222,1,0,0,4.471222000021953,call2,0.0375,0.3472222222222222,1,0,0,5.067806900013238,colour1,0.4125,-0.29814814814814816,1,0,0,5.872218700009398,number4,True,True,True,22,2,2019_Nov_15_1401,MA_Theta_Exp,3.0.7,60.0633788635217,
video/Experiment/zh_sp07_Dr_Gr_2_NVocInAudio_NoVideo.avi,vocoded,noVideo,sp07,Dr,Gr,2,4,2,flow/blocks/NVocInAudio_NoVideo_A.csv,,,,,,,,,0,4,4,4,0,30,30,21,,,,,,,,,-0.36944444444444446,0.08611111111111111,1,0,0,4.469027400016785,call2,0.0375,0.10694444444444444,1,0,0,4.936642199987546,colour2,0.4,0.10462962962962963,1,0,0,5.418731800047681,number2,True,True,True,22,2,2019_Nov_15_1401,MA_Theta_Exp,3.0.7,60.0633788635217,
video/Experiment/zh_sp01_Dr_Gr_4_NVocInAudio_NoVideo.avi,vocoded,noVideo,sp01,Dr,Gr,4,4,2,flow/blocks/NVocInAudio_NoVideo_A.csv,,,,,,,,,0,4,4,4,0,31,31,23,,,,,,,,,-0.35694444444444445,0.1449074074074074,1,0,0,4.946809299988672,call2,0.034722222222222224,0.10185185185185185,1,0,0,5.378157500002999,colour2,0.42916666666666664,-0.2759259259259259,1,0,0,5.896655799995642,number4,True,True,True,22,2,2019_Nov_15_1401,MA_Theta_Exp,3.0.7,60.0633788635217,
video/Experiment/zh_sp07_Un_We_4_NoThetaInAudio_GlobalThetaInVideo.avi,noTheta,plusVideo,sp07,Un,We,4,0,3,flow/blocks/NoThetaInAudio_GlobalThetaInVideo_B.csv,,,,,,,,,,,,,,,,,0,0,0,0,0,0,0,31,-0.3819444444444444,0.125,1,0,0,4.6795158999739215,call2,-0.022222222222222223,-0.31203703703703706,1,0,0,5.312025299994275,colour4,0.43194444444444446,-0.29583333333333334,1,0,0,6.029796999995597,number4,False,True,True,22,2,2019_Nov_15_1401,MA_Theta_Exp,3.0.7,60.0633788635217,
video/Experiment/zh_sp01_Un_Gr_3_NoThetaInAudio_GlobalThetaInVideo.avi,noTheta,plusVideo,sp01,Un,Gr,3,0,3,flow/blocks/NoThetaInAudio_GlobalThetaInVideo_B.csv,,,,,,,,,,,,,,,,,0,0,0,0,0,1,1,22,-0.38333333333333336,0.09166666666666666,1,0,0,4.917256999993697,call2,0.018055555555555554,0.12222222222222222,1,0,0,5.4985172000015154,colour2,0.4041666666666667,-0.13425925925925927,1,0,0,6.116763600031845,number3,False,True,True,22,2,2019_Nov_15_1401,MA_Theta_Exp,3.0.7,60.0633788635217,
video/Experiment/zh_sp01_Un_Ro_4_NoThetaInAudio_GlobalThetaInVideo.avi,noTheta,plusVideo,sp01,Un,Ro,4,0,3,flow/blocks/NoThetaInAudio_GlobalThetaInVideo_B.csv,,,,,,,,,,,,,,,,,0,0,0,0,0,2,2,27,-0.44583333333333336,0.08796296296296297,1,0,0,5.053780299960636,call2,-0.029166666666666667,-0.1259259259259259,1,0,0,5.636975100031123,colour3,0.46111111111111114,-0.3314814814814815,1,0,0,6.203616100014187,number4,False,True,True,22,2,2019_Nov_15_1401,MA_Theta_Exp,3.0.7,60.0633788635217,
video/Experiment/zh_sp07_Ti_Ge_3_NoThetaInAudio_GlobalThetaInVideo.avi,noTheta,plusVideo,sp07,Ti,Ge,3,0,3,flow/blocks/NoThetaInAudio_GlobalThetaInVideo_B.csv,,,,,,,,,,,,,,,,,0,0,0,0,0,3,3,2,-0.35555555555555557,0.11666666666666667,1,0,0,4.814581799961161,call2,0.0763888888888889,0.3347222222222222,1,0,0,5.632596299983561,colour1,0.4486111111111111,-0.08425925925925926,1,0,0,6.38832959998399,number3,False,True,True,22,2,2019_Nov_15_1401,MA_Theta_Exp,3.0.7,60.0633788635217,
video/Experiment/zh_sp07_Un_Ge_1_NoThetaInAudio_GlobalThetaInVideo.avi,noTheta,plusVideo,sp07,Un,Ge,1,0,3,flow/blocks/NoThetaInAudio_GlobalThetaInVideo_B.csv,,,,,,,,,,,,,,,,,0,0,0,0,0,4,4,16,-0.3597222222222222,0.11851851851851852,1,0,0,4.921656200021971,call2,0.002777777777777778,0.30972222222222223,1,0,0,5.587480399990454,colour1,0.39166666666666666,0.33055555555555555,1,0,0,6.221260199963581,number1,False,True,True,22,2,2019_Nov_15_1401,MA_Theta_Exp,3.0.7,60.0633788635217,
video/Experiment/zh_sp01_Un_Gr_4_NoThetaInAudio_GlobalThetaInVideo.avi,noTheta,plusVideo,sp01,Un,Gr,4,0,3,flow/blocks/NoThetaInAudio_GlobalThetaInVideo_B.csv,,,,,,,,,,,,,,,,,0,0,0,0,0,5,5,23,-0.4375,0.08935185185185185,1,0,0,5.742534600023646,call2,0.029166666666666667,0.06111111111111111,1,0,0,6.925891499966383,colour2,0.36666666666666664,-0.27037037037037037,1,0,0,7.675747000030242,number4,False,True,True,22,2,2019_Nov_15_1401,MA_Theta_Exp,3.0.7,60.0633788635217,
video/Experiment/zh_sp01_Ti_Gr_2_NoThetaInAudio_GlobalThetaInVideo.avi,noTheta,plusVideo,sp01,Ti,Gr,2,0,3,flow/blocks/NoThetaInAudio_GlobalThetaInVideo_B.csv,,,,,,,,,,,,,,,,,0,0,0,0,0,6,6,5,-0.375,0.08796296296296297,1,0,0,5.990002700011246,call2,-0.03194444444444444,0.09861111111111111,1,0,0,6.657212999998592,colour2,0.4263888888888889,0.09444444444444444,1,0,0,7.341796000022441,number2,False,True,True,22,2,2019_Nov_15_1401,MA_Theta_Exp,3.0.7,60.0633788635217,
video/Experiment/zh_sp01_Ti_Ro_1_NoThetaInAudio_GlobalThetaInVideo.avi,noTheta,plusVideo,sp01,Ti,Ro,1,0,3,flow/blocks/NoThetaInAudio_GlobalThetaInVideo_B.csv,,,,,,,,,,,,,,,,,0,0,0,0,0,7,7,8,-0.42916666666666664,-0.14814814814814814,1,0,0,5.304308199963998,call3,-0.05555555555555555,0.11527777777777778,1,0,0,5.956978700007312,colour2,0.4027777777777778,0.36527777777777776,1,0,0,6.605213399976492,number1,True,False,True,22,2,2019_Nov_15_1401,MA_Theta_Exp,3.0.7,60.0633788635217,
video/Experiment/zh_sp01_Un_We_1_NoThetaInAudio_GlobalThetaInVideo.avi,noTheta,plusVideo,sp01,Un,We,1,0,3,flow/blocks/NoThetaInAudio_GlobalThetaInVideo_B.csv,,,,,,,,,,,,,,,,,0,0,0,0,0,8,8,28,-0.3597222222222222,0.05324074074074074,1,0,0,4.861398499982897,call2,0.022222222222222223,-0.3537037037037037,1,0,0,5.478105600050185,colour4,0.37222222222222223,0.3013888888888889,1,0,0,6.379654799995478,number1,False,True,True,22,2,2019_Nov_15_1401,MA_Theta_Exp,3.0.7,60.0633788635217,
video/Experiment/zh_sp01_Ti_Ro_4_NoThetaInAudio_GlobalThetaInVideo.avi,noTheta,plusVideo,sp01,Ti,Ro,4,0,3,flow/blocks/NoThetaInAudio_GlobalThetaInVideo_B.csv,,,,,,,,,,,,,,,,,0,0,0,0,0,9,9,11,-0.37083333333333335,-0.16064814814814815,1,0,0,5.147295199974906,call3,0.034722222222222224,-0.14305555555555555,1,0,0,5.678211799997371,colour3,0.4097222222222222,-0.3300925925925926,1,0,0,6.245238400006201,number4,True,True,True,22,2,2019_Nov_15_1401,MA_Theta_Exp,3.0.7,60.0633788635217,
video/Experiment/zh_sp07_Ti_We_3_NoThetaInAudio_GlobalThetaInVideo.avi,noTheta,plusVideo,sp07,Ti,We,3,0,3,flow/blocks/NoThetaInAudio_GlobalThetaInVideo_B.csv,,,,,,,,,,,,,,,,,0,0,0,0,0,10,10,14,-0.4527777777777778,-0.06898148148148148,1,0,0,4.565736799966544,call3,-0.008333333333333333,-0.2912037037037037,1,0,0,5.231899500009604,colour4,0.42777777777777776,-0.05,1,0,0,5.882196799968369,number3,True,True,True,22,2,2019_Nov_15_1401,MA_Theta_Exp,3.0.7,60.0633788635217,
video/Experiment/zh_sp01_Un_Ro_2_NoThetaInAudio_GlobalThetaInVideo.avi,noTheta,plusVideo,sp01,Un,Ro,2,0,3,flow/blocks/NoThetaInAudio_GlobalThetaInVideo_B.csv,,,,,,,,,,,,,,,,,0,0,0,0,0,11,11,25,-0.3541666666666667,-0.3439814814814815,1,0,0,5.066222099994775,call4,0.002777777777777778,-0.10555555555555556,1,0,0,5.583239500003401,colour3,0.3972222222222222,0.14305555555555555,1,0,0,6.084577700006776,number2,True,True,True,22,2,2019_Nov_15_1401,MA_Theta_Exp,3.0.7,60.0633788635217,
video/Experiment/zh_sp07_Ti_We_1_NoThetaInAudio_GlobalThetaInVideo.avi,noTheta,plusVideo,sp07,Ti,We,1,0,3,flow/blocks/NoThetaInAudio_GlobalThetaInVideo_B.csv,,,,,,,,,,,,,,,,,0,0,0,0,0,12,12,12,-0.32083333333333336,-0.1175925925925926,1,0,0,4.376208000001498,call3,0.004166666666666667,-0.3648148148148148,1,0,0,4.8923734000418335,colour4,0.37083333333333335,0.23055555555555557,1,0,0,5.827226800029166,number1,True,True,True,22,2,2019_Nov_15_1401,MA_Theta_Exp,3.0.7,60.0633788635217,
video/Experiment/zh_sp07_Ti_Ge_4_NoThetaInAudio_GlobalThetaInVideo.avi,noTheta,plusVideo,sp07,Ti,Ge,4,0,3,flow/blocks/NoThetaInAudio_GlobalThetaInVideo_B.csv,,,,,,,,,,,,,,,,,0,0,0,0,0,13,13,3,-0.32916666666666666,-0.10231481481481482,1,0,0,4.63518219999969,call3,0.002777777777777778,0.33055555555555555,1,0,0,5.205203299992718,colour1,0.30416666666666664,-0.3189814814814815,1,0,0,5.87351010000566,number4,True,True,True,22,2,2019_Nov_15_1401,MA_Theta_Exp,3.0.7,60.0633788635217,
video/Experiment/zh_sp01_Ti_We_2_NoThetaInAudio_GlobalThetaInVideo.avi,noTheta,plusVideo,sp01,Ti,We,2,0,3,flow/blocks/NoThetaInAudio_GlobalThetaInVideo_B.csv,,,,,,,,,,,,,,,,,0,0,0,0,0,14,14,13,-0.36944444444444446,-0.10648148148148148,1,0,0,6.058901600015815,call3,0.002777777777777778,-0.3314814814814815,1,0,0,6.6771046000067145,colour4,0.4041666666666667,0.08194444444444444,1,0,0,7.352512799960095,number2,True,True,True,22,2,2019_Nov_15_1401,MA_Theta_Exp,3.0.7,60.0633788635217,
video/Experiment/zh_sp01_Ti_Gr_4_NoThetaInAudio_GlobalThetaInVideo.avi,noTheta,plusVideo,sp01,Ti,Gr,4,0,3,flow/blocks/NoThetaInAudio_GlobalThetaInVideo_B.csv,,,,,,,,,,,,,,,,,0,0,0,0,0,15,15,7,-0.37916666666666665,-0.1550925925925926,1,0,0,4.96586140000727,call3,-0.030555555555555555,0.075,1,0,0,5.464551399985794,colour2,0.39444444444444443,-0.3037037037037037,1,0,0,5.9859206000110134,number4,True,True,True,22,2,2019_Nov_15_1401,MA_Theta_Exp,3.0.7,60.0633788635217,
video/Experiment/zh_sp01_Un_Ge_4_NoThetaInAudio_GlobalThetaInVideo.avi,noTheta,plusVideo,sp01,Un,Ge,4,0,3,flow/blocks/NoThetaInAudio_GlobalThetaInVideo_B.csv,,,,,,,,,,,,,,,,,0,0,0,0,0,16,16,19,-0.43333333333333335,-0.2967592592592593,1,0,0,5.0608220000285655,call4,0.02361111111111111,0.3013888888888889,1,0,0,5.876214599993546,colour1,0.3888888888888889,-0.3537037037037037,1,0,0,6.561169799999334,number4,True,True,True,22,2,2019_Nov_15_1401,MA_Theta_Exp,3.0.7,60.0633788635217,
video/Experiment/zh_sp07_Un_Ro_1_NoThetaInAudio_GlobalThetaInVideo.avi,noTheta,plusVideo,sp07,Un,Ro,1,0,3,flow/blocks/NoThetaInAudio_GlobalThetaInVideo_B.csv,,,,,,,,,,,,,,,,,0,0,0,0,0,17,17,24,-0.37083333333333335,-0.3037037037037037,1,0,0,4.393776800017804,call4,-0.043055555555555555,-0.11527777777777778,1,0,0,5.039727299998049,colour3,0.3902777777777778,0.39444444444444443,1,0,0,5.759487300005276,number1,True,True,True,22,2,2019_Nov_15_1401,MA_Theta_Exp,3.0.7,60.0633788635217,
video/Experiment/zh_sp07_Ti_Gr_3_NoThetaInAudio_GlobalThetaInVideo.avi,noTheta,plusVideo,sp07,Ti,Gr,3,0,3,flow/blocks/NoThetaInAudio_GlobalThetaInVideo_B.csv,,,,,,,,,,,,,,,,,0,0,0,0,0,18,18,6,-0.3680555555555556,-0.3189814814814815,1,0,0,5.1426989999599755,call4,0.02638888888888889,0.1111111111111111,1,0,0,5.857696500024758,colour2,0.44722222222222224,-0.0912037037037037,1,0,0,6.509043800004292,number3,False,True,True,22,2,2019_Nov_15_1401,MA_Theta_Exp,3.0.7,60.0633788635217,
video/Experiment/zh_sp01_Un_Ge_3_NoThetaInAudio_GlobalThetaInVideo.avi,noTheta,plusVideo,sp01,Un,Ge,3,0,3,flow/blocks/NoThetaInAudio_GlobalThetaInVideo_B.csv,,,,,,,,,,,,,,,,,0,0,0,0,0,19,19,18,-0.3972222222222222,-0.3175925925925926,1,0,0,4.942487800028175,call4,0.009722222222222222,0.2861111111111111,1,0,0,5.676284199988004,colour1,0.4361111111111111,-0.09259259259259259,1,0,0,6.372021500021219,number3,True,True,True,22,2,2019_Nov_15_1401,MA_Theta_Exp,3.0.7,60.0633788635217,
video/Experiment/zh_sp07_Un_Ro_3_NoThetaInAudio_GlobalThetaInVideo.avi,noTheta,plusVideo,sp07,Un,Ro,3,0,3,flow/blocks/NoThetaInAudio_GlobalThetaInVideo_B.csv,,,,,,,,,,,,,,,,,0,0,0,0,0,20,20,26,-0.36666666666666664,-0.2967592592592593,1,0,0,4.400671299954411,call4,0.03611111111111111,-0.1,1,0,0,4.950506600027438,colour3,0.4,-0.08842592592592592,1,0,0,5.54868379997788,number3,True,True,True,22,2,2019_Nov_15_1401,MA_Theta_Exp,3.0.7,60.0633788635217,
video/Experiment/zh_sp07_Un_We_3_NoThetaInAudio_GlobalThetaInVideo.avi,noTheta,plusVideo,sp07,Un,We,3,0,3,flow/blocks/NoThetaInAudio_GlobalThetaInVideo_B.csv,,,,,,,,,,,,,,,,,0,0,0,0,0,21,21,30,-0.3902777777777778,-0.3037037037037037,1,0,0,4.162104499991983,call4,0.034722222222222224,-0.2847222222222222,1,0,0,4.8454814000288025,colour4,0.4736111111111111,-0.08194444444444444,1,0,0,5.4798701999825425,number3,True,True,True,22,2,2019_Nov_15_1401,MA_Theta_Exp,3.0.7,60.0633788635217,
video/Experiment/zh_sp07_Ti_We_4_NoThetaInAudio_GlobalThetaInVideo.avi,noTheta,plusVideo,sp07,Ti,We,4,0,3,flow/blocks/NoThetaInAudio_GlobalThetaInVideo_B.csv,,,,,,,,,,,,,,,,,0,0,0,0,0,22,22,15,-0.4097222222222222,-0.16898148148148148,1,0,0,4.360995700000785,call3,0.008333333333333333,-0.3300925925925926,1,0,0,4.961005499993917,colour4,0.42083333333333334,-0.2916666666666667,1,0,0,5.844340899959207,number4,True,True,True,22,2,2019_Nov_15_1401,MA_Theta_Exp,3.0.7,60.0633788635217,
video/Experiment/zh_sp07_Ti_Ge_2_NoThetaInAudio_GlobalThetaInVideo.avi,noTheta,plusVideo,sp07,Ti,Ge,2,0,3,flow/blocks/NoThetaInAudio_GlobalThetaInVideo_B.csv,,,,,,,,,,,,,,,,,0,0,0,0,0,23,23,1,-0.3333333333333333,-0.1361111111111111,1,0,0,4.737015400023665,call3,-0.009722222222222222,0.34305555555555556,1,0,0,5.3551581999636255,colour1,0.44722222222222224,0.08935185185185185,1,0,0,5.921249800012447,number2,True,True,True,22,2,2019_Nov_15_1401,MA_Theta_Exp,3.0.7,60.0633788635217,
video/Experiment/zh_sp07_Un_We_2_NoThetaInAudio_GlobalThetaInVideo.avi,noTheta,plusVideo,sp07,Un,We,2,0,3,flow/blocks/NoThetaInAudio_GlobalThetaInVideo_B.csv,,,,,,,,,,,,,,,,,0,0,0,0,0,24,24,29,-0.4222222222222222,-0.27870370370370373,1,0,0,4.53394340001978,call4,-0.03888888888888889,-0.2912037037037037,1,0,0,5.066729399957694,colour4,0.41805555555555557,0.12361111111111112,1,0,0,5.695457900001202,number2,True,True,True,22,2,2019_Nov_15_1401,MA_Theta_Exp,3.0.7,60.0633788635217,
video/Experiment/zh_sp01_Ti_Gr_1_NoThetaInAudio_GlobalThetaInVideo.avi,noTheta,plusVideo,sp01,Ti,Gr,1,0,3,flow/blocks/NoThetaInAudio_GlobalThetaInVideo_B.csv,,,,,,,,,,,,,,,,,0,0,0,0,0,25,25,4,-0.4777777777777778,-0.13703703703703704,1,0,0,4.914298599993344,call3,0.016666666666666666,0.08611111111111111,1,0,0,5.464428199979011,colour2,0.39305555555555555,0.3013888888888889,1,0,0,6.0642938000382856,number1,True,True,True,22,2,2019_Nov_15_1401,MA_Theta_Exp,3.0.7,60.0633788635217,
video/Experiment/zh_sp01_Un_Ge_2_NoThetaInAudio_GlobalThetaInVideo.avi,noTheta,plusVideo,sp01,Un,Ge,2,0,3,flow/blocks/NoThetaInAudio_GlobalThetaInVideo_B.csv,,,,,,,,,,,,,,,,,0,0,0,0,0,26,26,17,-0.36944444444444446,-0.33425925925925926,1,0,0,4.903612800000701,call4,0.034722222222222224,0.2722222222222222,1,0,0,5.6229469000245444,colour1,0.44583333333333336,0.0837962962962963,1,0,0,6.190012599981856,number2,True,True,True,22,2,2019_Nov_15_1401,MA_Theta_Exp,3.0.7,60.0633788635217,
video/Experiment/zh_sp01_Un_Gr_1_NoThetaInAudio_GlobalThetaInVideo.avi,noTheta,plusVideo,sp01,Un,Gr,1,0,3,flow/blocks/NoThetaInAudio_GlobalThetaInVideo_B.csv,,,,,,,,,,,,,,,,,0,0,0,0,0,27,27,20,-0.41944444444444445,-0.36898148148148147,1,0,0,5.123821999994107,call4,-0.03194444444444444,0.07777777777777778,1,0,0,5.734135699982289,colour2,0.4388888888888889,0.3347222222222222,1,0,0,6.33541530004004,number1,True,True,True,22,2,2019_Nov_15_1401,MA_Theta_Exp,3.0.7,60.0633788635217,
video/Experiment/zh_sp07_Ti_Ge_1_NoThetaInAudio_GlobalThetaInVideo.avi,noTheta,plusVideo,sp07,Ti,Ge,1,0,3,flow/blocks/NoThetaInAudio_GlobalThetaInVideo_B.csv,,,,,,,,,,,,,,,,,0,0,0,0,0,28,28,0,-0.33194444444444443,-0.09259259259259259,1,0,0,4.514066300005652,call3,0.001388888888888889,0.29444444444444445,1,0,0,5.115035200025886,colour1,0.39166666666666666,0.32222222222222224,1,0,0,5.648348300019279,number1,True,True,True,22,2,2019_Nov_15_1401,MA_Theta_Exp,3.0.7,60.0633788635217,
video/Experiment/zh_sp07_Un_Gr_2_NoThetaInAudio_GlobalThetaInVideo.avi,noTheta,plusVideo,sp07,Un,Gr,2,0,3,flow/blocks/NoThetaInAudio_GlobalThetaInVideo_B.csv,,,,,,,,,,,,,,,,,0,0,0,0,0,29,29,21,-0.38333333333333336,-0.07731481481481481,1,0,0,4.475238600047305,call3,0.0,0.11944444444444445,1,0,0,4.958393100008834,colour2,0.38472222222222224,0.12268518518518519,1,0,0,5.507563499966636,number2,False,True,True,22,2,2019_Nov_15_1401,MA_Theta_Exp,3.0.7,60.0633788635217,
video/Experiment/zh_sp07_Ti_Ro_2_NoThetaInAudio_GlobalThetaInVideo.avi,noTheta,plusVideo,sp07,Ti,Ro,2,0,3,flow/blocks/NoThetaInAudio_GlobalThetaInVideo_B.csv,,,,,,,,,,,,,,,,,0,0,0,0,0,30,30,9,-0.37083333333333335,-0.13287037037037036,1,0,0,4.322630999959074,call3,-0.034722222222222224,-0.08194444444444444,1,0,0,4.971651800035033,colour3,0.39444444444444443,0.10555555555555556,1,0,0,5.6377435000031255,number2,True,True,True,22,2,2019_Nov_15_1401,MA_Theta_Exp,3.0.7,60.0633788635217,
video/Experiment/zh_sp01_Ti_Ro_3_NoThetaInAudio_GlobalThetaInVideo.avi,noTheta,plusVideo,sp01,Ti,Ro,3,0,3,flow/blocks/NoThetaInAudio_GlobalThetaInVideo_B.csv,,,,,,,,,,,,,,,,,0,0,0,0,0,31,31,10,-0.43333333333333335,-0.1050925925925926,1,0,0,5.0059144999831915,call3,-0.011111111111111112,-0.07916666666666666,1,0,0,5.507179300009739,colour3,0.4166666666666667,-0.08009259259259259,1,0,0,6.07239510002546,number3,True,True,True,22,2,2019_Nov_15_1401,MA_Theta_Exp,3.0.7,60.0633788635217,
video/Experiment/zh_sp07_Ti_We_2_NVocInAudio_NoVideo.avi,vocoded,noVideo,sp07,Ti,We,2,1,2,flow/blocks/NVocInAudio_NoVideo_B.csv,,,,,,,,,,,,,,,,,0,1,1,1,0,0,0,13,-0.4111111111111111,-0.10972222222222222,1,0,0,4.9612350999959745,call3,-0.004166666666666667,-0.34675925925925927,1,0,0,5.527665100002196,colour4,0.3958333333333333,0.15,1,0,0,6.1445494999643415,number2,True,True,True,22,2,2019_Nov_15_1401,MA_Theta_Exp,3.0.7,60.0633788635217,
video/Experiment/zh_sp01_Un_Ge_3_NVocInAudio_NoVideo.avi,vocoded,noVideo,sp01,Un,Ge,3,1,2,flow/blocks/NVocInAudio_NoVideo_B.csv,,,,,,,,,,,,,,,,,0,1,1,1,0,1,1,18,-0.3472222222222222,-0.29814814814814816,1,0,0,5.069428100017831,call4,0.016666666666666666,0.2875,1,0,0,5.835703000018839,colour1,0.3861111111111111,-0.12314814814814815,1,0,0,6.454845900007058,number3,True,True,True,22,2,2019_Nov_15_1401,MA_Theta_Exp,3.0.7,60.0633788635217,
video/Experiment/zh_sp07_Un_Gr_1_NVocInAudio_NoVideo.avi,vocoded,noVideo,sp07,Un,Gr,1,1,2,flow/blocks/NVocInAudio_NoVideo_B.csv,,,,,,,,,,,,,,,,,0,1,1,1,0,2,2,20,-0.3736111111111111,-0.32037037037037036,1,0,0,4.452408300014213,call4,-0.02638888888888889,0.07777777777777778,1,0,0,5.018739699968137,colour2,0.41388888888888886,0.35555555555555557,1,0,0,5.585857300029602,number1,True,True,True,22,2,2019_Nov_15_1401,MA_Theta_Exp,3.0.7,60.0633788635217,
video/Experiment/zh_sp01_Ti_Ge_2_NVocInAudio_NoVideo.avi,vocoded,noVideo,sp01,Ti,Ge,2,1,2,flow/blocks/NVocInAudio_NoVideo_B.csv,,,,,,,,,,,,,,,,,0,1,1,1,0,3,3,1,-0.39305555555555555,-0.15833333333333333,1,0,0,5.13609980000183,call3,-0.05138888888888889,0.24166666666666667,1,0,0,5.752950399997644,colour1,0.4513888888888889,0.13240740740740742,1,0,0,6.335610000009183,number2,True,True,True,22,2,2019_Nov_15_1401,MA_Theta_Exp,3.0.7,60.0633788635217,
video/Experiment/zh_sp01_Ti_Ro_4_NVocInAudio_NoVideo.avi,vocoded,noVideo,sp01,Ti,Ro,4,1,2,flow/blocks/NVocInAudio_NoVideo_B.csv,,,,,,,,,,,,,,,,,0,1,1,1,0,4,4,11,-0.37222222222222223,-0.13842592592592592,1,0,0,4.921888199984096,call3,0.09027777777777778,-0.12916666666666668,1,0,0,5.572496799984947,colour3,0.4388888888888889,-0.31342592592592594,1,0,0,6.652014999999665,number4,True,True,True,22,2,2019_Nov_15_1401,MA_Theta_Exp,3.0.7,60.0633788635217,
video/Experiment/zh_sp01_Un_We_3_NVocInAudio_NoVideo.avi,vocoded,noVideo,sp01,Un,We,3,1,2,flow/blocks/NVocInAudio_NoVideo_B.csv,,,,,,,,,,,,,,,,,0,1,1,1,0,5,5,30,-0.4263888888888889,-0.23981481481481481,1,0,0,4.943361999990884,call4,-0.04861111111111111,-0.2912037037037037,1,0,0,5.475493400008418,colour4,0.41944444444444445,-0.08472222222222223,1,0,0,6.025416299991775,number3,True,True,True,22,2,2019_Nov_15_1401,MA_Theta_Exp,3.0.7,60.0633788635217,
video/Experiment/zh_sp07_Ti_Ge_3_NVocInAudio_NoVideo.avi,vocoded,noVideo,sp07,Ti,Ge,3,1,2,flow/blocks/NVocInAudio_NoVideo_B.csv,,,,,,,,,,,,,,,,,0,1,1,1,0,6,6,2,-0.4041666666666667,-0.09953703703703703,1,0,0,4.347138900018763,call3,0.002777777777777778,0.28888888888888886,1,0,0,4.8969969999743626,colour1,0.4097222222222222,-0.16064814814814815,1,0,0,5.530319599958602,number3,True,True,True,22,2,2019_Nov_15_1401,MA_Theta_Exp,3.0.7,60.0633788635217,
video/Experiment/zh_sp07_Un_Ge_1_NVocInAudio_NoVideo.avi,vocoded,noVideo,sp07,Un,Ge,1,1,2,flow/blocks/NVocInAudio_NoVideo_B.csv,,,,,,,,,,,,,,,,,0,1,1,1,0,7,7,16,-0.4625,-0.08564814814814815,1,0,0,4.294110399961937,call3,0.011111111111111112,0.2986111111111111,1,0,0,4.8264926000265405,colour1,0.4305555555555556,0.26157407407407407,1,0,0,5.329408499994315,number1,False,True,True,22,2,2019_Nov_15_1401,MA_Theta_Exp,3.0.7,60.0633788635217,
video/Experiment/zh_sp01_Un_Ro_1_NVocInAudio_NoVideo.avi,vocoded,noVideo,sp01,Un,Ro,1,1,2,flow/blocks/NVocInAudio_NoVideo_B.csv,,,,,,,,,,,,,,,,,0,1,1,1,0,8,8,24,-0.3597222222222222,-0.30787037037037035,1,0,0,5.068199999979697,call4,0.018055555555555554,-0.12638888888888888,1,0,0,5.551466999982949,colour3,0.37916666666666665,0.3055555555555556,1,0,0,6.151429199962877,number1,True,True,True,22,2,2019_Nov_15_1401,MA_Theta_Exp,3.0.7,60.0633788635217,
video/Experiment/zh_sp01_Ti_Ro_2_NVocInAudio_NoVideo.avi,vocoded,noVideo,sp01,Ti,Ro,2,1,2,flow/blocks/NVocInAudio_NoVideo_B.csv,,,,,,,,,,,,,,,,,0,1,1,1,0,9,9,9,-0.3819444444444444,-0.11342592592592593,1,0,0,4.971290800021961,call3,0.02361111111111111,-0.10138888888888889,1,0,0,5.406671600008849,colour3,0.36944444444444446,0.14305555555555555,1,0,0,5.908761399972718,number2,True,True,True,22,2,2019_Nov_15_1401,MA_Theta_Exp,3.0.7,60.0633788635217,
video/Experiment/zh_sp07_Ti_We_1_NVocInAudio_NoVideo.avi,vocoded,noVideo,sp07,Ti,We,1,1,2,flow/blocks/NVocInAudio_NoVideo_B.csv,,,,,,,,,,,,,,,,,0,1,1,1,0,10,10,12,-0.3625,-0.15138888888888888,1,0,0,4.403994599997532,call3,0.0375,-0.337037037037037,1,0,0,4.936248100013472,colour4,0.4263888888888889,0.3194444444444444,1,0,0,5.586928399978206,number1,True,True,True,22,2,2019_Nov_15_1401,MA_Theta_Exp,3.0.7,60.0633788635217,
video/Experiment/zh_sp07_Un_Ge_4_NVocInAudio_NoVideo.avi,vocoded,noVideo,sp07,Un,Ge,4,1,2,flow/blocks/NVocInAudio_NoVideo_B.csv,,,,,,,,,,,,,,,,,0,1,1,1,0,11,11,19,-0.3458333333333333,-0.0912037037037037,1,0,0,4.54016929998761,call3,0.006944444444444444,0.2791666666666667,1,0,0,5.08582000003662,colour1,0.3597222222222222,-0.25092592592592594,1,0,0,5.718808199977502,number4,False,True,True,22,2,2019_Nov_15_1401,MA_Theta_Exp,3.0.7,60.0633788635217,
video/Experiment/zh_sp07_Ti_We_3_NVocInAudio_NoVideo.avi,vocoded,noVideo,sp07,Ti,We,3,1,2,flow/blocks/NVocInAudio_NoVideo_B.csv,,,,,,,,,,,,,,,,,0,1,1,1,0,12,12,14,-0.3375,-0.09814814814814815,1,0,0,4.518204500025604,call3,0.022222222222222223,-0.3578703703703704,1,0,0,5.151525599998422,colour4,0.3875,-0.1,1,0,0,5.802042700001039,number3,True,True,True,22,2,2019_Nov_15_1401,MA_Theta_Exp,3.0.7,60.0633788635217,
video/Experiment/zh_sp01_Ti_Ge_1_NVocInAudio_NoVideo.avi,vocoded,noVideo,sp01,Ti,Ge,1,1,2,flow/blocks/NVocInAudio_NoVideo_B.csv,,,,,,,,,,,,,,,,,0,1,1,1,0,13,13,0,-0.3972222222222222,-0.14166666666666666,1,0,0,5.127086299995426,call3,-0.016666666666666666,0.28194444444444444,1,0,0,5.747741700033657,colour1,0.4222222222222222,0.29305555555555557,1,0,0,6.348109300015494,number1,True,True,True,22,2,2019_Nov_15_1401,MA_Theta_Exp,3.0.7,60.0633788635217,
