videoFile,condition,video,speaker,callSign,colour,number,seq,id,block,exp.thisRepN,exp.thisTrialN,exp.thisN,exp.thisIndex,training.thisRepN,training.thisTrialN,training.thisN,training.thisIndex,firstHalf.thisRepN,firstHalf.thisTrialN,firstHalf.thisN,firstHalf.thisIndex,blocksA.thisRepN,blocksA.thisTrialN,blocksA.thisN,blocksA.thisIndex,secondHalf.thisRepN,secondHalf.thisTrialN,secondHalf.thisN,secondHalf.thisIndex,blocksB.thisRepN,blocksB.thisTrialN,blocksB.thisN,blocksB.thisIndex,mouseClickOnCall.x,mouseClickOnCall.y,mouseClickOnCall.leftButton,mouseClickOnCall.midButton,mouseClickOnCall.rightButton,mouseClickOnCall.time,mouseClickOnCall.clicked_name,mouseClickOnColour.x,mouseClickOnColour.y,mouseClickOnColour.leftButton,mouseClickOnColour.midButton,mouseClickOnColour.rightButton,mouseClickOnColour.time,mouseClickOnColour.clicked_name,mouseClickOnNumber.x,mouseClickOnNumber.y,mouseClickOnNumber.leftButton,mouseClickOnNumber.midButton,mouseClickOnNumber.rightButton,mouseClickOnNumber.time,mouseClickOnNumber.clicked_name,callSignCorrect,colourCorrect,numberCorrect,participant,order,date,expName,psychopyVersion,frameRate,
video/Training/zh_sp01_Ad_We_4_NVocInAudio_NoVideo.avi,vocoded,noVideo,sp01,Ad,We,4,,,,,,,,0,0,0,0,,,,,,,,,,,,,,,,,-0.44305555555555554,0.3768518518518518,1,0,0,11.131494499975815,call1,0.015277777777777777,-0.36944444444444446,1,0,0,12.379280799999833,colour4,0.42777777777777776,-0.37175925925925923,1,0,0,13.231563100009225,number4,True,True,True,24,4,2019_Nov_15_1559,MA_Theta_Exp,3.0.7,60.16763907767768,
video/Training/zh_sp07_Ad_Ge_3_NVocInAudio_NoVideo.avi,vocoded,noVideo,sp07,Ad,Ge,3,,,,,,,,0,1,1,1,,,,,,,,,,,,,,,,,-0.3875,0.3449074074074074,1,0,0,5.254881100030616,call1,-0.030555555555555555,0.30416666666666664,1,0,0,6.620339300017804,colour1,0.37777777777777777,-0.0763888888888889,1,0,0,7.486695499974303,number3,True,True,True,24,4,2019_Nov_15_1559,MA_Theta_Exp,3.0.7,60.16763907767768,
video/Training/zh_sp01_Dr_Ro_3_NVocInAudio_GlobalThetaInVideo.avi,vocoded,plusVideo,sp01,Dr,Ro,3,,,,,,,,0,2,2,2,,,,,,,,,,,,,,,,,-0.3597222222222222,0.11018518518518519,1,0,0,5.465033399988897,call2,0.018055555555555554,-0.09722222222222222,1,0,0,6.614413800009061,colour3,0.4305555555555556,-0.09537037037037037,1,0,0,7.181959900015499,number3,True,True,True,24,4,2019_Nov_15_1559,MA_Theta_Exp,3.0.7,60.16763907767768,
video/Training/zh_sp07_Dr_Gr_4_NVocInAudio_GlobalThetaInVideo.avi,vocoded,plusVideo,sp07,Dr,Gr,4,,,,,,,,0,3,3,3,,,,,,,,,,,,,,,,,-0.38472222222222224,0.10416666666666667,1,0,0,5.038802600000054,call2,-0.03333333333333333,0.12222222222222222,1,0,0,5.822331199946348,colour2,0.3680555555555556,-0.30787037037037035,1,0,0,6.6042903999914415,number4,True,True,True,24,4,2019_Nov_15_1559,MA_Theta_Exp,3.0.7,60.16763907767768,
video/Training/zh_sp01_Ti_Gr_2_NoThetaInAudio_NoVideo.avi,noTheta,noVideo,sp01,Ti,Gr,2,,,,,,,,0,4,4,4,,,,,,,,,,,,,,,,,0.3597222222222222,0.09907407407407408,1,0,0,6.380475800018758,call2,0.06666666666666667,0.34444444444444444,1,0,0,12.779495599970687,colour1,0.33611111111111114,0.1736111111111111,1,0,0,13.447120199969504,number2,False,False,True,24,4,2019_Nov_15_1559,MA_Theta_Exp,3.0.7,60.16763907767768,
video/Training/zh_sp07_Ti_Ro_1_NoThetaInAudio_NoVideo.avi,noTheta,noVideo,sp07,Ti,Ro,1,,,,,,,,0,5,5,5,,,,,,,,,,,,,,,,,-0.32916666666666666,0.3541666666666667,1,0,0,7.402053400001023,call1,-0.005555555555555556,0.13472222222222222,1,0,0,8.318100700038485,colour2,0.3972222222222222,0.30277777777777776,1,0,0,8.751695799990557,number1,False,False,True,24,4,2019_Nov_15_1559,MA_Theta_Exp,3.0.7,60.16763907767768,
video/Training/zh_sp01_Un_Ge_1_NoThetaInAudio_GlobalThetaInVideo.avi,noTheta,plusVideo,sp01,Un,Ge,1,,,,,,,,0,6,6,6,,,,,,,,,,,,,,,,,-0.3902777777777778,0.09444444444444444,1,0,0,5.501559800002724,call2,0.043055555555555555,-0.12175925925925926,1,0,0,7.317926499992609,colour3,0.375,0.2833333333333333,1,0,0,8.034538999956567,number1,False,False,True,24,4,2019_Nov_15_1559,MA_Theta_Exp,3.0.7,60.16763907767768,
video/Training/zh_sp07_Un_We_2_NoThetaInAudio_GlobalThetaInVideo.avi,noTheta,plusVideo,sp07,Un,We,2,,,,,,,,0,7,7,7,,,,,,,,,,,,,,,,,-0.44166666666666665,0.30277777777777776,1,0,0,7.755935799970757,call1,0.030555555555555555,-0.2111111111111111,1,0,0,8.388367299980018,colour3,0.44583333333333336,-0.08009259259259259,1,0,0,9.638877600023989,number3,False,False,False,24,4,2019_Nov_15_1559,MA_Theta_Exp,3.0.7,60.16763907767768,
video/Training/zh_sp01_Ad_Ge_1_GlobalTheta_NoVideo.avi,globalTheta,noVideo,sp01,Ad,Ge,1,,,,,,,,0,8,8,8,,,,,,,,,,,,,,,,,-0.4263888888888889,0.3388888888888889,1,0,0,5.452977899985854,call1,-0.07361111111111111,0.2902777777777778,1,0,0,7.436023199988995,colour1,0.42916666666666664,0.2875,1,0,0,8.052611300023273,number1,True,True,True,24,4,2019_Nov_15_1559,MA_Theta_Exp,3.0.7,60.16763907767768,
video/Training/zh_sp07_Ad_Ro_3_GlobalTheta_NoVideo.avi,globalTheta,noVideo,sp07,Ad,Ro,3,,,,,,,,0,9,9,9,,,,,,,,,,,,,,,,,-0.43472222222222223,0.2851851851851852,1,0,0,5.145145300019067,call1,0.058333333333333334,0.07962962962962963,1,0,0,7.8924730000435375,colour2,0.4152777777777778,-0.09953703703703703,1,0,0,8.961641300003976,number3,True,False,True,24,4,2019_Nov_15_1559,MA_Theta_Exp,3.0.7,60.16763907767768,
video/Experiment/zh_sp07_Ad_Ge_3_NVocInAudio_GlobalThetaInVideo.avi,vocoded,plusVideo,sp07,Ad,Ge,3,0,1,flow/blocks/NVocInAudio_GlobalThetaInVideo_A.csv,,,,,,,,,0,0,0,0,0,0,0,2,,,,,,,,,-0.4111111111111111,0.2861111111111111,1,0,0,4.869096900045406,call1,-0.025,0.3226851851851852,1,0,0,5.952902599994559,colour1,0.4361111111111111,-0.0763888888888889,1,0,0,7.168674399959855,number3,True,True,True,24,4,2019_Nov_15_1559,MA_Theta_Exp,3.0.7,60.16763907767768,
video/Experiment/zh_sp07_Ad_Ro_2_NVocInAudio_GlobalThetaInVideo.avi,vocoded,plusVideo,sp07,Ad,Ro,2,0,1,flow/blocks/NVocInAudio_GlobalThetaInVideo_A.csv,,,,,,,,,0,0,0,0,0,1,1,9,,,,,,,,,-0.35555555555555557,0.300462962962963,1,0,0,4.888375999988057,call1,0.05277777777777778,-0.16805555555555557,1,0,0,5.738948500016704,colour3,0.4083333333333333,0.11805555555555555,1,0,0,6.821444700006396,number2,True,True,True,24,4,2019_Nov_15_1559,MA_Theta_Exp,3.0.7,60.16763907767768,
video/Experiment/zh_sp07_Ad_We_1_NVocInAudio_GlobalThetaInVideo.avi,vocoded,plusVideo,sp07,Ad,We,1,0,1,flow/blocks/NVocInAudio_GlobalThetaInVideo_A.csv,,,,,,,,,0,0,0,0,0,2,2,12,,,,,,,,,-0.35555555555555557,0.2810185185185185,1,0,0,4.6520972000434995,call1,0.04861111111111111,-0.34305555555555556,1,0,0,5.468382999999449,colour4,0.4125,0.2601851851851852,1,0,0,6.201635300007183,number1,True,True,True,24,4,2019_Nov_15_1559,MA_Theta_Exp,3.0.7,60.16763907767768,
video/Experiment/zh_sp01_Dr_Ro_2_NVocInAudio_GlobalThetaInVideo.avi,vocoded,plusVideo,sp01,Dr,Ro,2,0,1,flow/blocks/NVocInAudio_GlobalThetaInVideo_A.csv,,,,,,,,,0,0,0,0,0,3,3,25,,,,,,,,,-0.32916666666666666,0.13194444444444445,1,0,0,5.331718900008127,call2,0.0375,-0.16203703703703703,1,0,0,5.981930600013584,colour3,0.44166666666666665,0.08055555555555556,1,0,0,6.4985155000467785,number2,True,True,True,24,4,2019_Nov_15_1559,MA_Theta_Exp,3.0.7,60.16763907767768,
video/Experiment/zh_sp01_Dr_Ge_2_NVocInAudio_GlobalThetaInVideo.avi,vocoded,plusVideo,sp01,Dr,Ge,2,0,1,flow/blocks/NVocInAudio_GlobalThetaInVideo_A.csv,,,,,,,,,0,0,0,0,0,4,4,17,,,,,,,,,-0.36527777777777776,0.15138888888888888,1,0,0,5.173649100004695,call2,0.06111111111111111,0.3111111111111111,1,0,0,5.857694000005722,colour1,0.4097222222222222,0.13055555555555556,1,0,0,6.697403199970722,number2,True,True,True,24,4,2019_Nov_15_1559,MA_Theta_Exp,3.0.7,60.16763907767768,
video/Experiment/zh_sp07_Ad_Gr_3_NVocInAudio_GlobalThetaInVideo.avi,vocoded,plusVideo,sp07,Ad,Gr,3,0,1,flow/blocks/NVocInAudio_GlobalThetaInVideo_A.csv,,,,,,,,,0,0,0,0,0,5,5,6,,,,,,,,,-0.3861111111111111,0.2833333333333333,1,0,0,5.264387900009751,call1,0.05416666666666667,0.08657407407407407,1,0,0,6.163641999999527,colour2,0.44027777777777777,-0.08842592592592592,1,0,0,6.883973200048786,number3,True,True,True,24,4,2019_Nov_15_1559,MA_Theta_Exp,3.0.7,60.16763907767768,
video/Experiment/zh_sp07_Ad_Gr_1_NVocInAudio_GlobalThetaInVideo.avi,vocoded,plusVideo,sp07,Ad,Gr,1,0,1,flow/blocks/NVocInAudio_GlobalThetaInVideo_A.csv,,,,,,,,,0,0,0,0,0,6,6,4,,,,,,,,,-0.37083333333333335,0.275,1,0,0,4.708227099967189,call1,0.05,0.07962962962962963,1,0,0,5.257993199978955,colour2,0.37083333333333335,0.3333333333333333,1,0,0,6.140184399962891,number1,True,True,True,24,4,2019_Nov_15_1559,MA_Theta_Exp,3.0.7,60.16763907767768,
video/Experiment/zh_sp07_Ad_Ge_1_NVocInAudio_GlobalThetaInVideo.avi,vocoded,plusVideo,sp07,Ad,Ge,1,0,1,flow/blocks/NVocInAudio_GlobalThetaInVideo_A.csv,,,,,,,,,0,0,0,0,0,7,7,0,,,,,,,,,-0.4027777777777778,0.3060185185185185,1,0,0,4.338166999979876,call1,0.016666666666666666,0.3236111111111111,1,0,0,5.173117100028321,colour1,0.3388888888888889,0.3111111111111111,1,0,0,5.6874636999564245,number1,True,True,True,24,4,2019_Nov_15_1559,MA_Theta_Exp,3.0.7,60.16763907767768,
video/Experiment/zh_sp01_Ad_We_2_NVocInAudio_GlobalThetaInVideo.avi,vocoded,plusVideo,sp01,Ad,We,2,0,1,flow/blocks/NVocInAudio_GlobalThetaInVideo_A.csv,,,,,,,,,0,0,0,0,0,8,8,13,,,,,,,,,-0.41805555555555557,0.29907407407407405,1,0,0,5.251136000035331,call1,0.011111111111111112,-0.3236111111111111,1,0,0,6.099136799981352,colour4,0.3597222222222222,0.1361111111111111,1,0,0,6.683527900022455,number2,True,True,True,24,4,2019_Nov_15_1559,MA_Theta_Exp,3.0.7,60.16763907767768,
video/Experiment/zh_sp01_Ad_Ge_4_NVocInAudio_GlobalThetaInVideo.avi,vocoded,plusVideo,sp01,Ad,Ge,4,0,1,flow/blocks/NVocInAudio_GlobalThetaInVideo_A.csv,,,,,,,,,0,0,0,0,0,9,9,3,,,,,,,,,-0.3736111111111111,0.2962962962962963,1,0,0,5.540544499992393,call1,0.013888888888888888,0.37222222222222223,1,0,0,6.440606000018306,colour1,0.4166666666666667,-0.3314814814814815,1,0,0,7.242048999993131,number4,True,True,True,24,4,2019_Nov_15_1559,MA_Theta_Exp,3.0.7,60.16763907767768,
video/Experiment/zh_sp07_Ad_Ro_4_NVocInAudio_GlobalThetaInVideo.avi,vocoded,plusVideo,sp07,Ad,Ro,4,0,1,flow/blocks/NVocInAudio_GlobalThetaInVideo_A.csv,,,,,,,,,0,0,0,0,0,10,10,11,,,,,,,,,-0.4097222222222222,0.33194444444444443,1,0,0,4.63931350002531,call1,0.008333333333333333,-0.07222222222222222,1,0,0,5.571861899981741,colour3,0.3861111111111111,-0.3050925925925926,1,0,0,7.371598900004756,number4,True,True,True,24,4,2019_Nov_15_1559,MA_Theta_Exp,3.0.7,60.16763907767768,
video/Experiment/zh_sp01_Ad_Ge_2_NVocInAudio_GlobalThetaInVideo.avi,vocoded,plusVideo,sp01,Ad,Ge,2,0,1,flow/blocks/NVocInAudio_GlobalThetaInVideo_A.csv,,,,,,,,,0,0,0,0,0,11,11,1,,,,,,,,,-0.3875,0.2722222222222222,1,0,0,5.318767899996601,call1,0.008333333333333333,0.3212962962962963,1,0,0,6.184587600000668,colour1,0.4152777777777778,0.05416666666666667,1,0,0,6.77128200000152,number2,True,True,True,24,4,2019_Nov_15_1559,MA_Theta_Exp,3.0.7,60.16763907767768,
video/Experiment/zh_sp01_Ad_We_3_NVocInAudio_GlobalThetaInVideo.avi,vocoded,plusVideo,sp01,Ad,We,3,0,1,flow/blocks/NVocInAudio_GlobalThetaInVideo_A.csv,,,,,,,,,0,0,0,0,0,12,12,14,,,,,,,,,-0.35,0.34444444444444444,1,0,0,5.427995000034571,call1,0.004166666666666667,-0.3509259259259259,1,0,0,6.177155299985316,colour4,0.4166666666666667,-0.1287037037037037,1,0,0,6.976728799985722,number3,True,True,True,24,4,2019_Nov_15_1559,MA_Theta_Exp,3.0.7,60.16763907767768,
video/Experiment/zh_sp07_Dr_Ge_4_NVocInAudio_GlobalThetaInVideo.avi,vocoded,plusVideo,sp07,Dr,Ge,4,0,1,flow/blocks/NVocInAudio_GlobalThetaInVideo_A.csv,,,,,,,,,0,0,0,0,0,13,13,19,,,,,,,,,-0.3625,0.09583333333333334,1,0,0,4.790121399972122,call2,0.05,0.3125,1,0,0,5.517956299998332,colour1,0.40555555555555556,-0.34120370370370373,1,0,0,6.192226900020614,number4,True,True,True,24,4,2019_Nov_15_1559,MA_Theta_Exp,3.0.7,60.16763907767768,
video/Experiment/zh_sp01_Ad_Gr_2_NVocInAudio_GlobalThetaInVideo.avi,vocoded,plusVideo,sp01,Ad,Gr,2,0,1,flow/blocks/NVocInAudio_GlobalThetaInVideo_A.csv,,,,,,,,,0,0,0,0,0,14,14,5,,,,,,,,,-0.37777777777777777,0.32222222222222224,1,0,0,5.3238752000033855,call1,0.018055555555555554,0.10555555555555556,1,0,0,6.3082113999989815,colour2,0.375,0.09907407407407408,1,0,0,6.773688699991908,number2,True,True,True,24,4,2019_Nov_15_1559,MA_Theta_Exp,3.0.7,60.16763907767768,
video/Experiment/zh_sp01_Dr_Gr_2_NVocInAudio_GlobalThetaInVideo.avi,vocoded,plusVideo,sp01,Dr,Gr,2,0,1,flow/blocks/NVocInAudio_GlobalThetaInVideo_A.csv,,,,,,,,,0,0,0,0,0,15,15,21,,,,,,,,,-0.3861111111111111,0.1388888888888889,1,0,0,5.24587399995653,call2,0.075,0.11851851851851852,1,0,0,5.946086400013883,colour2,0.44027777777777777,0.09907407407407408,1,0,0,6.513253099983558,number2,True,True,True,24,4,2019_Nov_15_1559,MA_Theta_Exp,3.0.7,60.16763907767768,
video/Experiment/zh_sp07_Dr_We_3_NVocInAudio_GlobalThetaInVideo.avi,vocoded,plusVideo,sp07,Dr,We,3,0,1,flow/blocks/NVocInAudio_GlobalThetaInVideo_A.csv,,,,,,,,,0,0,0,0,0,16,16,30,,,,,,,,,-0.3861111111111111,0.10416666666666667,1,0,0,4.7036649999790825,call2,0.002777777777777778,-0.34120370370370373,1,0,0,5.419328999996651,colour4,0.41944444444444445,-0.04953703703703704,1,0,0,6.003321700030938,number3,True,True,True,24,4,2019_Nov_15_1559,MA_Theta_Exp,3.0.7,60.16763907767768,
video/Experiment/zh_sp01_Dr_We_4_NVocInAudio_GlobalThetaInVideo.avi,vocoded,plusVideo,sp01,Dr,We,4,0,1,flow/blocks/NVocInAudio_GlobalThetaInVideo_A.csv,,,,,,,,,0,0,0,0,0,17,17,31,,,,,,,,,-0.3902777777777778,0.11574074074074074,1,0,0,5.130692899983842,call2,0.04861111111111111,-0.30648148148148147,1,0,0,5.747555700014345,colour4,0.425,-0.324537037037037,1,0,0,6.280666199978441,number4,True,True,True,24,4,2019_Nov_15_1559,MA_Theta_Exp,3.0.7,60.16763907767768,
video/Experiment/zh_sp01_Dr_We_2_NVocInAudio_GlobalThetaInVideo.avi,vocoded,plusVideo,sp01,Dr,We,2,0,1,flow/blocks/NVocInAudio_GlobalThetaInVideo_A.csv,,,,,,,,,0,0,0,0,0,18,18,29,,,,,,,,,-0.37777777777777777,0.06851851851851852,1,0,0,5.201708099979442,call2,0.043055555555555555,-0.337037037037037,1,0,0,5.818096400005743,colour4,0.375,0.10046296296296296,1,0,0,6.534860299958382,number2,True,True,True,24,4,2019_Nov_15_1559,MA_Theta_Exp,3.0.7,60.16763907767768,
video/Experiment/zh_sp01_Dr_Gr_4_NVocInAudio_GlobalThetaInVideo.avi,vocoded,plusVideo,sp01,Dr,Gr,4,0,1,flow/blocks/NVocInAudio_GlobalThetaInVideo_A.csv,,,,,,,,,0,0,0,0,0,19,19,23,,,,,,,,,-0.4236111111111111,0.11851851851851852,1,0,0,5.081338400021195,call2,0.0125,0.10601851851851851,1,0,0,5.564113800006453,colour2,0.48055555555555557,-0.3384259259259259,1,0,0,6.264219400007278,number4,True,True,True,24,4,2019_Nov_15_1559,MA_Theta_Exp,3.0.7,60.16763907767768,
video/Experiment/zh_sp01_Dr_Gr_1_NVocInAudio_GlobalThetaInVideo.avi,vocoded,plusVideo,sp01,Dr,Gr,1,0,1,flow/blocks/NVocInAudio_GlobalThetaInVideo_A.csv,,,,,,,,,0,0,0,0,0,20,20,20,,,,,,,,,-0.4027777777777778,0.12083333333333333,1,0,0,6.089210300007835,call2,0.02361111111111111,0.10324074074074074,1,0,0,6.855967899959069,colour2,0.3402777777777778,0.33611111111111114,1,0,0,7.67222310003126,number1,True,True,True,24,4,2019_Nov_15_1559,MA_Theta_Exp,3.0.7,60.16763907767768,
video/Experiment/zh_sp07_Dr_Ro_4_NVocInAudio_GlobalThetaInVideo.avi,vocoded,plusVideo,sp07,Dr,Ro,4,0,1,flow/blocks/NVocInAudio_GlobalThetaInVideo_A.csv,,,,,,,,,0,0,0,0,0,21,21,27,,,,,,,,,-0.4027777777777778,0.0824074074074074,1,0,0,4.530190400022548,call2,0.004166666666666667,-0.1175925925925926,1,0,0,5.1310158999986015,colour3,0.4222222222222222,-0.3236111111111111,1,0,0,5.980546600010712,number4,True,True,True,24,4,2019_Nov_15_1559,MA_Theta_Exp,3.0.7,60.16763907767768,
video/Experiment/zh_sp07_Ad_Ro_1_NVocInAudio_GlobalThetaInVideo.avi,vocoded,plusVideo,sp07,Ad,Ro,1,0,1,flow/blocks/NVocInAudio_GlobalThetaInVideo_A.csv,,,,,,,,,0,0,0,0,0,22,22,8,,,,,,,,,-0.4583333333333333,0.3337962962962963,1,0,0,4.297065099992324,call1,0.03888888888888889,-0.12638888888888888,1,0,0,4.997402000008151,colour3,0.4125,0.3888888888888889,1,0,0,5.561961500032339,number1,True,True,True,24,4,2019_Nov_15_1559,MA_Theta_Exp,3.0.7,60.16763907767768,
video/Experiment/zh_sp01_Ad_Gr_4_NVocInAudio_GlobalThetaInVideo.avi,vocoded,plusVideo,sp01,Ad,Gr,4,0,1,flow/blocks/NVocInAudio_GlobalThetaInVideo_A.csv,,,,,,,,,0,0,0,0,0,23,23,7,,,,,,,,,-0.44722222222222224,0.28888888888888886,1,0,0,5.175686700036749,call1,-0.025,0.08101851851851852,1,0,0,5.65650809998624,colour2,0.4444444444444444,-0.3333333333333333,1,0,0,6.439546599984169,number4,True,True,True,24,4,2019_Nov_15_1559,MA_Theta_Exp,3.0.7,60.16763907767768,
video/Experiment/zh_sp07_Dr_Ro_1_NVocInAudio_GlobalThetaInVideo.avi,vocoded,plusVideo,sp07,Dr,Ro,1,0,1,flow/blocks/NVocInAudio_GlobalThetaInVideo_A.csv,,,,,,,,,0,0,0,0,0,24,24,24,,,,,,,,,-0.40694444444444444,0.30277777777777776,1,0,0,5.473689199949149,call1,-0.009722222222222222,-0.11342592592592593,1,0,0,6.406983199995011,colour3,0.35555555555555557,0.28935185185185186,1,0,0,7.091963300015777,number1,False,True,True,24,4,2019_Nov_15_1559,MA_Theta_Exp,3.0.7,60.16763907767768,
video/Experiment/zh_sp07_Ad_Ro_3_NVocInAudio_GlobalThetaInVideo.avi,vocoded,plusVideo,sp07,Ad,Ro,3,0,1,flow/blocks/NVocInAudio_GlobalThetaInVideo_A.csv,,,,,,,,,0,0,0,0,0,25,25,10,,,,,,,,,-0.4930555555555556,0.3296296296296296,1,0,0,4.585701300005894,call1,-0.05416666666666667,-0.11481481481481481,1,0,0,6.169610599987209,colour3,0.38055555555555554,-0.09305555555555556,1,0,0,6.886165800038725,number3,True,True,True,24,4,2019_Nov_15_1559,MA_Theta_Exp,3.0.7,60.16763907767768,
video/Experiment/zh_sp07_Dr_Gr_3_NVocInAudio_GlobalThetaInVideo.avi,vocoded,plusVideo,sp07,Dr,Gr,3,0,1,flow/blocks/NVocInAudio_GlobalThetaInVideo_A.csv,,,,,,,,,0,0,0,0,0,26,26,22,,,,,,,,,-0.44722222222222224,0.11666666666666667,1,0,0,5.180022499989718,call2,-0.018055555555555554,0.09907407407407408,1,0,0,5.763407099992037,colour2,0.45,-0.1125,1,0,0,6.579438899992965,number3,True,True,True,24,4,2019_Nov_15_1559,MA_Theta_Exp,3.0.7,60.16763907767768,
video/Experiment/zh_sp07_Dr_Ge_3_NVocInAudio_GlobalThetaInVideo.avi,vocoded,plusVideo,sp07,Dr,Ge,3,0,1,flow/blocks/NVocInAudio_GlobalThetaInVideo_A.csv,,,,,,,,,0,0,0,0,0,27,27,18,,,,,,,,,-0.4111111111111111,0.11435185185185186,1,0,0,4.570678799995221,call2,-0.02361111111111111,0.300462962962963,1,0,0,5.288733900000807,colour1,0.35694444444444445,-0.08148148148148149,1,0,0,6.037463499989826,number3,True,True,True,24,4,2019_Nov_15_1559,MA_Theta_Exp,3.0.7,60.16763907767768,
video/Experiment/zh_sp01_Ad_We_4_NVocInAudio_GlobalThetaInVideo.avi,vocoded,plusVideo,sp01,Ad,We,4,0,1,flow/blocks/NVocInAudio_GlobalThetaInVideo_A.csv,,,,,,,,,0,0,0,0,0,28,28,15,,,,,,,,,-0.4041666666666667,0.33055555555555555,1,0,0,5.246950900007505,call1,0.03611111111111111,-0.34675925925925927,1,0,0,5.946797400014475,colour4,0.45,-0.3509259259259259,1,0,0,6.482104499998968,number4,True,True,True,24,4,2019_Nov_15_1559,MA_Theta_Exp,3.0.7,60.16763907767768,
video/Experiment/zh_sp01_Dr_Ge_1_NVocInAudio_GlobalThetaInVideo.avi,vocoded,plusVideo,sp01,Dr,Ge,1,0,1,flow/blocks/NVocInAudio_GlobalThetaInVideo_A.csv,,,,,,,,,0,0,0,0,0,29,29,16,,,,,,,,,-0.38472222222222224,0.10138888888888889,1,0,0,5.260896899970248,call2,0.0375,0.3402777777777778,1,0,0,5.955647700000554,colour1,0.4597222222222222,0.3263888888888889,1,0,0,6.658773000002839,number1,True,True,True,24,4,2019_Nov_15_1559,MA_Theta_Exp,3.0.7,60.16763907767768,
video/Experiment/zh_sp01_Dr_Ro_3_NVocInAudio_GlobalThetaInVideo.avi,vocoded,plusVideo,sp01,Dr,Ro,3,0,1,flow/blocks/NVocInAudio_GlobalThetaInVideo_A.csv,,,,,,,,,0,0,0,0,0,30,30,26,,,,,,,,,-0.375,0.14305555555555555,1,0,0,5.065850800019689,call2,0.018055555555555554,-0.07314814814814814,1,0,0,5.581412400002591,colour3,0.4652777777777778,-0.11342592592592593,1,0,0,6.047177400032524,number3,True,True,True,24,4,2019_Nov_15_1559,MA_Theta_Exp,3.0.7,60.16763907767768,
video/Experiment/zh_sp07_Dr_We_1_NVocInAudio_GlobalThetaInVideo.avi,vocoded,plusVideo,sp07,Dr,We,1,0,1,flow/blocks/NVocInAudio_GlobalThetaInVideo_A.csv,,,,,,,,,0,0,0,0,0,31,31,28,,,,,,,,,-0.4263888888888889,0.12777777777777777,1,0,0,4.503035600006115,call2,-0.02361111111111111,-0.32175925925925924,1,0,0,5.152934700017795,colour4,0.3347222222222222,0.33055555555555555,1,0,0,5.9698807000531815,number1,True,True,True,24,4,2019_Nov_15_1559,MA_Theta_Exp,3.0.7,60.16763907767768,
video/Experiment/zh_sp01_Ad_Ge_3_NoThetaInAudio_NoVideo.avi,noTheta,noVideo,sp01,Ad,Ge,3,1,4,flow/blocks/NoThetaInAudio_NoVideo_A.csv,,,,,,,,,0,1,1,1,0,0,0,2,,,,,,,,,-0.43472222222222223,0.09583333333333334,1,0,0,7.68346329999622,call2,0.043055555555555555,0.05462962962962963,1,0,0,8.349502399971243,colour2,0.4777777777777778,-0.33287037037037037,1,0,0,8.999392100027762,number4,False,False,False,24,4,2019_Nov_15_1559,MA_Theta_Exp,3.0.7,60.16763907767768,
video/Experiment/zh_sp07_Ad_Ge_1_NoThetaInAudio_NoVideo.avi,noTheta,noVideo,sp07,Ad,Ge,1,1,4,flow/blocks/NoThetaInAudio_NoVideo_A.csv,,,,,,,,,0,1,1,1,0,1,1,0,,,,,,,,,-0.3888888888888889,0.11296296296296296,1,0,0,4.520604900026228,call2,0.02638888888888889,0.28055555555555556,1,0,0,6.136757599946577,colour1,0.43333333333333335,0.2847222222222222,1,0,0,6.620255400019232,number1,False,True,True,24,4,2019_Nov_15_1559,MA_Theta_Exp,3.0.7,60.16763907767768,
video/Experiment/zh_sp07_Ad_Ro_1_NoThetaInAudio_NoVideo.avi,noTheta,noVideo,sp07,Ad,Ro,1,1,4,flow/blocks/NoThetaInAudio_NoVideo_A.csv,,,,,,,,,0,1,1,1,0,2,2,8,,,,,,,,,-0.3736111111111111,0.08657407407407407,1,0,0,5.102551700023469,call2,0.0625,-0.12314814814814815,1,0,0,5.835063700040337,colour3,0.45,0.2916666666666667,1,0,0,6.402273100044113,number1,False,True,True,24,4,2019_Nov_15_1559,MA_Theta_Exp,3.0.7,60.16763907767768,
video/Experiment/zh_sp07_Dr_Gr_2_NoThetaInAudio_NoVideo.avi,noTheta,noVideo,sp07,Dr,Gr,2,1,4,flow/blocks/NoThetaInAudio_NoVideo_A.csv,,,,,,,,,0,1,1,1,0,3,3,21,,,,,,,,,-0.39861111111111114,0.07546296296296297,1,0,0,4.699964300030842,call2,0.020833333333333332,0.07407407407407407,1,0,0,5.1823745999718085,colour2,0.43472222222222223,0.10462962962962963,1,0,0,5.916559700039215,number2,True,True,True,24,4,2019_Nov_15_1559,MA_Theta_Exp,3.0.7,60.16763907767768,
video/Experiment/zh_sp01_Dr_Gr_4_NoThetaInAudio_NoVideo.avi,noTheta,noVideo,sp01,Dr,Gr,4,1,4,flow/blocks/NoThetaInAudio_NoVideo_A.csv,,,,,,,,,0,1,1,1,0,4,4,23,,,,,,,,,-0.36666666666666664,0.12361111111111112,1,0,0,4.89883220003685,call2,0.002777777777777778,0.125,1,0,0,5.353097799990792,colour2,0.43194444444444446,-0.3189814814814815,1,0,0,5.966448599996511,number4,True,True,True,24,4,2019_Nov_15_1559,MA_Theta_Exp,3.0.7,60.16763907767768,
video/Experiment/zh_sp07_Ad_Gr_1_NoThetaInAudio_NoVideo.avi,noTheta,noVideo,sp07,Ad,Gr,1,1,4,flow/blocks/NoThetaInAudio_NoVideo_A.csv,,,,,,,,,0,1,1,1,0,5,5,4,,,,,,,,,-0.37083333333333335,0.11388888888888889,1,0,0,5.793072999978904,call2,0.030555555555555555,0.12407407407407407,1,0,0,6.31058980000671,colour2,0.46944444444444444,0.33240740740740743,1,0,0,7.043225700035691,number1,False,True,True,24,4,2019_Nov_15_1559,MA_Theta_Exp,3.0.7,60.16763907767768,
video/Experiment/zh_sp07_Dr_Ro_1_NoThetaInAudio_NoVideo.avi,noTheta,noVideo,sp07,Dr,Ro,1,1,4,flow/blocks/NoThetaInAudio_NoVideo_A.csv,,,,,,,,,0,1,1,1,0,6,6,24,,,,,,,,,-0.4111111111111111,0.11805555555555555,1,0,0,4.235082099970896,call2,-0.020833333333333332,-0.13425925925925927,1,0,0,4.73498530004872,colour3,0.4638888888888889,0.3611111111111111,1,0,0,5.268238899996504,number1,True,True,True,24,4,2019_Nov_15_1559,MA_Theta_Exp,3.0.7,60.16763907767768,
video/Experiment/zh_sp07_Dr_We_4_NoThetaInAudio_NoVideo.avi,noTheta,noVideo,sp07,Dr,We,4,1,4,flow/blocks/NoThetaInAudio_NoVideo_A.csv,,,,,,,,,0,1,1,1,0,7,7,31,,,,,,,,,-0.3888888888888889,0.16111111111111112,1,0,0,4.506833799998276,call2,-0.002777777777777778,-0.3189814814814815,1,0,0,5.057644499989692,colour4,0.45416666666666666,-0.25416666666666665,1,0,0,6.106725100020412,number4,True,True,True,24,4,2019_Nov_15_1559,MA_Theta_Exp,3.0.7,60.16763907767768,
video/Experiment/zh_sp07_Ad_Gr_2_NoThetaInAudio_NoVideo.avi,noTheta,noVideo,sp07,Ad,Gr,2,1,4,flow/blocks/NoThetaInAudio_NoVideo_A.csv,,,,,,,,,0,1,1,1,0,8,8,5,,,,,,,,,-0.44305555555555554,0.11435185185185186,1,0,0,5.008426700020209,call2,-0.027777777777777776,0.08796296296296297,1,0,0,5.474432699964382,colour2,0.3902777777777778,0.10555555555555556,1,0,0,5.941062600002624,number2,False,True,True,24,4,2019_Nov_15_1559,MA_Theta_Exp,3.0.7,60.16763907767768,
video/Experiment/zh_sp01_Ad_We_1_NoThetaInAudio_NoVideo.avi,noTheta,noVideo,sp01,Ad,We,1,1,4,flow/blocks/NoThetaInAudio_NoVideo_A.csv,,,,,,,,,0,1,1,1,0,9,9,12,,,,,,,,,-0.38333333333333336,0.10601851851851851,1,0,0,5.052451399969868,call2,0.0125,-0.3148148148148148,1,0,0,5.7357043999945745,colour4,0.46111111111111114,0.25972222222222224,1,0,0,6.452519699989352,number1,False,True,True,24,4,2019_Nov_15_1559,MA_Theta_Exp,3.0.7,60.16763907767768,
video/Experiment/zh_sp01_Ad_Gr_3_NoThetaInAudio_NoVideo.avi,noTheta,noVideo,sp01,Ad,Gr,3,1,4,flow/blocks/NoThetaInAudio_NoVideo_A.csv,,,,,,,,,0,1,1,1,0,10,10,6,,,,,,,,,-0.3958333333333333,0.375,1,0,0,5.047136200009845,call1,0.0,0.10138888888888889,1,0,0,5.747389900032431,colour2,0.3402777777777778,-0.07314814814814814,1,0,0,6.314854099997319,number3,True,True,True,24,4,2019_Nov_15_1559,MA_Theta_Exp,3.0.7,60.16763907767768,
video/Experiment/zh_sp01_Ad_We_2_NoThetaInAudio_NoVideo.avi,noTheta,noVideo,sp01,Ad,We,2,1,4,flow/blocks/NoThetaInAudio_NoVideo_A.csv,,,,,,,,,0,1,1,1,0,11,11,13,,,,,,,,,-0.38472222222222224,0.32546296296296295,1,0,0,5.24809790001018,call1,0.03611111111111111,-0.27314814814814814,1,0,0,6.247881399991456,colour4,0.38472222222222224,0.05462962962962963,1,0,0,6.981489999976475,number2,True,True,True,24,4,2019_Nov_15_1559,MA_Theta_Exp,3.0.7,60.16763907767768,
video/Experiment/zh_sp07_Dr_Ge_4_NoThetaInAudio_NoVideo.avi,noTheta,noVideo,sp07,Dr,Ge,4,1,4,flow/blocks/NoThetaInAudio_NoVideo_A.csv,,,,,,,,,0,1,1,1,0,12,12,19,,,,,,,,,-0.3958333333333333,0.29583333333333334,1,0,0,5.648566999996547,call1,-0.016666666666666666,-0.11481481481481481,1,0,0,6.382632599968929,colour3,0.4625,-0.3148148148148148,1,0,0,6.938679399958346,number4,False,False,True,24,4,2019_Nov_15_1559,MA_Theta_Exp,3.0.7,60.16763907767768,
video/Experiment/zh_sp07_Ad_Ge_4_NoThetaInAudio_NoVideo.avi,noTheta,noVideo,sp07,Ad,Ge,4,1,4,flow/blocks/NoThetaInAudio_NoVideo_A.csv,,,,,,,,,0,1,1,1,0,13,13,3,,,,,,,,,-0.4027777777777778,0.35462962962962963,1,0,0,4.485749100043904,call1,-0.027777777777777776,0.05277777777777778,1,0,0,4.969712299993262,colour2,0.4486111111111111,-0.3189814814814815,1,0,0,5.636256500030868,number4,True,False,True,24,4,2019_Nov_15_1559,MA_Theta_Exp,3.0.7,60.16763907767768,
video/Experiment/zh_sp07_Ad_Ge_2_NoThetaInAudio_NoVideo.avi,noTheta,noVideo,sp07,Ad,Ge,2,1,4,flow/blocks/NoThetaInAudio_NoVideo_A.csv,,,,,,,,,0,1,1,1,0,14,14,1,,,,,,,,,-0.3611111111111111,0.3458333333333333,1,0,0,4.452381799987052,call1,0.001388888888888889,0.3212962962962963,1,0,0,4.950698500033468,colour1,0.4111111111111111,0.11990740740740741,1,0,0,5.433196400001179,number2,True,True,True,24,4,2019_Nov_15_1559,MA_Theta_Exp,3.0.7,60.16763907767768,
video/Experiment/zh_sp01_Dr_Ro_4_NoThetaInAudio_NoVideo.avi,noTheta,noVideo,sp01,Dr,Ro,4,1,4,flow/blocks/NoThetaInAudio_NoVideo_A.csv,,,,,,,,,0,1,1,1,0,15,15,27,,,,,,,,,-0.3763888888888889,0.07685185185185185,1,0,0,5.264376800041646,call2,0.058333333333333334,0.3125,1,0,0,6.40027480002027,colour1,0.44027777777777777,-0.33194444444444443,1,0,0,7.499201599974185,number4,True,False,True,24,4,2019_Nov_15_1559,MA_Theta_Exp,3.0.7,60.16763907767768,
video/Experiment/zh_sp07_Dr_Gr_1_NoThetaInAudio_NoVideo.avi,noTheta,noVideo,sp07,Dr,Gr,1,1,4,flow/blocks/NoThetaInAudio_NoVideo_A.csv,,,,,,,,,0,1,1,1,0,16,16,20,,,,,,,,,-0.37222222222222223,0.0824074074074074,1,0,0,4.374557300005108,call2,0.04861111111111111,0.07685185185185185,1,0,0,4.857851099979598,colour2,0.4791666666666667,0.30277777777777776,1,0,0,5.358654999989085,number1,True,True,True,24,4,2019_Nov_15_1559,MA_Theta_Exp,3.0.7,60.16763907767768,
video/Experiment/zh_sp01_Ad_We_4_NoThetaInAudio_NoVideo.avi,noTheta,noVideo,sp01,Ad,We,4,1,4,flow/blocks/NoThetaInAudio_NoVideo_A.csv,,,,,,,,,0,1,1,1,0,17,17,15,,,,,,,,,-0.4652777777777778,0.12777777777777777,1,0,0,5.177102700050455,call2,-0.04583333333333333,-0.29259259259259257,1,0,0,5.926168599980883,colour4,0.4152777777777778,-0.25555555555555554,1,0,0,6.845403699961025,number4,False,True,True,24,4,2019_Nov_15_1559,MA_Theta_Exp,3.0.7,60.16763907767768,
video/Experiment/zh_sp07_Dr_Ge_2_NoThetaInAudio_NoVideo.avi,noTheta,noVideo,sp07,Dr,Ge,2,1,4,flow/blocks/NoThetaInAudio_NoVideo_A.csv,,,,,,,,,0,1,1,1,0,18,18,17,,,,,,,,,-0.375,0.3199074074074074,1,0,0,4.671352699981071,call1,0.05,0.29444444444444445,1,0,0,5.252474099979736,colour1,0.4152777777777778,0.15185185185185185,1,0,0,5.753495699958876,number2,False,True,True,24,4,2019_Nov_15_1559,MA_Theta_Exp,3.0.7,60.16763907767768,
video/Experiment/zh_sp07_Dr_Ge_1_NoThetaInAudio_NoVideo.avi,noTheta,noVideo,sp07,Dr,Ge,1,1,4,flow/blocks/NoThetaInAudio_NoVideo_A.csv,,,,,,,,,0,1,1,1,0,19,19,16,,,,,,,,,-0.4027777777777778,0.3333333333333333,1,0,0,4.529735000047367,call1,0.005555555555555556,-0.29398148148148145,1,0,0,5.179845899983775,colour4,0.39166666666666666,0.2875,1,0,0,5.729559800005518,number1,False,False,True,24,4,2019_Nov_15_1559,MA_Theta_Exp,3.0.7,60.16763907767768,
video/Experiment/zh_sp07_Dr_Gr_3_NoThetaInAudio_NoVideo.avi,noTheta,noVideo,sp07,Dr,Gr,3,1,4,flow/blocks/NoThetaInAudio_NoVideo_A.csv,,,,,,,,,0,1,1,1,0,20,20,22,,,,,,,,,-0.38472222222222224,0.2902777777777778,1,0,0,5.803434500005096,call1,-0.0375,0.1337962962962963,1,0,0,6.287087999982759,colour2,0.41388888888888886,-0.075,1,0,0,6.938290300022345,number3,False,True,True,24,4,2019_Nov_15_1559,MA_Theta_Exp,3.0.7,60.16763907767768,
video/Experiment/zh_sp01_Dr_Ro_3_NoThetaInAudio_NoVideo.avi,noTheta,noVideo,sp01,Dr,Ro,3,1,4,flow/blocks/NoThetaInAudio_NoVideo_A.csv,,,,,,,,,0,1,1,1,0,21,21,26,,,,,,,,,-0.3958333333333333,0.11990740740740741,1,0,0,6.289884499972686,call2,0.0375,0.1111111111111111,1,0,0,8.687595500028692,colour2,0.3625,-0.1,1,0,0,9.304566200007685,number3,True,False,True,24,4,2019_Nov_15_1559,MA_Theta_Exp,3.0.7,60.16763907767768,
video/Experiment/zh_sp07_Ad_Gr_4_NoThetaInAudio_NoVideo.avi,noTheta,noVideo,sp07,Ad,Gr,4,1,4,flow/blocks/NoThetaInAudio_NoVideo_A.csv,,,,,,,,,0,1,1,1,0,22,22,7,,,,,,,,,-0.3888888888888889,0.3449074074074074,1,0,0,4.499454999982845,call1,0.005555555555555556,0.12546296296296297,1,0,0,5.199508699995931,colour2,0.40555555555555556,-0.30972222222222223,1,0,0,5.966243700007908,number4,True,True,True,24,4,2019_Nov_15_1559,MA_Theta_Exp,3.0.7,60.16763907767768,
video/Experiment/zh_sp01_Ad_Ro_3_NoThetaInAudio_NoVideo.avi,noTheta,noVideo,sp01,Ad,Ro,3,1,4,flow/blocks/NoThetaInAudio_NoVideo_A.csv,,,,,,,,,0,1,1,1,0,23,23,10,,,,,,,,,-0.4041666666666667,0.31574074074074077,1,0,0,5.101537299982738,call1,-0.0125,-0.17175925925925925,1,0,0,5.718336799996905,colour3,0.4263888888888889,-0.11666666666666667,1,0,0,6.234694600047078,number3,True,True,True,24,4,2019_Nov_15_1559,MA_Theta_Exp,3.0.7,60.16763907767768,
video/Experiment/zh_sp01_Ad_We_3_NoThetaInAudio_NoVideo.avi,noTheta,noVideo,sp01,Ad,We,3,1,4,flow/blocks/NoThetaInAudio_NoVideo_A.csv,,,,,,,,,0,1,1,1,0,24,24,14,,,,,,,,,-0.41944444444444445,0.33101851851851855,1,0,0,5.062571600021329,call1,-0.03194444444444444,-0.2662037037037037,1,0,0,5.812598899996374,colour4,0.37222222222222223,-0.1375,1,0,0,6.39669020002475,number3,True,True,True,24,4,2019_Nov_15_1559,MA_Theta_Exp,3.0.7,60.16763907767768,
video/Experiment/zh_sp01_Ad_Ro_4_NoThetaInAudio_NoVideo.avi,noTheta,noVideo,sp01,Ad,Ro,4,1,4,flow/blocks/NoThetaInAudio_NoVideo_A.csv,,,,,,,,,0,1,1,1,0,25,25,11,,,,,,,,,-0.4722222222222222,0.3472222222222222,1,0,0,5.108844999980647,call1,0.006944444444444444,-0.11805555555555555,1,0,0,5.908137499995064,colour3,0.4222222222222222,-0.3300925925925926,1,0,0,6.441593000025023,number4,True,True,True,24,4,2019_Nov_15_1559,MA_Theta_Exp,3.0.7,60.16763907767768,
video/Experiment/zh_sp07_Ad_Ro_2_NoThetaInAudio_NoVideo.avi,noTheta,noVideo,sp07,Ad,Ro,2,1,4,flow/blocks/NoThetaInAudio_NoVideo_A.csv,,,,,,,,,0,1,1,1,0,26,26,9,,,,,,,,,-0.4597222222222222,0.28194444444444444,1,0,0,4.429453799966723,call1,-0.015277777777777777,-0.13564814814814816,1,0,0,5.079534300020896,colour3,0.37777777777777777,0.21388888888888888,1,0,0,5.563652399985585,number2,True,True,True,24,4,2019_Nov_15_1559,MA_Theta_Exp,3.0.7,60.16763907767768,
video/Experiment/zh_sp01_Dr_We_1_NoThetaInAudio_NoVideo.avi,noTheta,noVideo,sp01,Dr,We,1,1,4,flow/blocks/NoThetaInAudio_NoVideo_A.csv,,,,,,,,,0,1,1,1,0,27,27,28,,,,,,,,,-0.4263888888888889,0.12638888888888888,1,0,0,5.487157399998978,call2,-0.009722222222222222,-0.262037037037037,1,0,0,6.580595900013577,colour4,0.44722222222222224,0.2972222222222222,1,0,0,7.430548200034536,number1,True,True,True,24,4,2019_Nov_15_1559,MA_Theta_Exp,3.0.7,60.16763907767768,
video/Experiment/zh_sp01_Dr_We_2_NoThetaInAudio_NoVideo.avi,noTheta,noVideo,sp01,Dr,We,2,1,4,flow/blocks/NoThetaInAudio_NoVideo_A.csv,,,,,,,,,0,1,1,1,0,28,28,29,,,,,,,,,-0.42777777777777776,0.1,1,0,0,5.337192900013179,call2,-0.019444444444444445,-0.30648148148148147,1,0,0,6.040888999996241,colour4,0.3625,0.09166666666666666,1,0,0,6.5868784000049345,number2,True,True,True,24,4,2019_Nov_15_1559,MA_Theta_Exp,3.0.7,60.16763907767768,
video/Experiment/zh_sp01_Dr_Ro_2_NoThetaInAudio_NoVideo.avi,noTheta,noVideo,sp01,Dr,Ro,2,1,4,flow/blocks/NoThetaInAudio_NoVideo_A.csv,,,,,,,,,0,1,1,1,0,29,29,25,,,,,,,,,-0.3486111111111111,0.07407407407407407,1,0,0,5.1794071000185795,call2,0.011111111111111112,-0.32592592592592595,1,0,0,5.89588140003616,colour4,0.3861111111111111,0.10555555555555556,1,0,0,6.5790316999773495,number2,True,False,True,24,4,2019_Nov_15_1559,MA_Theta_Exp,3.0.7,60.16763907767768,
video/Experiment/zh_sp01_Dr_Ge_3_NoThetaInAudio_NoVideo.avi,noTheta,noVideo,sp01,Dr,Ge,3,1,4,flow/blocks/NoThetaInAudio_NoVideo_A.csv,,,,,,,,,0,1,1,1,0,30,30,18,,,,,,,,,-0.3902777777777778,0.13333333333333333,1,0,0,5.034272400022019,call2,0.027777777777777776,0.3472222222222222,1,0,0,5.668913499976043,colour1,0.375,-0.13287037037037036,1,0,0,6.434639799990691,number3,True,True,True,24,4,2019_Nov_15_1559,MA_Theta_Exp,3.0.7,60.16763907767768,
video/Experiment/zh_sp01_Dr_We_3_NoThetaInAudio_NoVideo.avi,noTheta,noVideo,sp01,Dr,We,3,1,4,flow/blocks/NoThetaInAudio_NoVideo_A.csv,,,,,,,,,0,1,1,1,0,31,31,30,,,,,,,,,-0.45,0.12916666666666668,1,0,0,4.996216300001834,call2,0.03333333333333333,-0.32592592592592595,1,0,0,5.628583700046875,colour4,0.40694444444444444,-0.09861111111111111,1,0,0,6.111741999979131,number3,True,True,True,24,4,2019_Nov_15_1559,MA_Theta_Exp,3.0.7,60.16763907767768,
video/Experiment/zh_sp07_Ad_We_1_NVocInAudio_NoVideo.avi,vocoded,noVideo,sp07,Ad,We,1,2,2,flow/blocks/NVocInAudio_NoVideo_A.csv,,,,,,,,,0,2,2,2,0,0,0,12,,,,,,,,,-0.4027777777777778,0.32916666666666666,1,0,0,4.715167699963786,call1,0.029166666666666667,-0.3314814814814815,1,0,0,5.648904800007585,colour4,0.33194444444444443,0.28055555555555556,1,0,0,6.304115800012369,number1,True,True,True,24,4,2019_Nov_15_1559,MA_Theta_Exp,3.0.7,60.16763907767768,
video/Experiment/zh_sp07_Dr_Gr_2_NVocInAudio_NoVideo.avi,vocoded,noVideo,sp07,Dr,Gr,2,2,2,flow/blocks/NVocInAudio_NoVideo_A.csv,,,,,,,,,0,2,2,2,0,1,1,21,,,,,,,,,-0.45555555555555555,0.1125,1,0,0,4.49721000000136,call2,-0.029166666666666667,0.0962962962962963,1,0,0,5.130531099974178,colour2,0.42083333333333334,0.09166666666666666,1,0,0,5.7302425999660045,number2,True,True,True,24,4,2019_Nov_15_1559,MA_Theta_Exp,3.0.7,60.16763907767768,
video/Experiment/zh_sp01_Ad_Ge_2_NVocInAudio_NoVideo.avi,vocoded,noVideo,sp01,Ad,Ge,2,2,2,flow/blocks/NVocInAudio_NoVideo_A.csv,,,,,,,,,0,2,2,2,0,2,2,1,,,,,,,,,-0.4111111111111111,0.28935185185185186,1,0,0,5.215682800044306,call1,-0.03888888888888889,0.2865740740740741,1,0,0,5.663493899977766,colour1,0.4486111111111111,0.09583333333333334,1,0,0,6.430017699953169,number2,True,True,True,24,4,2019_Nov_15_1559,MA_Theta_Exp,3.0.7,60.16763907767768,
video/Experiment/zh_sp07_Ad_Ge_1_NVocInAudio_NoVideo.avi,vocoded,noVideo,sp07,Ad,Ge,1,2,2,flow/blocks/NVocInAudio_NoVideo_A.csv,,,,,,,,,0,2,2,2,0,3,3,0,,,,,,,,,-0.3958333333333333,0.31666666666666665,1,0,0,4.734617400041316,call1,-0.006944444444444444,0.31851851851851853,1,0,0,5.284604399988893,colour1,0.39305555555555555,0.29907407407407405,1,0,0,6.084276100038551,number1,True,True,True,24,4,2019_Nov_15_1559,MA_Theta_Exp,3.0.7,60.16763907767768,
video/Experiment/zh_sp07_Ad_Gr_1_NVocInAudio_NoVideo.avi,vocoded,noVideo,sp07,Ad,Gr,1,2,2,flow/blocks/NVocInAudio_NoVideo_A.csv,,,,,,,,,0,2,2,2,0,4,4,4,,,,,,,,,-0.39444444444444443,0.3143518518518518,1,0,0,5.053230100020301,call1,-0.006944444444444444,0.09444444444444444,1,0,0,5.869998799986206,colour2,0.4263888888888889,0.32083333333333336,1,0,0,6.3740043000434525,number1,True,True,True,24,4,2019_Nov_15_1559,MA_Theta_Exp,3.0.7,60.16763907767768,
video/Experiment/zh_sp07_Ad_Ro_2_NVocInAudio_NoVideo.avi,vocoded,noVideo,sp07,Ad,Ro,2,2,2,flow/blocks/NVocInAudio_NoVideo_A.csv,,,,,,,,,0,2,2,2,0,5,5,9,,,,,,,,,-0.32916666666666666,0.29768518518518516,1,0,0,4.446770399983507,call1,-0.004166666666666667,-0.11898148148148148,1,0,0,5.163229099998716,colour3,0.3902777777777778,0.10416666666666667,1,0,0,5.691540300031193,number2,True,True,True,24,4,2019_Nov_15_1559,MA_Theta_Exp,3.0.7,60.16763907767768,
video/Experiment/zh_sp01_Dr_Ro_4_NVocInAudio_NoVideo.avi,vocoded,noVideo,sp01,Dr,Ro,4,2,2,flow/blocks/NVocInAudio_NoVideo_A.csv,,,,,,,,,0,2,2,2,0,6,6,27,,,,,,,,,-0.45416666666666666,0.11157407407407408,1,0,0,5.342223200015724,call2,0.05277777777777778,-0.0912037037037037,1,0,0,6.041598100040574,colour3,0.42916666666666664,-0.33425925925925926,1,0,0,6.6280739000067115,number4,True,True,True,24,4,2019_Nov_15_1559,MA_Theta_Exp,3.0.7,60.16763907767768,
video/Experiment/zh_sp07_Dr_We_2_NVocInAudio_NoVideo.avi,vocoded,noVideo,sp07,Dr,We,2,2,2,flow/blocks/NVocInAudio_NoVideo_A.csv,,,,,,,,,0,2,2,2,0,7,7,29,,,,,,,,,-0.4388888888888889,0.1361111111111111,1,0,0,4.77562129998114,call2,0.03194444444444444,-0.3662037037037037,1,0,0,5.471611900022253,colour4,0.4888888888888889,0.1638888888888889,1,0,0,6.235584800015204,number2,True,True,True,24,4,2019_Nov_15_1559,MA_Theta_Exp,3.0.7,60.16763907767768,
video/Experiment/zh_sp01_Dr_Gr_4_NVocInAudio_NoVideo.avi,vocoded,noVideo,sp01,Dr,Gr,4,2,2,flow/blocks/NVocInAudio_NoVideo_A.csv,,,,,,,,,0,2,2,2,0,8,8,23,,,,,,,,,-0.40555555555555556,0.11296296296296296,1,0,0,5.324153000023216,call2,-0.013888888888888888,0.09166666666666666,1,0,0,7.074144100013655,colour2,0.45694444444444443,-0.31666666666666665,1,0,0,7.890658100019209,number4,True,True,True,24,4,2019_Nov_15_1559,MA_Theta_Exp,3.0.7,60.16763907767768,
video/Experiment/zh_sp07_Ad_Ge_4_NVocInAudio_NoVideo.avi,vocoded,noVideo,sp07,Ad,Ge,4,2,2,flow/blocks/NVocInAudio_NoVideo_A.csv,,,,,,,,,0,2,2,2,0,9,9,3,,,,,,,,,-0.39305555555555555,0.3,1,0,0,4.668054099951405,call1,0.006944444444444444,0.3194444444444444,1,0,0,5.231152900028974,colour1,0.41805555555555557,-0.29953703703703705,1,0,0,6.069115699967369,number4,True,True,True,24,4,2019_Nov_15_1559,MA_Theta_Exp,3.0.7,60.16763907767768,
video/Experiment/zh_sp01_Ad_Ge_3_NVocInAudio_NoVideo.avi,vocoded,noVideo,sp01,Ad,Ge,3,2,2,flow/blocks/NVocInAudio_NoVideo_A.csv,,,,,,,,,0,2,2,2,0,10,10,2,,,,,,,,,-0.375,0.2972222222222222,1,0,0,5.374349199992139,call1,0.019444444444444445,0.29768518518518516,1,0,0,6.024119199952111,colour1,0.425,-0.11203703703703703,1,0,0,6.740294000017457,number3,True,True,True,24,4,2019_Nov_15_1559,MA_Theta_Exp,3.0.7,60.16763907767768,
video/Experiment/zh_sp01_Ad_We_4_NVocInAudio_NoVideo.avi,vocoded,noVideo,sp01,Ad,We,4,2,2,flow/blocks/NVocInAudio_NoVideo_A.csv,,,,,,,,,0,2,2,2,0,11,11,15,,,,,,,,,-0.4027777777777778,0.29212962962962963,1,0,0,5.106867499998771,call1,0.011111111111111112,-0.38287037037037036,1,0,0,5.809716300049331,colour4,0.4027777777777778,-0.31666666666666665,1,0,0,6.356576699996367,number4,True,True,True,24,4,2019_Nov_15_1559,MA_Theta_Exp,3.0.7,60.16763907767768,
video/Experiment/zh_sp01_Ad_We_2_NVocInAudio_NoVideo.avi,vocoded,noVideo,sp01,Ad,We,2,2,2,flow/blocks/NVocInAudio_NoVideo_A.csv,,,,,,,,,0,2,2,2,0,12,12,13,,,,,,,,,-0.39444444444444443,0.3296296296296296,1,0,0,5.047832100011874,call1,-0.013888888888888888,-0.29398148148148145,1,0,0,5.764043000002857,colour4,0.4597222222222222,0.12361111111111112,1,0,0,6.463617699977476,number2,True,True,True,24,4,2019_Nov_15_1559,MA_Theta_Exp,3.0.7,60.16763907767768,
video/Experiment/zh_sp01_Ad_Gr_3_NVocInAudio_NoVideo.avi,vocoded,noVideo,sp01,Ad,Gr,3,2,2,flow/blocks/NVocInAudio_NoVideo_A.csv,,,,,,,,,0,2,2,2,0,13,13,6,,,,,,,,,-0.3972222222222222,0.35555555555555557,1,0,0,5.120428099995479,call1,-0.041666666666666664,0.08935185185185185,1,0,0,5.602836599980947,colour2,0.45416666666666666,-0.037037037037037035,1,0,0,6.102397200011183,number3,True,True,True,24,4,2019_Nov_15_1559,MA_Theta_Exp,3.0.7,60.16763907767768,
video/Experiment/zh_sp01_Dr_Ro_3_NVocInAudio_NoVideo.avi,vocoded,noVideo,sp01,Dr,Ro,3,2,2,flow/blocks/NVocInAudio_NoVideo_A.csv,,,,,,,,,0,2,2,2,0,14,14,26,,,,,,,,,-0.4152777777777778,0.12129629629629629,1,0,0,6.276797799975611,call2,0.018055555555555554,-0.07453703703703704,1,0,0,7.2632486000075005,colour3,0.4625,-0.1597222222222222,1,0,0,7.864942099957261,number3,True,True,True,24,4,2019_Nov_15_1559,MA_Theta_Exp,3.0.7,60.16763907767768,
video/Experiment/zh_sp07_Ad_Ro_1_NVocInAudio_NoVideo.avi,vocoded,noVideo,sp07,Ad,Ro,1,2,2,flow/blocks/NVocInAudio_NoVideo_A.csv,,,,,,,,,0,2,2,2,0,15,15,8,,,,,,,,,-0.3611111111111111,0.12268518518518519,1,0,0,4.788376200012863,call2,-0.0125,-0.12175925925925926,1,0,0,5.305634499993175,colour3,0.39305555555555555,0.29583333333333334,1,0,0,5.82177599996794,number1,False,True,True,24,4,2019_Nov_15_1559,MA_Theta_Exp,3.0.7,60.16763907767768,
video/Experiment/zh_sp07_Dr_Ge_2_NVocInAudio_NoVideo.avi,vocoded,noVideo,sp07,Dr,Ge,2,2,2,flow/blocks/NVocInAudio_NoVideo_A.csv,,,,,,,,,0,2,2,2,0,16,16,17,,,,,,,,,-0.4152777777777778,0.08194444444444444,1,0,0,4.689118700043764,call2,0.011111111111111112,0.2791666666666667,1,0,0,5.239035699982196,colour1,0.4708333333333333,0.08657407407407407,1,0,0,5.739214799948968,number2,True,True,True,24,4,2019_Nov_15_1559,MA_Theta_Exp,3.0.7,60.16763907767768,
video/Experiment/zh_sp01_Ad_We_3_NVocInAudio_NoVideo.avi,vocoded,noVideo,sp01,Ad,We,3,2,2,flow/blocks/NVocInAudio_NoVideo_A.csv,,,,,,,,,0,2,2,2,0,17,17,14,,,,,,,,,-0.40694444444444444,0.30277777777777776,1,0,0,5.585279599996284,call1,0.058333333333333334,-0.31342592592592594,1,0,0,7.8167380999657325,colour4,0.4041666666666667,-0.1050925925925926,1,0,0,8.567047399992589,number3,True,True,True,24,4,2019_Nov_15_1559,MA_Theta_Exp,3.0.7,60.16763907767768,
video/Experiment/zh_sp01_Dr_Ro_1_NVocInAudio_NoVideo.avi,vocoded,noVideo,sp01,Dr,Ro,1,2,2,flow/blocks/NVocInAudio_NoVideo_A.csv,,,,,,,,,0,2,2,2,0,18,18,24,,,,,,,,,-0.3861111111111111,0.1087962962962963,1,0,0,5.664814700023271,call2,-0.03888888888888889,-0.09953703703703703,1,0,0,6.1133640999905765,colour3,0.4041666666666667,0.3055555555555556,1,0,0,6.848479600041173,number1,True,True,True,24,4,2019_Nov_15_1559,MA_Theta_Exp,3.0.7,60.16763907767768,
video/Experiment/zh_sp01_Dr_We_4_NVocInAudio_NoVideo.avi,vocoded,noVideo,sp01,Dr,We,4,2,2,flow/blocks/NVocInAudio_NoVideo_A.csv,,,,,,,,,0,2,2,2,0,19,19,31,,,,,,,,,-0.39444444444444443,0.12268518518518519,1,0,0,5.255347000027541,call2,-0.04027777777777778,-0.30694444444444446,1,0,0,5.97097029996803,colour4,0.3763888888888889,-0.2986111111111111,1,0,0,6.470583500049543,number4,True,True,True,24,4,2019_Nov_15_1559,MA_Theta_Exp,3.0.7,60.16763907767768,
video/Experiment/zh_sp07_Ad_Ro_4_NVocInAudio_NoVideo.avi,vocoded,noVideo,sp07,Ad,Ro,4,2,2,flow/blocks/NVocInAudio_NoVideo_A.csv,,,,,,,,,0,2,2,2,0,20,20,11,,,,,,,,,-0.4388888888888889,0.30462962962962964,1,0,0,4.752671099966392,call1,-0.004166666666666667,-0.17037037037037037,1,0,0,5.6355510000139475,colour3,0.4125,-0.30787037037037035,1,0,0,6.1860417000134476,number4,True,True,True,24,4,2019_Nov_15_1559,MA_Theta_Exp,3.0.7,60.16763907767768,
video/Experiment/zh_sp07_Dr_Ge_3_NVocInAudio_NoVideo.avi,vocoded,noVideo,sp07,Dr,Ge,3,2,2,flow/blocks/NVocInAudio_NoVideo_A.csv,,,,,,,,,0,2,2,2,0,21,21,18,,,,,,,,,-0.3972222222222222,0.11944444444444445,1,0,0,4.628955400025006,call2,0.05555555555555555,0.31666666666666665,1,0,0,5.145841699966695,colour1,0.40694444444444444,-0.08148148148148149,1,0,0,5.695281799999066,number3,True,True,True,24,4,2019_Nov_15_1559,MA_Theta_Exp,3.0.7,60.16763907767768,
video/Experiment/zh_sp07_Dr_Gr_1_NVocInAudio_NoVideo.avi,vocoded,noVideo,sp07,Dr,Gr,1,2,2,flow/blocks/NVocInAudio_NoVideo_A.csv,,,,,,,,,0,2,2,2,0,22,22,20,,,,,,,,,-0.38333333333333336,0.09305555555555556,1,0,0,4.4481136000249535,call2,0.005555555555555556,0.11851851851851852,1,0,0,5.063250499952119,colour2,0.4375,0.30972222222222223,1,0,0,5.5977456999826245,number1,True,True,True,24,4,2019_Nov_15_1559,MA_Theta_Exp,3.0.7,60.16763907767768,
video/Experiment/zh_sp01_Ad_Gr_4_NVocInAudio_NoVideo.avi,vocoded,noVideo,sp01,Ad,Gr,4,2,2,flow/blocks/NVocInAudio_NoVideo_A.csv,,,,,,,,,0,2,2,2,0,23,23,7,,,,,,,,,-0.3458333333333333,0.3527777777777778,1,0,0,5.101974299992435,call1,-0.005555555555555556,0.09768518518518518,1,0,0,5.734205800050404,colour2,0.4777777777777778,-0.28425925925925927,1,0,0,6.339864799985662,number4,True,True,True,24,4,2019_Nov_15_1559,MA_Theta_Exp,3.0.7,60.16763907767768,
video/Experiment/zh_sp07_Dr_Ge_4_NVocInAudio_NoVideo.avi,vocoded,noVideo,sp07,Dr,Ge,4,2,2,flow/blocks/NVocInAudio_NoVideo_A.csv,,,,,,,,,0,2,2,2,0,24,24,19,,,,,,,,,-0.41805555555555557,0.14166666666666666,1,0,0,4.605609100020956,call2,0.034722222222222224,0.3402777777777778,1,0,0,5.166600399999879,colour1,0.3902777777777778,-0.2828703703703704,1,0,0,5.982968800002709,number4,True,True,True,24,4,2019_Nov_15_1559,MA_Theta_Exp,3.0.7,60.16763907767768,
video/Experiment/zh_sp07_Dr_Ro_2_NVocInAudio_NoVideo.avi,vocoded,noVideo,sp07,Dr,Ro,2,2,2,flow/blocks/NVocInAudio_NoVideo_A.csv,,,,,,,,,0,2,2,2,0,25,25,25,,,,,,,,,-0.39166666666666666,0.09768518518518518,1,0,0,4.536811200028751,call2,0.06388888888888888,-0.08009259259259259,1,0,0,5.489332199969795,colour3,0.37222222222222223,0.10601851851851851,1,0,0,6.020274700014852,number2,True,True,True,24,4,2019_Nov_15_1559,MA_Theta_Exp,3.0.7,60.16763907767768,
video/Experiment/zh_sp01_Dr_We_3_NVocInAudio_NoVideo.avi,vocoded,noVideo,sp01,Dr,We,3,2,2,flow/blocks/NVocInAudio_NoVideo_A.csv,,,,,,,,,0,2,2,2,0,26,26,30,,,,,,,,,-0.38055555555555554,0.08333333333333333,1,0,0,5.172587999957614,call2,0.018055555555555554,-0.30648148148148147,1,0,0,6.151065699988976,colour4,0.4263888888888889,-0.1300925925925926,1,0,0,7.183260500023607,number3,True,True,True,24,4,2019_Nov_15_1559,MA_Theta_Exp,3.0.7,60.16763907767768,
video/Experiment/zh_sp01_Dr_Ge_1_NVocInAudio_NoVideo.avi,vocoded,noVideo,sp01,Dr,Ge,1,2,2,flow/blocks/NVocInAudio_NoVideo_A.csv,,,,,,,,,0,2,2,2,0,27,27,16,,,,,,,,,-0.3736111111111111,0.08935185185185185,1,0,0,4.965384999988601,call2,0.011111111111111112,0.31712962962962965,1,0,0,5.7982917000190355,colour1,0.4152777777777778,0.30694444444444446,1,0,0,6.414996200008318,number1,True,True,True,24,4,2019_Nov_15_1559,MA_Theta_Exp,3.0.7,60.16763907767768,
video/Experiment/zh_sp07_Dr_Gr_3_NVocInAudio_NoVideo.avi,vocoded,noVideo,sp07,Dr,Gr,3,2,2,flow/blocks/NVocInAudio_NoVideo_A.csv,,,,,,,,,0,2,2,2,0,28,28,22,,,,,,,,,-0.4041666666666667,0.12962962962962962,1,0,0,4.54153549997136,call2,-0.05694444444444444,0.11712962962962963,1,0,0,5.077873500005808,colour2,0.35694444444444445,-0.08564814814814815,1,0,0,5.593830599973444,number3,True,True,True,24,4,2019_Nov_15_1559,MA_Theta_Exp,3.0.7,60.16763907767768,
video/Experiment/zh_sp07_Dr_We_1_NVocInAudio_NoVideo.avi,vocoded,noVideo,sp07,Dr,We,1,2,2,flow/blocks/NVocInAudio_NoVideo_A.csv,,,,,,,,,0,2,2,2,0,29,29,28,,,,,,,,,-0.39444444444444443,0.11805555555555555,1,0,0,4.54975479998393,call2,0.018055555555555554,-0.3300925925925926,1,0,0,5.1659793999860995,colour4,0.46805555555555556,0.35833333333333334,1,0,0,5.772337300004438,number1,True,True,True,24,4,2019_Nov_15_1559,MA_Theta_Exp,3.0.7,60.16763907767768,
video/Experiment/zh_sp01_Ad_Gr_2_NVocInAudio_NoVideo.avi,vocoded,noVideo,sp01,Ad,Gr,2,2,2,flow/blocks/NVocInAudio_NoVideo_A.csv,,,,,,,,,0,2,2,2,0,30,30,5,,,,,,,,,-0.4236111111111111,0.12129629629629629,1,0,0,6.472521499963477,call2,0.015277777777777777,0.09027777777777778,1,0,0,7.222108100017067,colour2,0.38055555555555554,0.09722222222222222,1,0,0,7.706146600015927,number2,False,True,True,24,4,2019_Nov_15_1559,MA_Theta_Exp,3.0.7,60.16763907767768,
video/Experiment/zh_sp01_Ad_Ro_3_NVocInAudio_NoVideo.avi,vocoded,noVideo,sp01,Ad,Ro,3,2,2,flow/blocks/NVocInAudio_NoVideo_A.csv,,,,,,,,,0,2,2,2,0,31,31,10,,,,,,,,,-0.475,0.3541666666666667,1,0,0,5.064738299988676,call1,-0.008333333333333333,-0.11203703703703703,1,0,0,5.664075699984096,colour3,0.4236111111111111,-0.06620370370370371,1,0,0,6.196817499992903,number3,True,True,True,24,4,2019_Nov_15_1559,MA_Theta_Exp,3.0.7,60.16763907767768,
video/Experiment/zh_sp07_Ad_Ge_1_NoThetaInAudio_GlobalThetaInVideo.avi,noTheta,plusVideo,sp07,Ad,Ge,1,3,3,flow/blocks/NoThetaInAudio_GlobalThetaInVideo_A.csv,,,,,,,,,0,3,3,3,0,0,0,0,,,,,,,,,-0.43333333333333335,0.3111111111111111,1,0,0,4.802764399966691,call1,-0.002777777777777778,0.11435185185185186,1,0,0,5.468776500027161,colour2,0.40555555555555556,0.2986111111111111,1,0,0,6.0856834999867715,number1,True,False,True,24,4,2019_Nov_15_1559,MA_Theta_Exp,3.0.7,60.16763907767768,
video/Experiment/zh_sp01_Dr_We_3_NoThetaInAudio_GlobalThetaInVideo.avi,noTheta,plusVideo,sp01,Dr,We,3,3,3,flow/blocks/NoThetaInAudio_GlobalThetaInVideo_A.csv,,,,,,,,,0,3,3,3,0,1,1,30,,,,,,,,,-0.3541666666666667,0.12129629629629629,1,0,0,5.349792399967555,call2,-0.013888888888888888,-0.3375,1,0,0,5.9837506000185385,colour4,0.4222222222222222,-0.07175925925925926,1,0,0,6.468530400015879,number3,True,True,True,24,4,2019_Nov_15_1559,MA_Theta_Exp,3.0.7,60.16763907767768,
video/Experiment/zh_sp01_Dr_Ro_2_NoThetaInAudio_GlobalThetaInVideo.avi,noTheta,plusVideo,sp01,Dr,Ro,2,3,3,flow/blocks/NoThetaInAudio_GlobalThetaInVideo_A.csv,,,,,,,,,0,3,3,3,0,2,2,25,,,,,,,,,-0.36527777777777776,0.12222222222222222,1,0,0,5.5406234000111,call2,-0.009722222222222222,0.32916666666666666,1,0,0,6.390822199988179,colour1,0.4152777777777778,0.12546296296296297,1,0,0,7.106212400016375,number2,True,False,True,24,4,2019_Nov_15_1559,MA_Theta_Exp,3.0.7,60.16763907767768,
video/Experiment/zh_sp07_Dr_Ge_1_NoThetaInAudio_GlobalThetaInVideo.avi,noTheta,plusVideo,sp07,Dr,Ge,1,3,3,flow/blocks/NoThetaInAudio_GlobalThetaInVideo_A.csv,,,,,,,,,0,3,3,3,0,3,3,16,,,,,,,,,-0.4388888888888889,0.11851851851851852,1,0,0,4.442240400006995,call2,0.002777777777777778,0.3458333333333333,1,0,0,5.0563466000021435,colour1,0.38333333333333336,0.2916666666666667,1,0,0,5.674820400017779,number1,True,True,True,24,4,2019_Nov_15_1559,MA_Theta_Exp,3.0.7,60.16763907767768,
video/Experiment/zh_sp07_Ad_Ge_2_NoThetaInAudio_GlobalThetaInVideo.avi,noTheta,plusVideo,sp07,Ad,Ge,2,3,3,flow/blocks/NoThetaInAudio_GlobalThetaInVideo_A.csv,,,,,,,,,0,3,3,3,0,4,4,1,,,,,,,,,-0.4083333333333333,0.3337962962962963,1,0,0,4.330017600033898,call1,-0.030555555555555555,0.27824074074074073,1,0,0,4.796438199991826,colour1,0.45416666666666666,0.13796296296296295,1,0,0,5.3142748000100255,number2,True,True,True,24,4,2019_Nov_15_1559,MA_Theta_Exp,3.0.7,60.16763907767768,
video/Experiment/zh_sp07_Ad_Ro_1_NoThetaInAudio_GlobalThetaInVideo.avi,noTheta,plusVideo,sp07,Ad,Ro,1,3,3,flow/blocks/NoThetaInAudio_GlobalThetaInVideo_A.csv,,,,,,,,,0,3,3,3,0,5,5,8,,,,,,,,,-0.38333333333333336,0.2902777777777778,1,0,0,4.241632199962623,call1,0.020833333333333332,0.3013888888888889,1,0,0,4.775225599994883,colour1,0.4111111111111111,0.28194444444444444,1,0,0,5.491861499962397,number1,True,False,True,24,4,2019_Nov_15_1559,MA_Theta_Exp,3.0.7,60.16763907767768,
video/Experiment/zh_sp01_Dr_Ge_4_NoThetaInAudio_GlobalThetaInVideo.avi,noTheta,plusVideo,sp01,Dr,Ge,4,3,3,flow/blocks/NoThetaInAudio_GlobalThetaInVideo_A.csv,,,,,,,,,0,3,3,3,0,6,6,19,,,,,,,,,-0.39444444444444443,0.1087962962962963,1,0,0,4.854210800025612,call2,0.04027777777777778,0.3277777777777778,1,0,0,5.5219656999688596,colour1,0.4625,-0.2953703703703704,1,0,0,6.353822500037495,number4,True,True,True,24,4,2019_Nov_15_1559,MA_Theta_Exp,3.0.7,60.16763907767768,
video/Experiment/zh_sp01_Ad_Gr_3_NoThetaInAudio_GlobalThetaInVideo.avi,noTheta,plusVideo,sp01,Ad,Gr,3,3,3,flow/blocks/NoThetaInAudio_GlobalThetaInVideo_A.csv,,,,,,,,,0,3,3,3,0,7,7,6,,,,,,,,,-0.4305555555555556,0.3388888888888889,1,0,0,5.2586065999930725,call1,0.011111111111111112,0.12268518518518519,1,0,0,5.958571900031529,colour2,0.3888888888888889,-0.06481481481481481,1,0,0,6.50846390001243,number3,True,True,True,24,4,2019_Nov_15_1559,MA_Theta_Exp,3.0.7,60.16763907767768,
video/Experiment/zh_sp07_Dr_Ro_1_NoThetaInAudio_GlobalThetaInVideo.avi,noTheta,plusVideo,sp07,Dr,Ro,1,3,3,flow/blocks/NoThetaInAudio_GlobalThetaInVideo_A.csv,,,,,,,,,0,3,3,3,0,8,8,24,,,,,,,,,-0.3611111111111111,0.09490740740740741,1,0,0,4.489169800013769,call2,0.075,-0.10925925925925926,1,0,0,5.0399815000128,colour3,0.3138888888888889,0.2763888888888889,1,0,0,5.639648500015028,number1,True,True,True,24,4,2019_Nov_15_1559,MA_Theta_Exp,3.0.7,60.16763907767768,
video/Experiment/zh_sp01_Ad_Gr_2_NoThetaInAudio_GlobalThetaInVideo.avi,noTheta,plusVideo,sp01,Ad,Gr,2,3,3,flow/blocks/NoThetaInAudio_GlobalThetaInVideo_A.csv,,,,,,,,,0,3,3,3,0,9,9,5,,,,,,,,,-0.39861111111111114,0.30694444444444446,1,0,0,5.795126399956644,call1,-0.07361111111111111,0.10462962962962963,1,0,0,6.262315100000706,colour2,0.4263888888888889,0.06666666666666667,1,0,0,6.729039500001818,number2,True,True,True,24,4,2019_Nov_15_1559,MA_Theta_Exp,3.0.7,60.16763907767768,
video/Experiment/zh_sp01_Dr_Gr_3_NoThetaInAudio_GlobalThetaInVideo.avi,noTheta,plusVideo,sp01,Dr,Gr,3,3,3,flow/blocks/NoThetaInAudio_GlobalThetaInVideo_A.csv,,,,,,,,,0,3,3,3,0,10,10,22,,,,,,,,,-0.4166666666666667,0.33611111111111114,1,0,0,4.961356099986006,call1,0.0,0.11944444444444445,1,0,0,5.561242300027516,colour2,0.4444444444444444,-0.1550925925925926,1,0,0,6.110964099992998,number3,False,True,True,24,4,2019_Nov_15_1559,MA_Theta_Exp,3.0.7,60.16763907767768,
video/Experiment/zh_sp07_Dr_Ro_4_NoThetaInAudio_GlobalThetaInVideo.avi,noTheta,plusVideo,sp07,Dr,Ro,4,3,3,flow/blocks/NoThetaInAudio_GlobalThetaInVideo_A.csv,,,,,,,,,0,3,3,3,0,11,11,27,,,,,,,,,-0.36666666666666664,0.300462962962963,1,0,0,4.622825599974021,call1,-0.019444444444444445,-0.12037037037037036,1,0,0,5.1214372999966145,colour3,0.4388888888888889,-0.2953703703703704,1,0,0,5.653821300016716,number4,False,True,True,24,4,2019_Nov_15_1559,MA_Theta_Exp,3.0.7,60.16763907767768,
video/Experiment/zh_sp07_Dr_We_1_NoThetaInAudio_GlobalThetaInVideo.avi,noTheta,plusVideo,sp07,Dr,We,1,3,3,flow/blocks/NoThetaInAudio_GlobalThetaInVideo_A.csv,,,,,,,,,0,3,3,3,0,12,12,28,,,,,,,,,-0.43333333333333335,0.10462962962962963,1,0,0,4.473465399991255,call2,0.03888888888888889,-0.3425925925925926,1,0,0,5.119651499961037,colour4,0.3333333333333333,0.2513888888888889,1,0,0,5.671794600028079,number1,True,True,True,24,4,2019_Nov_15_1559,MA_Theta_Exp,3.0.7,60.16763907767768,
video/Experiment/zh_sp07_Ad_We_4_NoThetaInAudio_GlobalThetaInVideo.avi,noTheta,plusVideo,sp07,Ad,We,4,3,3,flow/blocks/NoThetaInAudio_GlobalThetaInVideo_A.csv,,,,,,,,,0,3,3,3,0,13,13,15,,,,,,,,,-0.38333333333333336,0.11435185185185186,1,0,0,4.546323799993843,call2,0.03194444444444444,-0.3287037037037037,1,0,0,5.345852300000843,colour4,0.4097222222222222,-0.30972222222222223,1,0,0,5.929630200029351,number4,False,True,True,24,4,2019_Nov_15_1559,MA_Theta_Exp,3.0.7,60.16763907767768,
video/Experiment/zh_sp07_Dr_Ro_3_NoThetaInAudio_GlobalThetaInVideo.avi,noTheta,plusVideo,sp07,Dr,Ro,3,3,3,flow/blocks/NoThetaInAudio_GlobalThetaInVideo_A.csv,,,,,,,,,0,3,3,3,0,14,14,26,,,,,,,,,-0.39305555555555555,0.11944444444444445,1,0,0,4.692212600028142,call2,-0.019444444444444445,-0.11342592592592593,1,0,0,5.1253257999778725,colour3,0.4013888888888889,-0.125,1,0,0,5.575618300004862,number3,True,True,True,24,4,2019_Nov_15_1559,MA_Theta_Exp,3.0.7,60.16763907767768,
video/Experiment/zh_sp01_Dr_Ge_3_NoThetaInAudio_GlobalThetaInVideo.avi,noTheta,plusVideo,sp01,Dr,Ge,3,3,3,flow/blocks/NoThetaInAudio_GlobalThetaInVideo_A.csv,,,,,,,,,0,3,3,3,0,15,15,18,,,,,,,,,-0.375,0.10324074074074074,1,0,0,4.93441599997459,call2,0.03333333333333333,0.33055555555555555,1,0,0,5.466713399975561,colour1,0.45694444444444443,-0.1162037037037037,1,0,0,6.001057900022715,number3,True,True,True,24,4,2019_Nov_15_1559,MA_Theta_Exp,3.0.7,60.16763907767768,
video/Experiment/zh_sp07_Ad_We_1_NoThetaInAudio_GlobalThetaInVideo.avi,noTheta,plusVideo,sp07,Ad,We,1,3,3,flow/blocks/NoThetaInAudio_GlobalThetaInVideo_A.csv,,,,,,,,,0,3,3,3,0,16,16,12,,,,,,,,,-0.4166666666666667,0.1375,1,0,0,4.431538900011219,call2,0.030555555555555555,-0.33425925925925926,1,0,0,5.068486700009089,colour4,0.48194444444444445,0.33240740740740743,1,0,0,5.906079899985343,number1,False,True,True,24,4,2019_Nov_15_1559,MA_Theta_Exp,3.0.7,60.16763907767768,
video/Experiment/zh_sp07_Ad_We_2_NoThetaInAudio_GlobalThetaInVideo.avi,noTheta,plusVideo,sp07,Ad,We,2,3,3,flow/blocks/NoThetaInAudio_GlobalThetaInVideo_A.csv,,,,,,,,,0,3,3,3,0,17,17,13,,,,,,,,,-0.41388888888888886,0.32083333333333336,1,0,0,4.388357499963604,call1,0.009722222222222222,-0.31342592592592594,1,0,0,5.069113100005779,colour4,0.44583333333333336,0.06805555555555555,1,0,0,5.589379200013354,number2,True,True,True,24,4,2019_Nov_15_1559,MA_Theta_Exp,3.0.7,60.16763907767768,
video/Experiment/zh_sp01_Dr_We_4_NoThetaInAudio_GlobalThetaInVideo.avi,noTheta,plusVideo,sp01,Dr,We,4,3,3,flow/blocks/NoThetaInAudio_GlobalThetaInVideo_A.csv,,,,,,,,,0,3,3,3,0,18,18,31,,,,,,,,,-0.42083333333333334,0.1111111111111111,1,0,0,5.428833699959796,call2,0.005555555555555556,-0.3398148148148148,1,0,0,6.095712999987882,colour4,0.3958333333333333,-0.33194444444444443,1,0,0,6.5454450999968685,number4,True,True,True,24,4,2019_Nov_15_1559,MA_Theta_Exp,3.0.7,60.16763907767768,
video/Experiment/zh_sp07_Ad_We_3_NoThetaInAudio_GlobalThetaInVideo.avi,noTheta,plusVideo,sp07,Ad,We,3,3,3,flow/blocks/NoThetaInAudio_GlobalThetaInVideo_A.csv,,,,,,,,,0,3,3,3,0,19,19,14,,,,,,,,,-0.42916666666666664,0.3236111111111111,1,0,0,4.319092599966098,call1,0.030555555555555555,-0.29398148148148145,1,0,0,5.035274500027299,colour4,0.46111111111111114,-0.2800925925925926,1,0,0,6.866860799957067,number4,True,True,False,24,4,2019_Nov_15_1559,MA_Theta_Exp,3.0.7,60.16763907767768,
video/Experiment/zh_sp07_Ad_Gr_4_NoThetaInAudio_GlobalThetaInVideo.avi,noTheta,plusVideo,sp07,Ad,Gr,4,3,3,flow/blocks/NoThetaInAudio_GlobalThetaInVideo_A.csv,,,,,,,,,0,3,3,3,0,20,20,7,,,,,,,,,-0.39305555555555555,0.35555555555555557,1,0,0,4.2995831000152975,call1,-0.04583333333333333,0.0625,1,0,0,4.819632300001103,colour2,0.375,-0.31203703703703706,1,0,0,5.4024047999992035,number4,True,True,True,24,4,2019_Nov_15_1559,MA_Theta_Exp,3.0.7,60.16763907767768,
video/Experiment/zh_sp01_Ad_Ro_2_NoThetaInAudio_GlobalThetaInVideo.avi,noTheta,plusVideo,sp01,Ad,Ro,2,3,3,flow/blocks/NoThetaInAudio_GlobalThetaInVideo_A.csv,,,,,,,,,0,3,3,3,0,21,21,9,,,,,,,,,-0.36944444444444446,0.32407407407407407,1,0,0,5.242284700041637,call1,0.05277777777777778,-0.11342592592592593,1,0,0,5.802269599982537,colour3,0.4625,0.1125,1,0,0,6.3025454000453465,number2,True,True,True,24,4,2019_Nov_15_1559,MA_Theta_Exp,3.0.7,60.16763907767768,
video/Experiment/zh_sp01_Ad_Ro_3_NoThetaInAudio_GlobalThetaInVideo.avi,noTheta,plusVideo,sp01,Ad,Ro,3,3,3,flow/blocks/NoThetaInAudio_GlobalThetaInVideo_A.csv,,,,,,,,,0,3,3,3,0,22,22,10,,,,,,,,,-0.3458333333333333,0.31296296296296294,1,0,0,5.091391400026623,call1,-0.043055555555555555,-0.10277777777777777,1,0,0,5.607489200017881,colour3,0.41944444444444445,-0.08611111111111111,1,0,0,6.190791699977126,number3,True,True,True,24,4,2019_Nov_15_1559,MA_Theta_Exp,3.0.7,60.16763907767768,
video/Experiment/zh_sp01_Ad_Ge_4_NoThetaInAudio_GlobalThetaInVideo.avi,noTheta,plusVideo,sp01,Ad,Ge,4,3,3,flow/blocks/NoThetaInAudio_GlobalThetaInVideo_A.csv,,,,,,,,,0,3,3,3,0,23,23,3,,,,,,,,,-0.35833333333333334,0.1476851851851852,1,0,0,7.444688299961854,call2,-0.009722222222222222,0.30694444444444446,1,0,0,8.194310599996243,colour1,0.37083333333333335,-0.3106481481481482,1,0,0,8.809550800011493,number4,False,True,True,24,4,2019_Nov_15_1559,MA_Theta_Exp,3.0.7,60.16763907767768,
video/Experiment/zh_sp07_Dr_We_2_NoThetaInAudio_GlobalThetaInVideo.avi,noTheta,plusVideo,sp07,Dr,We,2,3,3,flow/blocks/NoThetaInAudio_GlobalThetaInVideo_A.csv,,,,,,,,,0,3,3,3,0,24,24,29,,,,,,,,,-0.35833333333333334,0.3597222222222222,1,0,0,5.821077000000514,call1,0.011111111111111112,-0.3106481481481482,1,0,0,6.60981430002721,colour4,0.35555555555555557,0.10277777777777777,1,0,0,7.237461199983954,number2,False,True,True,24,4,2019_Nov_15_1559,MA_Theta_Exp,3.0.7,60.16763907767768,
video/Experiment/zh_sp01_Ad_Ro_4_NoThetaInAudio_GlobalThetaInVideo.avi,noTheta,plusVideo,sp01,Ad,Ro,4,3,3,flow/blocks/NoThetaInAudio_GlobalThetaInVideo_A.csv,,,,,,,,,0,3,3,3,0,25,25,11,,,,,,,,,-0.39861111111111114,0.275,1,0,0,5.267745100019965,call1,-0.009722222222222222,-0.12314814814814815,1,0,0,5.783852600026876,colour3,0.4652777777777778,-0.36203703703703705,1,0,0,6.334666599985212,number4,True,True,True,24,4,2019_Nov_15_1559,MA_Theta_Exp,3.0.7,60.16763907767768,
video/Experiment/zh_sp01_Dr_Ge_2_NoThetaInAudio_GlobalThetaInVideo.avi,noTheta,plusVideo,sp01,Dr,Ge,2,3,3,flow/blocks/NoThetaInAudio_GlobalThetaInVideo_A.csv,,,,,,,,,0,3,3,3,0,26,26,17,,,,,,,,,-0.36527777777777776,0.3277777777777778,1,0,0,5.102184400020633,call1,-0.018055555555555554,-0.08981481481481482,1,0,0,5.785882900003344,colour3,0.41388888888888886,0.1375,1,0,0,6.303019400045741,number2,False,False,True,24,4,2019_Nov_15_1559,MA_Theta_Exp,3.0.7,60.16763907767768,
video/Experiment/zh_sp01_Ad_Gr_1_NoThetaInAudio_GlobalThetaInVideo.avi,noTheta,plusVideo,sp01,Ad,Gr,1,3,3,flow/blocks/NoThetaInAudio_GlobalThetaInVideo_A.csv,,,,,,,,,0,3,3,3,0,27,27,4,,,,,,,,,-0.39444444444444443,0.35138888888888886,1,0,0,5.2278717999579385,call1,-0.004166666666666667,0.08888888888888889,1,0,0,5.727437200024724,colour2,0.39861111111111114,0.2916666666666667,1,0,0,6.259056499984581,number1,True,True,True,24,4,2019_Nov_15_1559,MA_Theta_Exp,3.0.7,60.16763907767768,
video/Experiment/zh_sp07_Dr_Gr_4_NoThetaInAudio_GlobalThetaInVideo.avi,noTheta,plusVideo,sp07,Dr,Gr,4,3,3,flow/blocks/NoThetaInAudio_GlobalThetaInVideo_A.csv,,,,,,,,,0,3,3,3,0,28,28,23,,,,,,,,,-0.43194444444444446,0.0699074074074074,1,0,0,4.721097000001464,call2,0.025,0.09351851851851851,1,0,0,5.470177099981811,colour2,0.44027777777777777,-0.3592592592592593,1,0,0,6.171264300006442,number4,True,True,True,24,4,2019_Nov_15_1559,MA_Theta_Exp,3.0.7,60.16763907767768,
video/Experiment/zh_sp01_Ad_Ge_3_NoThetaInAudio_GlobalThetaInVideo.avi,noTheta,plusVideo,sp01,Ad,Ge,3,3,3,flow/blocks/NoThetaInAudio_GlobalThetaInVideo_A.csv,,,,,,,,,0,3,3,3,0,29,29,2,,,,,,,,,-0.42777777777777776,0.38055555555555554,1,0,0,4.925755999982357,call1,-0.013888888888888888,0.11527777777777778,1,0,0,5.541756100021303,colour2,0.4625,-0.1300925925925926,1,0,0,6.042435100011062,number3,True,False,True,24,4,2019_Nov_15_1559,MA_Theta_Exp,3.0.7,60.16763907767768,
video/Experiment/zh_sp01_Dr_Gr_2_NoThetaInAudio_GlobalThetaInVideo.avi,noTheta,plusVideo,sp01,Dr,Gr,2,3,3,flow/blocks/NoThetaInAudio_GlobalThetaInVideo_A.csv,,,,,,,,,0,3,3,3,0,30,30,21,,,,,,,,,-0.4083333333333333,0.07407407407407407,1,0,0,6.976341400004458,call2,0.0375,0.08888888888888889,1,0,0,7.6917659000027925,colour2,0.48194444444444445,0.09722222222222222,1,0,0,8.208162299997639,number2,True,True,True,24,4,2019_Nov_15_1559,MA_Theta_Exp,3.0.7,60.16763907767768,
video/Experiment/zh_sp07_Dr_Gr_1_NoThetaInAudio_GlobalThetaInVideo.avi,noTheta,plusVideo,sp07,Dr,Gr,1,3,3,flow/blocks/NoThetaInAudio_GlobalThetaInVideo_A.csv,,,,,,,,,0,3,3,3,0,31,31,20,,,,,,,,,-0.32222222222222224,0.15,1,0,0,4.386404500051867,call2,0.022222222222222223,0.14629629629629629,1,0,0,4.799543800007086,colour2,0.39305555555555555,0.2972222222222222,1,0,0,5.3182032000040635,number1,True,True,True,24,4,2019_Nov_15_1559,MA_Theta_Exp,3.0.7,60.16763907767768,
video/Experiment/zh_sp07_Dr_Ge_2_GlobalTheta_NoVideo.avi,globalTheta,noVideo,sp07,Dr,Ge,2,4,5,flow/blocks/GlobalTheta_NoVideo_A.csv,,,,,,,,,0,4,4,4,0,0,0,17,,,,,,,,,-0.35138888888888886,0.2962962962962963,1,0,0,5.481891600007657,call1,0.0375,-0.16111111111111112,1,0,0,8.081332399975508,colour3,0.3819444444444444,0.2833333333333333,1,0,0,8.765545200032648,number1,False,False,False,24,4,2019_Nov_15_1559,MA_Theta_Exp,3.0.7,60.16763907767768,
video/Experiment/zh_sp07_Ad_Gr_2_GlobalTheta_NoVideo.avi,globalTheta,noVideo,sp07,Ad,Gr,2,4,5,flow/blocks/GlobalTheta_NoVideo_A.csv,,,,,,,,,0,4,4,4,0,1,1,5,,,,,,,,,-0.38055555555555554,0.11435185185185186,1,0,0,4.430834099999629,call2,0.09305555555555556,0.07268518518518519,1,0,0,5.012366600043606,colour2,0.4097222222222222,0.24861111111111112,1,0,0,5.912470799987204,number1,False,True,False,24,4,2019_Nov_15_1559,MA_Theta_Exp,3.0.7,60.16763907767768,
video/Experiment/zh_sp01_Ad_Ge_1_GlobalTheta_NoVideo.avi,globalTheta,noVideo,sp01,Ad,Ge,1,4,5,flow/blocks/GlobalTheta_NoVideo_A.csv,,,,,,,,,0,4,4,4,0,2,2,0,,,,,,,,,-0.35555555555555557,0.33055555555555555,1,0,0,5.2199818000080995,call1,-0.015277777777777777,0.31805555555555554,1,0,0,5.702258899982553,colour1,0.4305555555555556,0.31666666666666665,1,0,0,6.468317499966361,number1,True,True,True,24,4,2019_Nov_15_1559,MA_Theta_Exp,3.0.7,60.16763907767768,
video/Experiment/zh_sp01_Ad_Gr_1_GlobalTheta_NoVideo.avi,globalTheta,noVideo,sp01,Ad,Gr,1,4,5,flow/blocks/GlobalTheta_NoVideo_A.csv,,,,,,,,,0,4,4,4,0,3,3,4,,,,,,,,,-0.3402777777777778,0.30416666666666664,1,0,0,5.146686099993531,call1,-0.04722222222222222,0.1337962962962963,1,0,0,5.597171500034165,colour2,0.37083333333333335,0.25277777777777777,1,0,0,6.179877799993847,number1,True,True,True,24,4,2019_Nov_15_1559,MA_Theta_Exp,3.0.7,60.16763907767768,
video/Experiment/zh_sp01_Ad_Ge_3_GlobalTheta_NoVideo.avi,globalTheta,noVideo,sp01,Ad,Ge,3,4,5,flow/blocks/GlobalTheta_NoVideo_A.csv,,,,,,,,,0,4,4,4,0,4,4,2,,,,,,,,,-0.375,0.34629629629629627,1,0,0,4.54276059998665,call1,0.06805555555555555,0.30462962962962964,1,0,0,5.021934700023849,colour1,0.35833333333333334,-0.1050925925925926,1,0,0,5.688144900021143,number3,True,True,True,24,4,2019_Nov_15_1559,MA_Theta_Exp,3.0.7,60.16763907767768,
video/Experiment/zh_sp01_Dr_Gr_1_GlobalTheta_NoVideo.avi,globalTheta,noVideo,sp01,Dr,Gr,1,4,5,flow/blocks/GlobalTheta_NoVideo_A.csv,,,,,,,,,0,4,4,4,0,5,5,20,,,,,,,,,-0.3527777777777778,-0.07453703703703704,1,0,0,5.861431700002868,call3,0.04722222222222222,0.09861111111111111,1,0,0,6.444668999989517,colour2,0.39861111111111114,0.3486111111111111,1,0,0,6.946952300029807,number1,False,True,True,24,4,2019_Nov_15_1559,MA_Theta_Exp,3.0.7,60.16763907767768,
video/Experiment/zh_sp07_Dr_Ge_4_GlobalTheta_NoVideo.avi,globalTheta,noVideo,sp07,Dr,Ge,4,4,5,flow/blocks/GlobalTheta_NoVideo_A.csv,,,,,,,,,0,4,4,4,0,6,6,19,,,,,,,,,-0.3861111111111111,0.07083333333333333,1,0,0,4.875272600038443,call2,0.029166666666666667,-0.07361111111111111,1,0,0,5.791459099971689,colour3,0.44722222222222224,-0.33425925925925926,1,0,0,6.492440300004091,number4,True,False,True,24,4,2019_Nov_15_1559,MA_Theta_Exp,3.0.7,60.16763907767768,
video/Experiment/zh_sp07_Dr_We_3_GlobalTheta_NoVideo.avi,globalTheta,noVideo,sp07,Dr,We,3,4,5,flow/blocks/GlobalTheta_NoVideo_A.csv,,,,,,,,,0,4,4,4,0,7,7,30,,,,,,,,,-0.43333333333333335,0.14212962962962963,1,0,0,4.310590700013563,call2,0.015277777777777777,-0.29814814814814816,1,0,0,4.927419600018766,colour4,0.38055555555555554,-0.12777777777777777,1,0,0,5.4001183999935165,number3,True,True,True,24,4,2019_Nov_15_1559,MA_Theta_Exp,3.0.7,60.16763907767768,
video/Experiment/zh_sp07_Dr_Gr_4_GlobalTheta_NoVideo.avi,globalTheta,noVideo,sp07,Dr,Gr,4,4,5,flow/blocks/GlobalTheta_NoVideo_A.csv,,,,,,,,,0,4,4,4,0,8,8,23,,,,,,,,,-0.39861111111111114,0.31666666666666665,1,0,0,4.705950699979439,call1,0.022222222222222223,0.09768518518518518,1,0,0,5.369239899970125,colour2,0.4013888888888889,-0.06759259259259259,1,0,0,5.817722900013905,number3,False,True,False,24,4,2019_Nov_15_1559,MA_Theta_Exp,3.0.7,60.16763907767768,
video/Experiment/zh_sp07_Ad_Ro_2_GlobalTheta_NoVideo.avi,globalTheta,noVideo,sp07,Ad,Ro,2,4,5,flow/blocks/GlobalTheta_NoVideo_A.csv,,,,,,,,,0,4,4,4,0,9,9,9,,,,,,,,,-0.42777777777777776,0.3101851851851852,1,0,0,4.305701999983285,call1,-0.013888888888888888,0.2833333333333333,1,0,0,4.720589500037022,colour1,0.425,0.28888888888888886,1,0,0,5.120337600004859,number1,True,False,False,24,4,2019_Nov_15_1559,MA_Theta_Exp,3.0.7,60.16763907767768,
video/Experiment/zh_sp07_Ad_Ge_4_GlobalTheta_NoVideo.avi,globalTheta,noVideo,sp07,Ad,Ge,4,4,5,flow/blocks/GlobalTheta_NoVideo_A.csv,,,,,,,,,0,4,4,4,0,10,10,3,,,,,,,,,-0.4125,0.3337962962962963,1,0,0,4.358446999976877,call1,0.11944444444444445,0.2657407407407407,1,0,0,5.076532100036275,colour1,0.4444444444444444,-0.2814814814814815,1,0,0,6.191784999973606,number4,True,True,True,24,4,2019_Nov_15_1559,MA_Theta_Exp,3.0.7,60.16763907767768,
video/Experiment/zh_sp01_Ad_We_3_GlobalTheta_NoVideo.avi,globalTheta,noVideo,sp01,Ad,We,3,4,5,flow/blocks/GlobalTheta_NoVideo_A.csv,,,,,,,,,0,4,4,4,0,11,11,14,,,,,,,,,-0.39166666666666666,0.35138888888888886,1,0,0,4.9253670000471175,call1,0.02638888888888889,-0.32175925925925924,1,0,0,5.5750197999877855,colour4,0.44305555555555554,-0.09166666666666666,1,0,0,6.041216799989343,number3,True,True,True,24,4,2019_Nov_15_1559,MA_Theta_Exp,3.0.7,60.16763907767768,
video/Experiment/zh_sp01_Dr_Ro_2_GlobalTheta_NoVideo.avi,globalTheta,noVideo,sp01,Dr,Ro,2,4,5,flow/blocks/GlobalTheta_NoVideo_A.csv,,,,,,,,,0,4,4,4,0,12,12,25,,,,,,,,,-0.4736111111111111,0.33055555555555555,1,0,0,10.883038600033615,call1,0.075,0.10185185185185185,1,0,0,11.882374199980404,colour2,0.39444444444444443,0.06296296296296296,1,0,0,12.232280600001104,number2,False,False,True,24,4,2019_Nov_15_1559,MA_Theta_Exp,3.0.7,60.16763907767768,
video/Experiment/zh_sp01_Dr_Gr_3_GlobalTheta_NoVideo.avi,globalTheta,noVideo,sp01,Dr,Gr,3,4,5,flow/blocks/GlobalTheta_NoVideo_A.csv,,,,,,,,,0,4,4,4,0,13,13,22,,,,,,,,,-0.3375,-0.262037037037037,1,0,0,5.993880899972282,call4,0.041666666666666664,-0.2972222222222222,1,0,0,7.62652170000365,colour4,0.3875,-0.11527777777777778,1,0,0,8.076530699967407,number3,False,False,True,24,4,2019_Nov_15_1559,MA_Theta_Exp,3.0.7,60.16763907767768,
video/Experiment/zh_sp07_Ad_We_1_GlobalTheta_NoVideo.avi,globalTheta,noVideo,sp07,Ad,We,1,4,5,flow/blocks/GlobalTheta_NoVideo_A.csv,,,,,,,,,0,4,4,4,0,14,14,12,,,,,,,,,-0.41805555555555557,0.30833333333333335,1,0,0,4.342824499995913,call1,0.002777777777777778,-0.2759259259259259,1,0,0,5.727262800035533,colour4,0.3763888888888889,0.2972222222222222,1,0,0,6.62647710001329,number1,True,True,True,24,4,2019_Nov_15_1559,MA_Theta_Exp,3.0.7,60.16763907767768,
video/Experiment/zh_sp01_Dr_Gr_2_GlobalTheta_NoVideo.avi,globalTheta,noVideo,sp01,Dr,Gr,2,4,5,flow/blocks/GlobalTheta_NoVideo_A.csv,,,,,,,,,0,4,4,4,0,15,15,21,,,,,,,,,-0.36944444444444446,0.06574074074074074,1,0,0,6.146607499977108,call2,-0.0375,0.05740740740740741,1,0,0,6.59712990000844,colour2,0.3611111111111111,0.05416666666666667,1,0,0,7.0960723999887705,number2,True,True,True,24,4,2019_Nov_15_1559,MA_Theta_Exp,3.0.7,60.16763907767768,
video/Experiment/zh_sp07_Ad_Ro_3_GlobalTheta_NoVideo.avi,globalTheta,noVideo,sp07,Ad,Ro,3,4,5,flow/blocks/GlobalTheta_NoVideo_A.csv,,,,,,,,,0,4,4,4,0,16,16,10,,,,,,,,,-0.3888888888888889,0.2972222222222222,1,0,0,5.307100499980152,call1,-0.011111111111111112,0.2935185185185185,1,0,0,6.490751699951943,colour1,0.40694444444444444,-0.1398148148148148,1,0,0,7.0612747999839485,number3,True,False,True,24,4,2019_Nov_15_1559,MA_Theta_Exp,3.0.7,60.16763907767768,
video/Experiment/zh_sp07_Ad_Gr_3_GlobalTheta_NoVideo.avi,globalTheta,noVideo,sp07,Ad,Gr,3,4,5,flow/blocks/GlobalTheta_NoVideo_A.csv,,,,,,,,,0,4,4,4,0,17,17,6,,,,,,,,,-0.37777777777777777,0.30462962962962964,1,0,0,4.725739200017415,call1,-0.002777777777777778,0.12268518518518519,1,0,0,5.159216000000015,colour2,0.4013888888888889,-0.12361111111111112,1,0,0,5.714982000004966,number3,True,True,True,24,4,2019_Nov_15_1559,MA_Theta_Exp,3.0.7,60.16763907767768,
video/Experiment/zh_sp01_Ad_Ge_2_GlobalTheta_NoVideo.avi,globalTheta,noVideo,sp01,Ad,Ge,2,4,5,flow/blocks/GlobalTheta_NoVideo_A.csv,,,,,,,,,0,4,4,4,0,18,18,1,,,,,,,,,-0.4027777777777778,0.31666666666666665,1,0,0,5.110122499987483,call1,-0.022222222222222223,0.30972222222222223,1,0,0,5.809712600021157,colour1,0.44166666666666665,0.10185185185185185,1,0,0,6.311255800013896,number2,True,True,True,24,4,2019_Nov_15_1559,MA_Theta_Exp,3.0.7,60.16763907767768,
video/Experiment/zh_sp07_Dr_Ro_4_GlobalTheta_NoVideo.avi,globalTheta,noVideo,sp07,Dr,Ro,4,4,5,flow/blocks/GlobalTheta_NoVideo_A.csv,,,,,,,,,0,4,4,4,0,19,19,27,,,,,,,,,-0.38333333333333336,0.30416666666666664,1,0,0,4.583122799987905,call1,-0.02361111111111111,0.3055555555555556,1,0,0,5.035216999996919,colour1,0.40694444444444444,-0.3439814814814815,1,0,0,5.8007942000404,number4,False,False,True,24,4,2019_Nov_15_1559,MA_Theta_Exp,3.0.7,60.16763907767768,
video/Experiment/zh_sp01_Ad_We_2_GlobalTheta_NoVideo.avi,globalTheta,noVideo,sp01,Ad,We,2,4,5,flow/blocks/GlobalTheta_NoVideo_A.csv,,,,,,,,,0,4,4,4,0,20,20,13,,,,,,,,,-0.4013888888888889,0.35833333333333334,1,0,0,5.033469299960416,call1,-0.002777777777777778,-0.3050925925925926,1,0,0,5.735625900037121,colour4,0.36527777777777776,0.2861111111111111,1,0,0,6.581915899994783,number1,True,True,False,24,4,2019_Nov_15_1559,MA_Theta_Exp,3.0.7,60.16763907767768,
video/Experiment/zh_sp07_Dr_We_4_GlobalTheta_NoVideo.avi,globalTheta,noVideo,sp07,Dr,We,4,4,5,flow/blocks/GlobalTheta_NoVideo_A.csv,,,,,,,,,0,4,4,4,0,21,21,31,,,,,,,,,-0.4097222222222222,0.2972222222222222,1,0,0,4.597958599973936,call1,-0.019444444444444445,-0.36064814814814816,1,0,0,5.484612800006289,colour4,0.3638888888888889,-0.05555555555555555,1,0,0,6.114844000025187,number3,False,True,False,24,4,2019_Nov_15_1559,MA_Theta_Exp,3.0.7,60.16763907767768,
video/Experiment/zh_sp01_Dr_We_1_GlobalTheta_NoVideo.avi,globalTheta,noVideo,sp01,Dr,We,1,4,5,flow/blocks/GlobalTheta_NoVideo_A.csv,,,,,,,,,0,4,4,4,0,22,22,28,,,,,,,,,-0.4263888888888889,-0.2898148148148148,1,0,0,8.388952200009953,call4,0.016666666666666666,-0.2759259259259259,1,0,0,11.005357199988794,colour4,0.4486111111111111,0.2962962962962963,1,0,0,11.938606400042772,number1,False,True,True,24,4,2019_Nov_15_1559,MA_Theta_Exp,3.0.7,60.16763907767768,
video/Experiment/zh_sp01_Dr_Ge_3_GlobalTheta_NoVideo.avi,globalTheta,noVideo,sp01,Dr,Ge,3,4,5,flow/blocks/GlobalTheta_NoVideo_A.csv,,,,,,,,,0,4,4,4,0,23,23,18,,,,,,,,,-0.4486111111111111,-0.29259259259259257,1,0,0,5.194757399964146,call4,0.04722222222222222,0.38055555555555554,1,0,0,5.913493800035212,colour1,0.4166666666666667,-0.14537037037037037,1,0,0,6.480464199965354,number3,False,True,True,24,4,2019_Nov_15_1559,MA_Theta_Exp,3.0.7,60.16763907767768,
video/Experiment/zh_sp07_Dr_Ge_1_GlobalTheta_NoVideo.avi,globalTheta,noVideo,sp07,Dr,Ge,1,4,5,flow/blocks/GlobalTheta_NoVideo_A.csv,,,,,,,,,0,4,4,4,0,24,24,16,,,,,,,,,-0.4236111111111111,0.3226851851851852,1,0,0,4.446457599988207,call1,-0.044444444444444446,0.29212962962962963,1,0,0,4.806842799996957,colour1,0.44166666666666665,0.2791666666666667,1,0,0,5.358359400008339,number1,False,True,True,24,4,2019_Nov_15_1559,MA_Theta_Exp,3.0.7,60.16763907767768,
video/Experiment/zh_sp01_Dr_Ro_1_GlobalTheta_NoVideo.avi,globalTheta,noVideo,sp01,Dr,Ro,1,4,5,flow/blocks/GlobalTheta_NoVideo_A.csv,,,,,,,,,0,4,4,4,0,25,25,24,,,,,,,,,-0.3763888888888889,0.3101851851851852,1,0,0,8.15045909996843,call1,0.05694444444444444,0.07268518518518519,1,0,0,8.787449199997354,colour2,0.4,0.33194444444444443,1,0,0,9.233924700005446,number1,False,False,True,24,4,2019_Nov_15_1559,MA_Theta_Exp,3.0.7,60.16763907767768,
video/Experiment/zh_sp07_Ad_We_4_GlobalTheta_NoVideo.avi,globalTheta,noVideo,sp07,Ad,We,4,4,5,flow/blocks/GlobalTheta_NoVideo_A.csv,,,,,,,,,0,4,4,4,0,26,26,15,,,,,,,,,-0.35833333333333334,0.1685185185185185,1,0,0,4.633852800005116,call2,-0.06388888888888888,-0.2791666666666667,1,0,0,5.235960800026078,colour4,0.4236111111111111,-0.3125,1,0,0,6.117148399993312,number4,False,True,True,24,4,2019_Nov_15_1559,MA_Theta_Exp,3.0.7,60.16763907767768,
video/Experiment/zh_sp07_Ad_Ro_1_GlobalTheta_NoVideo.avi,globalTheta,noVideo,sp07,Ad,Ro,1,4,5,flow/blocks/GlobalTheta_NoVideo_A.csv,,,,,,,,,0,4,4,4,0,27,27,8,,,,,,,,,-0.43333333333333335,0.10740740740740741,1,0,0,5.1846080999821424,call2,0.018055555555555554,-0.30925925925925923,1,0,0,7.435491800017189,colour4,0.4513888888888889,0.3736111111111111,1,0,0,8.219421799993142,number1,False,False,True,24,4,2019_Nov_15_1559,MA_Theta_Exp,3.0.7,60.16763907767768,
video/Experiment/zh_sp01_Dr_Ro_3_GlobalTheta_NoVideo.avi,globalTheta,noVideo,sp01,Dr,Ro,3,4,5,flow/blocks/GlobalTheta_NoVideo_A.csv,,,,,,,,,0,4,4,4,0,28,28,26,,,,,,,,,-0.4041666666666667,0.325,1,0,0,5.927192400034983,call1,-0.030555555555555555,-0.07037037037037037,1,0,0,6.526593399990816,colour3,0.4152777777777778,-0.18055555555555555,1,0,0,7.2095227999961935,number3,False,True,True,24,4,2019_Nov_15_1559,MA_Theta_Exp,3.0.7,60.16763907767768,
video/Experiment/zh_sp01_Dr_We_2_GlobalTheta_NoVideo.avi,globalTheta,noVideo,sp01,Dr,We,2,4,5,flow/blocks/GlobalTheta_NoVideo_A.csv,,,,,,,,,0,4,4,4,0,29,29,29,,,,,,,,,-0.45,-0.10138888888888889,1,0,0,6.43594530003611,call3,0.04861111111111111,-0.07453703703703704,1,0,0,7.024718999979086,colour3,0.4361111111111111,0.2833333333333333,1,0,0,7.6558162000146694,number1,False,False,False,24,4,2019_Nov_15_1559,MA_Theta_Exp,3.0.7,60.16763907767768,
video/Experiment/zh_sp07_Ad_Gr_4_GlobalTheta_NoVideo.avi,globalTheta,noVideo,sp07,Ad,Gr,4,4,5,flow/blocks/GlobalTheta_NoVideo_A.csv,,,,,,,,,0,4,4,4,0,30,30,7,,,,,,,,,-0.35555555555555557,0.1111111111111111,1,0,0,5.247146699985024,call2,0.044444444444444446,0.12222222222222222,1,0,0,5.680306700000074,colour2,0.49027777777777776,-0.3050925925925926,1,0,0,6.296894500032067,number4,False,True,True,24,4,2019_Nov_15_1559,MA_Theta_Exp,3.0.7,60.16763907767768,
video/Experiment/zh_sp01_Ad_Ro_4_GlobalTheta_NoVideo.avi,globalTheta,noVideo,sp01,Ad,Ro,4,4,5,flow/blocks/GlobalTheta_NoVideo_A.csv,,,,,,,,,0,4,4,4,0,31,31,11,,,,,,,,,-0.4097222222222222,0.3111111111111111,1,0,0,5.221426400006749,call1,0.013888888888888888,0.3472222222222222,1,0,0,5.669003099959809,colour1,0.39166666666666666,-0.32592592592592595,1,0,0,6.322289600037038,number4,True,False,True,24,4,2019_Nov_15_1559,MA_Theta_Exp,3.0.7,60.16763907767768,
video/Experiment/zh_sp01_Ti_Gr_4_NVocInAudio_NoVideo.avi,vocoded,noVideo,sp01,Ti,Gr,4,0,2,flow/blocks/NVocInAudio_NoVideo_B.csv,,,,,,,,,,,,,,,,,0,0,0,0,0,0,0,7,-0.44305555555555554,-0.09722222222222222,1,0,0,5.6440104999928735,call3,-0.005555555555555556,0.09861111111111111,1,0,0,6.323550599976443,colour2,0.37222222222222223,-0.31203703703703706,1,0,0,6.975984500022605,number4,True,True,True,24,4,2019_Nov_15_1559,MA_Theta_Exp,3.0.7,60.16763907767768,
video/Experiment/zh_sp07_Un_Ro_3_NVocInAudio_NoVideo.avi,vocoded,noVideo,sp07,Un,Ro,3,0,2,flow/blocks/NVocInAudio_NoVideo_B.csv,,,,,,,,,,,,,,,,,0,0,0,0,0,1,1,26,-0.41944444444444445,-0.3416666666666667,1,0,0,4.827379300026223,call4,0.0,-0.12638888888888888,1,0,0,5.460815500002354,colour3,0.4486111111111111,-0.10277777777777777,1,0,0,6.76176420005504,number3,True,True,True,24,4,2019_Nov_15_1559,MA_Theta_Exp,3.0.7,60.16763907767768,
video/Experiment/zh_sp07_Un_Ro_4_NVocInAudio_NoVideo.avi,vocoded,noVideo,sp07,Un,Ro,4,0,2,flow/blocks/NVocInAudio_NoVideo_B.csv,,,,,,,,,,,,,,,,,0,0,0,0,0,2,2,27,-0.37083333333333335,-0.3037037037037037,1,0,0,4.669536200002767,call4,-0.006944444444444444,-0.10694444444444444,1,0,0,5.303176100016572,colour3,0.33055555555555555,-0.28564814814814815,1,0,0,5.753269499982707,number4,True,True,True,24,4,2019_Nov_15_1559,MA_Theta_Exp,3.0.7,60.16763907767768,
video/Experiment/zh_sp07_Ti_We_1_NVocInAudio_NoVideo.avi,vocoded,noVideo,sp07,Ti,We,1,0,2,flow/blocks/NVocInAudio_NoVideo_B.csv,,,,,,,,,,,,,,,,,0,0,0,0,0,3,3,12,-0.3888888888888889,-0.10555555555555556,1,0,0,4.533329300000332,call3,-0.05277777777777778,-0.32175925925925924,1,0,0,5.0327121000154875,colour4,0.3625,0.2569444444444444,1,0,0,5.803776899992954,number1,True,True,True,24,4,2019_Nov_15_1559,MA_Theta_Exp,3.0.7,60.16763907767768,
video/Experiment/zh_sp01_Ti_Ro_2_NVocInAudio_NoVideo.avi,vocoded,noVideo,sp01,Ti,Ro,2,0,2,flow/blocks/NVocInAudio_NoVideo_B.csv,,,,,,,,,,,,,,,,,0,0,0,0,0,4,4,9,-0.4444444444444444,-0.10787037037037037,1,0,0,5.170915599970613,call3,0.030555555555555555,-0.11944444444444445,1,0,0,5.903914800030179,colour3,0.4888888888888889,0.11805555555555555,1,0,0,6.503974599996582,number2,True,True,True,24,4,2019_Nov_15_1559,MA_Theta_Exp,3.0.7,60.16763907767768,
video/Experiment/zh_sp01_Un_Ge_2_NVocInAudio_NoVideo.avi,vocoded,noVideo,sp01,Un,Ge,2,0,2,flow/blocks/NVocInAudio_NoVideo_B.csv,,,,,,,,,,,,,,,,,0,0,0,0,0,5,5,17,-0.3902777777777778,-0.30787037037037035,1,0,0,5.065265699988231,call4,0.05,0.2902777777777778,1,0,0,5.701537300017662,colour1,0.4361111111111111,0.12129629629629629,1,0,0,6.167076000012457,number2,True,True,True,24,4,2019_Nov_15_1559,MA_Theta_Exp,3.0.7,60.16763907767768,
video/Experiment/zh_sp07_Ti_Gr_2_NVocInAudio_NoVideo.avi,vocoded,noVideo,sp07,Ti,Gr,2,0,2,flow/blocks/NVocInAudio_NoVideo_B.csv,,,,,,,,,,,,,,,,,0,0,0,0,0,6,6,5,-0.36666666666666664,-0.11805555555555555,1,0,0,5.067325399955735,call3,0.004166666666666667,0.08611111111111111,1,0,0,5.6671600000117905,colour2,0.4,0.13333333333333333,1,0,0,6.116448100015987,number2,True,True,True,24,4,2019_Nov_15_1559,MA_Theta_Exp,3.0.7,60.16763907767768,
video/Experiment/zh_sp01_Ti_Ro_3_NVocInAudio_NoVideo.avi,vocoded,noVideo,sp01,Ti,Ro,3,0,2,flow/blocks/NVocInAudio_NoVideo_B.csv,,,,,,,,,,,,,,,,,0,0,0,0,0,7,7,10,-0.4444444444444444,-0.10092592592592593,1,0,0,5.01413580001099,call3,0.0125,-0.1175925925925926,1,0,0,5.696840799995698,colour3,0.3625,-0.11342592592592593,1,0,0,6.147366099990904,number3,True,True,True,24,4,2019_Nov_15_1559,MA_Theta_Exp,3.0.7,60.16763907767768,
video/Experiment/zh_sp07_Un_Gr_1_NVocInAudio_NoVideo.avi,vocoded,noVideo,sp07,Un,Gr,1,0,2,flow/blocks/NVocInAudio_NoVideo_B.csv,,,,,,,,,,,,,,,,,0,0,0,0,0,8,8,20,-0.44722222222222224,-0.2791666666666667,1,0,0,4.7264078999869525,call4,-0.008333333333333333,0.08888888888888889,1,0,0,5.462139500014018,colour2,0.4513888888888889,0.34305555555555556,1,0,0,5.992985100019723,number1,True,True,True,24,4,2019_Nov_15_1559,MA_Theta_Exp,3.0.7,60.16763907767768,
video/Experiment/zh_sp01_Un_Gr_3_NVocInAudio_NoVideo.avi,vocoded,noVideo,sp01,Un,Gr,3,0,2,flow/blocks/NVocInAudio_NoVideo_B.csv,,,,,,,,,,,,,,,,,0,0,0,0,0,9,9,22,-0.3611111111111111,-0.3263888888888889,1,0,0,4.841712299967185,call4,0.03194444444444444,0.03194444444444444,1,0,0,5.458064200007357,colour2,0.42916666666666664,-0.05787037037037037,1,0,0,6.025407899986021,number3,True,True,True,24,4,2019_Nov_15_1559,MA_Theta_Exp,3.0.7,60.16763907767768,
video/Experiment/zh_sp01_Un_Ro_1_NVocInAudio_NoVideo.avi,vocoded,noVideo,sp01,Un,Ro,1,0,2,flow/blocks/NVocInAudio_NoVideo_B.csv,,,,,,,,,,,,,,,,,0,0,0,0,0,10,10,24,-0.3527777777777778,-0.32916666666666666,1,0,0,5.196824499987997,call4,0.0763888888888889,-0.1125,1,0,0,6.096088600053918,colour3,0.4083333333333333,0.33796296296296297,1,0,0,6.87997589999577,number1,True,True,True,24,4,2019_Nov_15_1559,MA_Theta_Exp,3.0.7,60.16763907767768,
video/Experiment/zh_sp07_Un_We_2_NVocInAudio_NoVideo.avi,vocoded,noVideo,sp07,Un,We,2,0,2,flow/blocks/NVocInAudio_NoVideo_B.csv,,,,,,,,,,,,,,,,,0,0,0,0,0,11,11,29,-0.42083333333333334,-0.3037037037037037,1,0,0,4.367384899989702,call4,-0.013888888888888888,-0.3416666666666667,1,0,0,5.000693499983754,colour4,0.4222222222222222,0.1310185185185185,1,0,0,5.757017299998552,number2,True,True,True,24,4,2019_Nov_15_1559,MA_Theta_Exp,3.0.7,60.16763907767768,
video/Experiment/zh_sp07_Un_We_4_NVocInAudio_NoVideo.avi,vocoded,noVideo,sp07,Un,We,4,0,2,flow/blocks/NVocInAudio_NoVideo_B.csv,,,,,,,,,,,,,,,,,0,0,0,0,0,12,12,31,-0.36666666666666664,-0.2759259259259259,1,0,0,4.459328999975696,call4,-0.06388888888888888,-0.2967592592592593,1,0,0,5.059309699980076,colour4,0.33194444444444443,-0.3148148148148148,1,0,0,5.626260099990759,number4,True,True,True,24,4,2019_Nov_15_1559,MA_Theta_Exp,3.0.7,60.16763907767768,
video/Experiment/zh_sp01_Ti_Ro_1_NVocInAudio_NoVideo.avi,vocoded,noVideo,sp01,Ti,Ro,1,0,2,flow/blocks/NVocInAudio_NoVideo_B.csv,,,,,,,,,,,,,,,,,0,0,0,0,0,13,13,8,-0.4152777777777778,-0.075,1,0,0,5.223788800009061,call3,-0.018055555555555554,-0.08194444444444444,1,0,0,5.788419499993324,colour3,0.4388888888888889,0.25,1,0,0,6.355222599988338,number1,True,True,True,24,4,2019_Nov_15_1559,MA_Theta_Exp,3.0.7,60.16763907767768,
video/Experiment/zh_sp07_Un_Ge_4_NVocInAudio_NoVideo.avi,vocoded,noVideo,sp07,Un,Ge,4,0,2,flow/blocks/NVocInAudio_NoVideo_B.csv,,,,,,,,,,,,,,,,,0,0,0,0,0,14,14,19,-0.38055555555555554,-0.3384259259259259,1,0,0,4.332234499976039,call4,0.025,0.3277777777777778,1,0,0,5.148749699990731,colour1,0.3819444444444444,-0.3023148148148148,1,0,0,5.889305299962871,number4,True,True,True,24,4,2019_Nov_15_1559,MA_Theta_Exp,3.0.7,60.16763907767768,
video/Experiment/zh_sp07_Ti_Ge_3_NVocInAudio_NoVideo.avi,vocoded,noVideo,sp07,Ti,Ge,3,0,2,flow/blocks/NVocInAudio_NoVideo_B.csv,,,,,,,,,,,,,,,,,0,0,0,0,0,15,15,2,-0.38472222222222224,-0.11064814814814815,1,0,0,4.296875200001523,call3,0.06944444444444445,0.24444444444444444,1,0,0,4.996817100036424,colour1,0.4,-0.1050925925925926,1,0,0,5.748106699960772,number3,True,True,True,24,4,2019_Nov_15_1559,MA_Theta_Exp,3.0.7,60.16763907767768,
video/Experiment/zh_sp07_Ti_Ge_4_NVocInAudio_NoVideo.avi,vocoded,noVideo,sp07,Ti,Ge,4,0,2,flow/blocks/NVocInAudio_NoVideo_B.csv,,,,,,,,,,,,,,,,,0,0,0,0,0,16,16,3,-0.3972222222222222,-0.10277777777777777,1,0,0,4.484416699968278,call3,0.029166666666666667,0.25277777777777777,1,0,0,5.0504871000302956,colour1,0.47638888888888886,-0.3425925925925926,1,0,0,5.900975500000641,number4,True,True,True,24,4,2019_Nov_15_1559,MA_Theta_Exp,3.0.7,60.16763907767768,
video/Experiment/zh_sp01_Ti_Ge_1_NVocInAudio_NoVideo.avi,vocoded,noVideo,sp01,Ti,Ge,1,0,2,flow/blocks/NVocInAudio_NoVideo_B.csv,,,,,,,,,,,,,,,,,0,0,0,0,0,17,17,0,-0.37777777777777777,-0.12777777777777777,1,0,0,5.3510366000118665,call3,-0.011111111111111112,0.25416666666666665,1,0,0,5.950340999988839,colour1,0.43333333333333335,0.2611111111111111,1,0,0,6.435223500011489,number1,True,True,True,24,4,2019_Nov_15_1559,MA_Theta_Exp,3.0.7,60.16763907767768,
video/Experiment/zh_sp01_Un_We_1_NVocInAudio_NoVideo.avi,vocoded,noVideo,sp01,Un,We,1,0,2,flow/blocks/NVocInAudio_NoVideo_B.csv,,,,,,,,,,,,,,,,,0,0,0,0,0,18,18,28,-0.425,-0.09861111111111111,1,0,0,5.267913099960424,call3,0.06944444444444445,-0.3189814814814815,1,0,0,5.986682099988684,colour4,0.4625,0.2875,1,0,0,6.753823200007901,number1,False,True,True,24,4,2019_Nov_15_1559,MA_Theta_Exp,3.0.7,60.16763907767768,
video/Experiment/zh_sp01_Ti_Ro_4_NVocInAudio_NoVideo.avi,vocoded,noVideo,sp01,Ti,Ro,4,0,2,flow/blocks/NVocInAudio_NoVideo_B.csv,,,,,,,,,,,,,,,,,0,0,0,0,0,19,19,11,-0.4263888888888889,-0.0787037037037037,1,0,0,5.162247399974149,call3,-0.06388888888888888,-0.09583333333333334,1,0,0,5.845820499991532,colour3,0.39166666666666666,-0.2898148148148148,1,0,0,6.611869200016372,number4,True,True,True,24,4,2019_Nov_15_1559,MA_Theta_Exp,3.0.7,60.16763907767768,
video/Experiment/zh_sp01_Un_Ge_3_NVocInAudio_NoVideo.avi,vocoded,noVideo,sp01,Un,Ge,3,0,2,flow/blocks/NVocInAudio_NoVideo_B.csv,,,,,,,,,,,,,,,,,0,0,0,0,0,20,20,18,-0.375,-0.3106481481481482,1,0,0,5.499809300003108,call4,0.011111111111111112,0.3055555555555556,1,0,0,6.199802599963732,colour1,0.3236111111111111,-0.11203703703703703,1,0,0,6.817071099998429,number3,True,True,True,24,4,2019_Nov_15_1559,MA_Theta_Exp,3.0.7,60.16763907767768,
video/Experiment/zh_sp07_Un_Gr_4_NVocInAudio_NoVideo.avi,vocoded,noVideo,sp07,Un,Gr,4,0,2,flow/blocks/NVocInAudio_NoVideo_B.csv,,,,,,,,,,,,,,,,,0,0,0,0,0,21,21,23,-0.4513888888888889,-0.30277777777777776,1,0,0,4.718742099998053,call4,0.041666666666666664,0.12222222222222222,1,0,0,5.352629600034561,colour2,0.4152777777777778,-0.3287037037037037,1,0,0,5.918955900007859,number4,True,True,True,24,4,2019_Nov_15_1559,MA_Theta_Exp,3.0.7,60.16763907767768,
video/Experiment/zh_sp01_Un_We_3_NVocInAudio_NoVideo.avi,vocoded,noVideo,sp01,Un,We,3,0,2,flow/blocks/NVocInAudio_NoVideo_B.csv,,,,,,,,,,,,,,,,,0,0,0,0,0,22,22,30,-0.33194444444444443,-0.29398148148148145,1,0,0,5.173026199976448,call4,0.002777777777777778,-0.3148148148148148,1,0,0,5.645351100014523,colour4,0.4305555555555556,-0.1287037037037037,1,0,0,6.378640400012955,number3,True,True,True,24,4,2019_Nov_15_1559,MA_Theta_Exp,3.0.7,60.16763907767768,
video/Experiment/zh_sp01_Ti_Ge_2_NVocInAudio_NoVideo.avi,vocoded,noVideo,sp01,Ti,Ge,2,0,2,flow/blocks/NVocInAudio_NoVideo_B.csv,,,,,,,,,,,,,,,,,0,0,0,0,0,23,23,1,-0.3625,-0.12777777777777777,1,0,0,5.474348900024779,call3,0.009722222222222222,0.29444444444444445,1,0,0,6.323993799975142,colour1,0.4236111111111111,0.14351851851851852,1,0,0,6.8904537000344135,number2,True,True,True,24,4,2019_Nov_15_1559,MA_Theta_Exp,3.0.7,60.16763907767768,
video/Experiment/zh_sp01_Ti_We_4_NVocInAudio_NoVideo.avi,vocoded,noVideo,sp01,Ti,We,4,0,2,flow/blocks/NVocInAudio_NoVideo_B.csv,,,,,,,,,,,,,,,,,0,0,0,0,0,24,24,15,-0.3611111111111111,-0.09583333333333334,1,0,0,5.148011000012048,call3,0.022222222222222223,-0.2898148148148148,1,0,0,5.866996800003108,colour4,0.4236111111111111,-0.32175925925925924,1,0,0,6.331143399991561,number4,True,True,True,24,4,2019_Nov_15_1559,MA_Theta_Exp,3.0.7,60.16763907767768,
video/Experiment/zh_sp07_Un_Ge_1_NVocInAudio_NoVideo.avi,vocoded,noVideo,sp07,Un,Ge,1,0,2,flow/blocks/NVocInAudio_NoVideo_B.csv,,,,,,,,,,,,,,,,,0,0,0,0,0,25,25,16,-0.3541666666666667,-0.16620370370370371,1,0,0,4.5661895999801345,call3,0.0125,0.24768518518518517,1,0,0,5.36503410001751,colour1,0.4666666666666667,0.31712962962962965,1,0,0,6.066603399987798,number1,False,True,True,24,4,2019_Nov_15_1559,MA_Theta_Exp,3.0.7,60.16763907767768,
video/Experiment/zh_sp07_Ti_We_2_NVocInAudio_NoVideo.avi,vocoded,noVideo,sp07,Ti,We,2,0,2,flow/blocks/NVocInAudio_NoVideo_B.csv,,,,,,,,,,,,,,,,,0,0,0,0,0,26,26,13,-0.4444444444444444,-0.11527777777777778,1,0,0,4.885260000010021,call3,-0.011111111111111112,-0.30416666666666664,1,0,0,5.752022799977567,colour4,0.425,0.14444444444444443,1,0,0,6.3170542000443675,number2,True,True,True,24,4,2019_Nov_15_1559,MA_Theta_Exp,3.0.7,60.16763907767768,
video/Experiment/zh_sp07_Ti_Gr_1_NVocInAudio_NoVideo.avi,vocoded,noVideo,sp07,Ti,Gr,1,0,2,flow/blocks/NVocInAudio_NoVideo_B.csv,,,,,,,,,,,,,,,,,0,0,0,0,0,27,27,4,-0.3875,-0.08888888888888889,1,0,0,4.399456900020596,call3,-0.022222222222222223,0.08333333333333333,1,0,0,4.936609900032636,colour2,0.45694444444444443,0.35185185185185186,1,0,0,5.583084599988069,number1,True,True,True,24,4,2019_Nov_15_1559,MA_Theta_Exp,3.0.7,60.16763907767768,
video/Experiment/zh_sp01_Un_Gr_2_NVocInAudio_NoVideo.avi,vocoded,noVideo,sp01,Un,Gr,2,0,2,flow/blocks/NVocInAudio_NoVideo_B.csv,,,,,,,,,,,,,,,,,0,0,0,0,0,28,28,21,-0.3625,-0.337037037037037,1,0,0,6.031981700041797,call4,0.044444444444444446,0.0375,1,0,0,6.7659557000151835,colour2,0.4111111111111111,0.3199074074074074,1,0,0,7.533452899951953,number1,True,True,False,24,4,2019_Nov_15_1559,MA_Theta_Exp,3.0.7,60.16763907767768,
video/Experiment/zh_sp01_Ti_Gr_3_NVocInAudio_NoVideo.avi,vocoded,noVideo,sp01,Ti,Gr,3,0,2,flow/blocks/NVocInAudio_NoVideo_B.csv,,,,,,,,,,,,,,,,,0,0,0,0,0,29,29,6,-0.44166666666666665,-0.07361111111111111,1,0,0,5.258715400006622,call3,-0.015277777777777777,0.04861111111111111,1,0,0,6.009146700031124,colour2,0.35694444444444445,-0.03564814814814815,1,0,0,6.6431826000334695,number3,True,True,True,24,4,2019_Nov_15_1559,MA_Theta_Exp,3.0.7,60.16763907767768,
video/Experiment/zh_sp07_Ti_We_3_NVocInAudio_NoVideo.avi,vocoded,noVideo,sp07,Ti,We,3,0,2,flow/blocks/NVocInAudio_NoVideo_B.csv,,,,,,,,,,,,,,,,,0,0,0,0,0,30,30,14,-0.3861111111111111,-0.11342592592592593,1,0,0,4.669538000016473,call3,-0.04027777777777778,-0.36064814814814816,1,0,0,5.312052700028289,colour4,0.3541666666666667,-0.10277777777777777,1,0,0,5.897342299984302,number3,True,True,True,24,4,2019_Nov_15_1559,MA_Theta_Exp,3.0.7,60.16763907767768,
video/Experiment/zh_sp07_Un_Ro_2_NVocInAudio_NoVideo.avi,vocoded,noVideo,sp07,Un,Ro,2,0,2,flow/blocks/NVocInAudio_NoVideo_B.csv,,,,,,,,,,,,,,,,,0,0,0,0,0,31,31,25,-0.4361111111111111,-0.28425925925925927,1,0,0,4.384618799958844,call4,0.011111111111111112,-0.13194444444444445,1,0,0,5.102047400025185,colour3,0.43333333333333335,0.044444444444444446,1,0,0,5.635300999972969,number2,True,True,True,24,4,2019_Nov_15_1559,MA_Theta_Exp,3.0.7,60.16763907767768,
video/Experiment/zh_sp07_Ti_Ge_4_NVocInAudio_GlobalThetaInVideo.avi,vocoded,plusVideo,sp07,Ti,Ge,4,1,1,flow/blocks/NVocInAudio_GlobalThetaInVideo_B.csv,,,,,,,,,,,,,,,,,0,1,1,1,0,0,0,3,-0.3736111111111111,-0.05277777777777778,1,0,0,4.8467576000257395,call3,0.027777777777777776,0.3416666666666667,1,0,0,5.480759700003546,colour1,0.3902777777777778,-0.324537037037037,1,0,0,6.363394099986181,number4,True,True,True,24,4,2019_Nov_15_1559,MA_Theta_Exp,3.0.7,60.16763907767768,
video/Experiment/zh_sp01_Ti_Ge_2_NVocInAudio_GlobalThetaInVideo.avi,vocoded,plusVideo,sp01,Ti,Ge,2,1,1,flow/blocks/NVocInAudio_GlobalThetaInVideo_B.csv,,,,,,,,,,,,,,,,,0,1,1,1,0,1,1,1,-0.35138888888888886,-0.11388888888888889,1,0,0,5.40156880003633,call3,-0.018055555555555554,0.2833333333333333,1,0,0,6.068305899971165,colour1,0.35138888888888886,0.13796296296296295,1,0,0,6.618169600027613,number2,True,True,True,24,4,2019_Nov_15_1559,MA_Theta_Exp,3.0.7,60.16763907767768,
video/Experiment/zh_sp01_Un_Gr_1_NVocInAudio_GlobalThetaInVideo.avi,vocoded,plusVideo,sp01,Un,Gr,1,1,1,flow/blocks/NVocInAudio_GlobalThetaInVideo_B.csv,,,,,,,,,,,,,,,,,0,1,1,1,0,2,2,20,-0.3472222222222222,-0.09583333333333334,1,0,0,5.2240356000256725,call3,0.05,0.08888888888888889,1,0,0,5.756684499967378,colour2,0.425,0.37916666666666665,1,0,0,6.257050400017761,number1,False,True,True,24,4,2019_Nov_15_1559,MA_Theta_Exp,3.0.7,60.16763907767768,
video/Experiment/zh_sp07_Un_Ge_2_NVocInAudio_GlobalThetaInVideo.avi,vocoded,plusVideo,sp07,Un,Ge,2,1,1,flow/blocks/NVocInAudio_GlobalThetaInVideo_B.csv,,,,,,,,,,,,,,,,,0,1,1,1,0,3,3,17,-0.3819444444444444,-0.33287037037037037,1,0,0,5.178417299990542,call4,-0.001388888888888889,0.2875,1,0,0,5.77791399997659,colour1,0.4263888888888889,0.08935185185185185,1,0,0,6.413453699962702,number2,True,True,True,24,4,2019_Nov_15_1559,MA_Theta_Exp,3.0.7,60.16763907767768,
video/Experiment/zh_sp01_Un_Ge_3_NVocInAudio_GlobalThetaInVideo.avi,vocoded,plusVideo,sp01,Un,Ge,3,1,1,flow/blocks/NVocInAudio_GlobalThetaInVideo_B.csv,,,,,,,,,,,,,,,,,0,1,1,1,0,4,4,18,-0.4013888888888889,-0.3023148148148148,1,0,0,5.2889326000004075,call4,-0.02638888888888889,0.36666666666666664,1,0,0,6.002084099978674,colour1,0.375,-0.07222222222222222,1,0,0,6.734078100009356,number3,True,True,True,24,4,2019_Nov_15_1559,MA_Theta_Exp,3.0.7,60.16763907767768,
video/Experiment/zh_sp07_Ti_Gr_2_NVocInAudio_GlobalThetaInVideo.avi,vocoded,plusVideo,sp07,Ti,Gr,2,1,1,flow/blocks/NVocInAudio_GlobalThetaInVideo_B.csv,,,,,,,,,,,,,,,,,0,1,1,1,0,5,5,5,-0.4625,-0.1162037037037037,1,0,0,4.3623520999681205,call3,-0.06805555555555555,0.11666666666666667,1,0,0,4.861956500040833,colour2,0.4444444444444444,0.0837962962962963,1,0,0,5.345612799981609,number2,True,True,True,24,4,2019_Nov_15_1559,MA_Theta_Exp,3.0.7,60.16763907767768,
video/Experiment/zh_sp01_Un_Ro_2_NVocInAudio_GlobalThetaInVideo.avi,vocoded,plusVideo,sp01,Un,Ro,2,1,1,flow/blocks/NVocInAudio_GlobalThetaInVideo_B.csv,,,,,,,,,,,,,,,,,0,1,1,1,0,6,6,25,-0.325,-0.10138888888888889,1,0,0,5.638594100018963,call3,-0.044444444444444446,-0.10925925925925926,1,0,0,6.138973100052681,colour3,0.41805555555555557,0.06666666666666667,1,0,0,6.671533500018995,number2,False,True,True,24,4,2019_Nov_15_1559,MA_Theta_Exp,3.0.7,60.16763907767768,
video/Experiment/zh_sp01_Ti_Ro_3_NVocInAudio_GlobalThetaInVideo.avi,vocoded,plusVideo,sp01,Ti,Ro,3,1,1,flow/blocks/NVocInAudio_GlobalThetaInVideo_B.csv,,,,,,,,,,,,,,,,,0,1,1,1,0,7,7,10,-0.37916666666666665,-0.09675925925925925,1,0,0,4.955149299988989,call3,-0.011111111111111112,-0.1398148148148148,1,0,0,5.364263599971309,colour3,0.39444444444444443,-0.07083333333333333,1,0,0,5.864872100006323,number3,True,True,True,24,4,2019_Nov_15_1559,MA_Theta_Exp,3.0.7,60.16763907767768,
video/Experiment/zh_sp01_Un_Ge_4_NVocInAudio_GlobalThetaInVideo.avi,vocoded,plusVideo,sp01,Un,Ge,4,1,1,flow/blocks/NVocInAudio_GlobalThetaInVideo_B.csv,,,,,,,,,,,,,,,,,0,1,1,1,0,8,8,19,-0.48333333333333334,-0.31342592592592594,1,0,0,5.520176000020001,call4,-0.011111111111111112,0.30972222222222223,1,0,0,6.370273599983193,colour1,0.4083333333333333,-0.27175925925925926,1,0,0,7.002265100018121,number4,True,True,True,24,4,2019_Nov_15_1559,MA_Theta_Exp,3.0.7,60.16763907767768,
video/Experiment/zh_sp07_Un_We_2_NVocInAudio_GlobalThetaInVideo.avi,vocoded,plusVideo,sp07,Un,We,2,1,1,flow/blocks/NVocInAudio_GlobalThetaInVideo_B.csv,,,,,,,,,,,,,,,,,0,1,1,1,0,9,9,29,-0.3819444444444444,-0.3537037037037037,1,0,0,4.583903399994597,call4,0.05555555555555555,-0.3287037037037037,1,0,0,5.051355500007048,colour4,0.37083333333333335,0.12361111111111112,1,0,0,5.639963400026318,number2,True,True,True,24,4,2019_Nov_15_1559,MA_Theta_Exp,3.0.7,60.16763907767768,
video/Experiment/zh_sp07_Ti_Gr_4_NVocInAudio_GlobalThetaInVideo.avi,vocoded,plusVideo,sp07,Ti,Gr,4,1,1,flow/blocks/NVocInAudio_GlobalThetaInVideo_B.csv,,,,,,,,,,,,,,,,,0,1,1,1,0,10,10,7,-0.3611111111111111,-0.12638888888888888,1,0,0,4.988276800024323,call3,-0.018055555555555554,0.13935185185185187,1,0,0,5.635172299982514,colour2,0.39444444444444443,-0.26805555555555555,1,0,0,6.369263699976727,number4,True,True,True,24,4,2019_Nov_15_1559,MA_Theta_Exp,3.0.7,60.16763907767768,
video/Experiment/zh_sp01_Ti_Ro_4_NVocInAudio_GlobalThetaInVideo.avi,vocoded,plusVideo,sp01,Ti,Ro,4,1,1,flow/blocks/NVocInAudio_GlobalThetaInVideo_B.csv,,,,,,,,,,,,,,,,,0,1,1,1,0,11,11,11,-0.3638888888888889,-0.09953703703703703,1,0,0,5.340174199955072,call3,-0.075,-0.10787037037037037,1,0,0,5.873458300018683,colour3,0.3736111111111111,-0.274537037037037,1,0,0,6.441660399956163,number4,True,True,True,24,4,2019_Nov_15_1559,MA_Theta_Exp,3.0.7,60.16763907767768,
video/Experiment/zh_sp07_Ti_We_1_NVocInAudio_GlobalThetaInVideo.avi,vocoded,plusVideo,sp07,Ti,We,1,1,1,flow/blocks/NVocInAudio_GlobalThetaInVideo_B.csv,,,,,,,,,,,,,,,,,0,1,1,1,0,12,12,12,-0.3472222222222222,-0.09537037037037037,1,0,0,4.628665799973533,call3,-0.008333333333333333,-0.34444444444444444,1,0,0,5.326181500044186,colour4,0.37222222222222223,0.35555555555555557,1,0,0,5.9434825999778695,number1,True,True,True,24,4,2019_Nov_15_1559,MA_Theta_Exp,3.0.7,60.16763907767768,
video/Experiment/zh_sp07_Ti_We_4_NVocInAudio_GlobalThetaInVideo.avi,vocoded,plusVideo,sp07,Ti,We,4,1,1,flow/blocks/NVocInAudio_GlobalThetaInVideo_B.csv,,,,,,,,,,,,,,,,,0,1,1,1,0,13,13,15,-0.43194444444444446,-0.04861111111111111,1,0,0,4.515595899953041,call3,0.09583333333333334,-0.3388888888888889,1,0,0,5.150221000018064,colour4,0.44027777777777777,-0.2902777777777778,1,0,0,6.26504179998301,number4,True,True,True,24,4,2019_Nov_15_1559,MA_Theta_Exp,3.0.7,60.16763907767768,
video/Experiment/zh_sp07_Un_Gr_2_NVocInAudio_GlobalThetaInVideo.avi,vocoded,plusVideo,sp07,Un,Gr,2,1,1,flow/blocks/NVocInAudio_GlobalThetaInVideo_B.csv,,,,,,,,,,,,,,,,,0,1,1,1,0,14,14,21,-0.36666666666666664,-0.3398148148148148,1,0,0,4.682935199991334,call4,0.06388888888888888,0.10694444444444444,1,0,0,5.336932200007141,colour2,0.3958333333333333,0.10833333333333334,1,0,0,5.783558000053745,number2,True,True,True,24,4,2019_Nov_15_1559,MA_Theta_Exp,3.0.7,60.16763907767768,
