videoFile,condition,video,speaker,callSign,colour,number,seq,id,block,exp.thisRepN,exp.thisTrialN,exp.thisN,exp.thisIndex,training.thisRepN,training.thisTrialN,training.thisN,training.thisIndex,firstHalf.thisRepN,firstHalf.thisTrialN,firstHalf.thisN,firstHalf.thisIndex,blocksA.thisRepN,blocksA.thisTrialN,blocksA.thisN,blocksA.thisIndex,mouseClickOnCall.x,mouseClickOnCall.y,mouseClickOnCall.leftButton,mouseClickOnCall.midButton,mouseClickOnCall.rightButton,mouseClickOnCall.time,mouseClickOnCall.clicked_name,mouseClickOnColour.x,mouseClickOnColour.y,mouseClickOnColour.leftButton,mouseClickOnColour.midButton,mouseClickOnColour.rightButton,mouseClickOnColour.time,mouseClickOnColour.clicked_name,mouseClickOnNumber.x,mouseClickOnNumber.y,mouseClickOnNumber.leftButton,mouseClickOnNumber.midButton,mouseClickOnNumber.rightButton,mouseClickOnNumber.time,mouseClickOnNumber.clicked_name,callSignCorrect,colourCorrect,numberCorrect,participant,order,date,expName,psychopyVersion,frameRate,
video/Training/zh_sp01_Ad_We_4_NVocInAudio_NoVideo.avi,vocoded,noVideo,sp01,Ad,We,4,,,,,,,,0,0,0,0,,,,,,,,,-0.41574074074074074,0.30324074074074076,1,0,0,6.322064400068484,call1,0.020370370370370372,-0.3592592592592593,1,0,0,7.688757300027646,colour4,0.4009259259259259,-0.32314814814814813,1,0,0,8.588006499921903,number4,True,True,True,27,2,2019_Nov_18_1002,MA_Theta_Exp,3.0.7,59.973108049072366,
video/Training/zh_sp07_Ad_Ge_3_NVocInAudio_NoVideo.avi,vocoded,noVideo,sp07,Ad,Ge,3,,,,,,,,0,1,1,1,,,,,,,,,-0.3976851851851852,0.3476851851851852,1,0,0,5.107902999967337,call1,0.020370370370370372,0.3296296296296296,1,0,0,6.141233999980614,colour1,0.4078703703703704,-0.06481481481481481,1,0,0,7.025113400071859,number3,True,True,True,27,2,2019_Nov_18_1002,MA_Theta_Exp,3.0.7,59.973108049072366,
video/Training/zh_sp01_Dr_Ro_3_NVocInAudio_GlobalThetaInVideo.avi,vocoded,plusVideo,sp01,Dr,Ro,3,,,,,,,,0,2,2,2,,,,,,,,,-0.42268518518518516,0.11435185185185186,1,0,0,6.343303199973889,call2,0.060648148148148145,0.26851851851851855,1,0,0,8.093458899995312,colour1,0.3578703703703704,-0.08842592592592592,1,0,0,8.99373220000416,number3,True,False,True,27,2,2019_Nov_18_1002,MA_Theta_Exp,3.0.7,59.973108049072366,
video/Training/zh_sp07_Dr_Gr_4_NVocInAudio_GlobalThetaInVideo.avi,vocoded,plusVideo,sp07,Dr,Gr,4,,,,,,,,0,3,3,3,,,,,,,,,-0.4324074074074074,0.12268518518518519,1,0,0,6.166912300046533,call2,0.010648148148148148,0.08935185185185185,1,0,0,6.947333900025114,colour2,0.4162037037037037,-0.3189814814814815,1,0,0,8.367580599966459,number4,True,True,True,27,2,2019_Nov_18_1002,MA_Theta_Exp,3.0.7,59.973108049072366,
video/Training/zh_sp01_Ti_Gr_2_NoThetaInAudio_NoVideo.avi,noTheta,noVideo,sp01,Ti,Gr,2,,,,,,,,0,4,4,4,,,,,,,,,0.3731481481481482,0.13935185185185187,1,0,0,5.826029899995774,call1,-0.01712962962962963,0.3074074074074074,1,0,0,10.025260200025514,colour1,0.3925925925925926,0.09351851851851851,1,0,0,10.758471900015138,number2,False,False,True,27,2,2019_Nov_18_1002,MA_Theta_Exp,3.0.7,59.973108049072366,
video/Training/zh_sp07_Ti_Ro_1_NoThetaInAudio_NoVideo.avi,noTheta,noVideo,sp07,Ti,Ro,1,,,,,,,,0,5,5,5,,,,,,,,,-0.4212962962962963,0.09907407407407408,1,0,0,8.905166500015184,call2,-0.02962962962962963,-0.1162037037037037,1,0,0,9.572408200008795,colour3,0.34675925925925927,0.3143518518518518,1,0,0,10.537673500017263,number1,False,True,True,27,2,2019_Nov_18_1002,MA_Theta_Exp,3.0.7,59.973108049072366,
video/Training/zh_sp01_Un_Ge_1_NoThetaInAudio_GlobalThetaInVideo.avi,noTheta,plusVideo,sp01,Un,Ge,1,,,,,,,,0,6,6,6,,,,,,,,,-0.3976851851851852,-0.28425925925925927,1,0,0,6.118812500033528,call4,-0.04212962962962963,0.31157407407407406,1,0,0,7.205345800030045,colour1,0.37175925925925923,0.3226851851851852,1,0,0,8.057434899965301,number1,True,True,True,27,2,2019_Nov_18_1002,MA_Theta_Exp,3.0.7,59.973108049072366,
video/Training/zh_sp07_Un_We_2_NoThetaInAudio_GlobalThetaInVideo.avi,noTheta,plusVideo,sp07,Un,We,2,,,,,,,,0,7,7,7,,,,,,,,,-0.4185185185185185,-0.2953703703703704,1,0,0,5.1018615999491885,call4,0.000925925925925926,-0.29259259259259257,1,0,0,6.017997800023295,colour4,0.3787037037037037,0.29768518518518516,1,0,0,6.869311999995261,number1,True,True,False,27,2,2019_Nov_18_1002,MA_Theta_Exp,3.0.7,59.973108049072366,
video/Training/zh_sp01_Ad_Ge_1_GlobalTheta_NoVideo.avi,globalTheta,noVideo,sp01,Ad,Ge,1,,,,,,,,0,8,8,8,,,,,,,,,-0.3990740740740741,0.3194444444444444,1,0,0,5.4131442999932915,call1,0.06342592592592593,0.31527777777777777,1,0,0,6.562536500045098,colour1,0.4439814814814815,0.30972222222222223,1,0,0,7.429216000018641,number1,True,True,True,27,2,2019_Nov_18_1002,MA_Theta_Exp,3.0.7,59.973108049072366,
video/Training/zh_sp07_Ad_Ro_3_GlobalTheta_NoVideo.avi,globalTheta,noVideo,sp07,Ad,Ro,3,,,,,,,,0,9,9,9,,,,,,,,,-0.412962962962963,0.3,1,0,0,5.929429500014521,call1,0.03148148148148148,0.2777777777777778,1,0,0,7.179292400018312,colour1,0.40925925925925927,-0.2652777777777778,1,0,0,8.046231299987994,number4,True,False,False,27,2,2019_Nov_18_1002,MA_Theta_Exp,3.0.7,59.973108049072366,
video/Experiment/zh_sp07_Dr_Gr_2_NoThetaInAudio_GlobalThetaInVideo.avi,noTheta,plusVideo,sp07,Dr,Gr,2,0,3,flow/blocks/NoThetaInAudio_GlobalThetaInVideo_A.csv,,,,,,,,,0,0,0,0,0,0,0,5,-0.36157407407407405,0.30277777777777776,1,0,0,4.636971400002949,call1,0.03564814814814815,0.08888888888888889,1,0,0,5.286929999943823,colour2,0.38842592592592595,0.08194444444444444,1,0,0,5.970237700035796,number2,False,True,True,27,2,2019_Nov_18_1002,MA_Theta_Exp,3.0.7,59.973108049072366,
video/Experiment/zh_sp01_Ti_Ge_1_NoThetaInAudio_GlobalThetaInVideo.avi,noTheta,plusVideo,sp01,Ti,Ge,1,0,3,flow/blocks/NoThetaInAudio_GlobalThetaInVideo_A.csv,,,,,,,,,0,0,0,0,0,1,1,16,-0.4824074074074074,-0.11666666666666667,1,0,0,5.535823100013658,call3,-0.024074074074074074,0.30694444444444446,1,0,0,6.435951699968427,colour1,0.4148148148148148,0.30694444444444446,1,0,0,7.118832999956794,number1,True,True,True,27,2,2019_Nov_18_1002,MA_Theta_Exp,3.0.7,59.973108049072366,
video/Experiment/zh_sp07_Dr_Ro_2_NoThetaInAudio_GlobalThetaInVideo.avi,noTheta,plusVideo,sp07,Dr,Ro,2,0,3,flow/blocks/NoThetaInAudio_GlobalThetaInVideo_A.csv,,,,,,,,,0,0,0,0,0,2,2,9,-0.41712962962962963,0.3472222222222222,1,0,0,4.778291299939156,call1,0.05648148148148148,-0.06388888888888888,1,0,0,5.511386900092475,colour3,0.43425925925925923,0.325,1,0,0,6.314095100038685,number1,False,True,False,27,2,2019_Nov_18_1002,MA_Theta_Exp,3.0.7,59.973108049072366,
video/Experiment/zh_sp01_Un_Ro_1_NoThetaInAudio_GlobalThetaInVideo.avi,noTheta,plusVideo,sp01,Un,Ro,1,0,3,flow/blocks/NoThetaInAudio_GlobalThetaInVideo_A.csv,,,,,,,,,0,0,0,0,0,3,3,24,-0.37824074074074077,-0.34305555555555556,1,0,0,5.326017100014724,call4,-0.01712962962962963,-0.13333333333333333,1,0,0,5.974504900048487,colour3,0.40370370370370373,0.2986111111111111,1,0,0,6.9905490999808535,number1,True,True,True,27,2,2019_Nov_18_1002,MA_Theta_Exp,3.0.7,59.973108049072366,
video/Experiment/zh_sp07_Un_We_3_NoThetaInAudio_GlobalThetaInVideo.avi,noTheta,plusVideo,sp07,Un,We,3,0,3,flow/blocks/NoThetaInAudio_GlobalThetaInVideo_A.csv,,,,,,,,,0,0,0,0,0,4,4,14,-0.37407407407407406,-0.3236111111111111,1,0,0,5.073134100064635,call4,-0.014351851851851852,-0.33611111111111114,1,0,0,5.813538599992171,colour4,0.4287037037037037,-0.0875,1,0,0,6.58520959992893,number3,True,True,True,27,2,2019_Nov_18_1002,MA_Theta_Exp,3.0.7,59.973108049072366,
video/Experiment/zh_sp01_Dr_Ro_4_NoThetaInAudio_GlobalThetaInVideo.avi,noTheta,plusVideo,sp01,Dr,Ro,4,0,3,flow/blocks/NoThetaInAudio_GlobalThetaInVideo_A.csv,,,,,,,,,0,0,0,0,0,5,5,27,-0.4212962962962963,-0.29444444444444445,1,0,0,5.272535299998708,call4,-0.011574074074074073,-0.09722222222222222,1,0,0,5.972353299963288,colour3,0.449537037037037,-0.325,1,0,0,6.610011800075881,number4,False,True,True,27,2,2019_Nov_18_1002,MA_Theta_Exp,3.0.7,59.973108049072366,
video/Experiment/zh_sp01_Ad_Ro_4_NoThetaInAudio_GlobalThetaInVideo.avi,noTheta,plusVideo,sp01,Ad,Ro,4,0,3,flow/blocks/NoThetaInAudio_GlobalThetaInVideo_A.csv,,,,,,,,,0,0,0,0,0,6,6,11,-0.41574074074074074,0.35,1,0,0,5.565971700008959,call1,0.0412037037037037,-0.1388888888888889,1,0,0,6.365549899986945,colour3,0.4300925925925926,-0.31527777777777777,1,0,0,7.000725700054318,number4,True,True,True,27,2,2019_Nov_18_1002,MA_Theta_Exp,3.0.7,59.973108049072366,
video/Experiment/zh_sp07_Ti_Ro_3_NoThetaInAudio_GlobalThetaInVideo.avi,noTheta,plusVideo,sp07,Ti,Ro,3,0,3,flow/blocks/NoThetaInAudio_GlobalThetaInVideo_A.csv,,,,,,,,,0,0,0,0,0,7,7,10,-0.36157407407407405,-0.12916666666666668,1,0,0,4.602750099962577,call3,0.037037037037037035,-0.12916666666666668,1,0,0,5.2523143999278545,colour3,0.4787037037037037,-0.09444444444444444,1,0,0,5.905166899901815,number3,True,True,True,27,2,2019_Nov_18_1002,MA_Theta_Exp,3.0.7,59.973108049072366,
video/Experiment/zh_sp07_Dr_Ge_1_NoThetaInAudio_GlobalThetaInVideo.avi,noTheta,plusVideo,sp07,Dr,Ge,1,0,3,flow/blocks/NoThetaInAudio_GlobalThetaInVideo_A.csv,,,,,,,,,0,0,0,0,0,8,8,0,-0.4351851851851852,-0.2722222222222222,1,0,0,4.668510899995454,call4,0.024537037037037038,0.35,1,0,0,5.564988600090146,colour1,0.4217592592592593,0.3402777777777778,1,0,0,6.214608100010082,number1,False,True,True,27,2,2019_Nov_18_1002,MA_Theta_Exp,3.0.7,59.973108049072366,
video/Experiment/zh_sp01_Un_Ro_3_NoThetaInAudio_GlobalThetaInVideo.avi,noTheta,plusVideo,sp01,Un,Ro,3,0,3,flow/blocks/NoThetaInAudio_GlobalThetaInVideo_A.csv,,,,,,,,,0,0,0,0,0,9,9,26,-0.4199074074074074,-0.3055555555555556,1,0,0,5.426208800054155,call4,-0.03796296296296296,-0.13333333333333333,1,0,0,6.292650999967009,colour3,0.4273148148148148,-0.10138888888888889,1,0,0,6.926969499909319,number3,True,True,True,27,2,2019_Nov_18_1002,MA_Theta_Exp,3.0.7,59.973108049072366,
video/Experiment/zh_sp01_Ad_We_2_NoThetaInAudio_GlobalThetaInVideo.avi,noTheta,plusVideo,sp01,Ad,We,2,0,3,flow/blocks/NoThetaInAudio_GlobalThetaInVideo_A.csv,,,,,,,,,0,0,0,0,0,10,10,29,-0.4726851851851852,0.3013888888888889,1,0,0,5.378517900011502,call1,0.006481481481481481,-0.30277777777777776,1,0,0,6.228338099899702,colour4,0.39675925925925926,0.06805555555555555,1,0,0,6.994752100086771,number2,True,True,True,27,2,2019_Nov_18_1002,MA_Theta_Exp,3.0.7,59.973108049072366,
video/Experiment/zh_sp01_Dr_Gr_3_NoThetaInAudio_GlobalThetaInVideo.avi,noTheta,plusVideo,sp01,Dr,Gr,3,0,3,flow/blocks/NoThetaInAudio_GlobalThetaInVideo_A.csv,,,,,,,,,0,0,0,0,0,11,11,6,-0.3976851851851852,-0.3125,1,0,0,5.290731800021604,call4,-0.02824074074074074,0.11666666666666667,1,0,0,5.975124099990353,colour2,0.32037037037037036,-0.10138888888888889,1,0,0,6.592209599912167,number3,False,True,True,27,2,2019_Nov_18_1002,MA_Theta_Exp,3.0.7,59.973108049072366,
video/Experiment/zh_sp01_Ad_Gr_2_NoThetaInAudio_GlobalThetaInVideo.avi,noTheta,plusVideo,sp01,Ad,Gr,2,0,3,flow/blocks/NoThetaInAudio_GlobalThetaInVideo_A.csv,,,,,,,,,0,0,0,0,0,12,12,21,-0.41435185185185186,0.2875,1,0,0,6.616304500028491,call1,0.006481481481481481,0.13055555555555556,1,0,0,7.432813000050373,colour2,0.44814814814814813,0.1111111111111111,1,0,0,8.037378099979833,number2,True,True,True,27,2,2019_Nov_18_1002,MA_Theta_Exp,3.0.7,59.973108049072366,
video/Experiment/zh_sp07_Ad_We_3_NoThetaInAudio_GlobalThetaInVideo.avi,noTheta,plusVideo,sp07,Ad,We,3,0,3,flow/blocks/NoThetaInAudio_GlobalThetaInVideo_A.csv,,,,,,,,,0,0,0,0,0,13,13,30,-0.3699074074074074,0.2791666666666667,1,0,0,4.6054465000052005,call1,0.04814814814814815,-0.3486111111111111,1,0,0,5.367274499963969,colour4,0.4300925925925926,-0.13194444444444445,1,0,0,5.917170700035058,number3,True,True,True,27,2,2019_Nov_18_1002,MA_Theta_Exp,3.0.7,59.973108049072366,
video/Experiment/zh_sp07_Ad_Gr_1_NoThetaInAudio_GlobalThetaInVideo.avi,noTheta,plusVideo,sp07,Ad,Gr,1,0,3,flow/blocks/NoThetaInAudio_GlobalThetaInVideo_A.csv,,,,,,,,,0,0,0,0,0,14,14,4,-0.42685185185185187,0.35,1,0,0,5.355202500009909,call1,0.02175925925925926,0.10972222222222222,1,0,0,6.054558799951337,colour2,0.39537037037037037,0.3263888888888889,1,0,0,6.808375300024636,number1,True,True,True,27,2,2019_Nov_18_1002,MA_Theta_Exp,3.0.7,59.973108049072366,
video/Experiment/zh_sp01_Un_We_1_NoThetaInAudio_GlobalThetaInVideo.avi,noTheta,plusVideo,sp01,Un,We,1,0,3,flow/blocks/NoThetaInAudio_GlobalThetaInVideo_A.csv,,,,,,,,,0,0,0,0,0,15,15,28,-0.4393518518518518,-0.31805555555555554,1,0,0,5.404047399992123,call4,-0.018518518518518517,-0.27361111111111114,1,0,0,6.088150199968368,colour4,0.41064814814814815,0.24305555555555555,1,0,0,6.870676100021228,number1,True,True,True,27,2,2019_Nov_18_1002,MA_Theta_Exp,3.0.7,59.973108049072366,
video/Experiment/zh_sp01_Ad_Ro_1_NoThetaInAudio_GlobalThetaInVideo.avi,noTheta,plusVideo,sp01,Ad,Ro,1,0,3,flow/blocks/NoThetaInAudio_GlobalThetaInVideo_A.csv,,,,,,,,,0,0,0,0,0,16,16,8,-0.3990740740740741,0.2638888888888889,1,0,0,5.307661199942231,call1,0.024537037037037038,-0.10694444444444444,1,0,0,5.974455400020815,colour3,0.38564814814814813,0.2833333333333333,1,0,0,6.609211300034076,number1,True,True,True,27,2,2019_Nov_18_1002,MA_Theta_Exp,3.0.7,59.973108049072366,
video/Experiment/zh_sp07_Ti_Ge_2_NoThetaInAudio_GlobalThetaInVideo.avi,noTheta,plusVideo,sp07,Ti,Ge,2,0,3,flow/blocks/NoThetaInAudio_GlobalThetaInVideo_A.csv,,,,,,,,,0,0,0,0,0,17,17,1,-0.43657407407407406,0.13055555555555556,1,0,0,4.775931200012565,call2,-0.01574074074074074,0.26944444444444443,1,0,0,6.072761100018397,colour1,0.4300925925925926,0.09722222222222222,1,0,0,6.689084699959494,number2,False,True,True,27,2,2019_Nov_18_1002,MA_Theta_Exp,3.0.7,59.973108049072366,
video/Experiment/zh_sp01_Dr_Ge_4_NoThetaInAudio_GlobalThetaInVideo.avi,noTheta,plusVideo,sp01,Dr,Ge,4,0,3,flow/blocks/NoThetaInAudio_GlobalThetaInVideo_A.csv,,,,,,,,,0,0,0,0,0,18,18,19,-0.4532407407407407,-0.325,1,0,0,6.054033899912611,call4,-0.02962962962962963,0.3263888888888889,1,0,0,6.870824100100435,colour1,0.3675925925925926,-0.33055555555555555,1,0,0,7.690822500037029,number4,False,True,True,27,2,2019_Nov_18_1002,MA_Theta_Exp,3.0.7,59.973108049072366,
video/Experiment/zh_sp07_Dr_We_2_NoThetaInAudio_GlobalThetaInVideo.avi,noTheta,plusVideo,sp07,Dr,We,2,0,3,flow/blocks/NoThetaInAudio_GlobalThetaInVideo_A.csv,,,,,,,,,0,0,0,0,0,19,19,13,-0.4185185185185185,-0.3125,1,0,0,4.972626699949615,call4,-0.05185185185185185,-0.3194444444444444,1,0,0,5.789510099915788,colour4,0.3509259259259259,0.07916666666666666,1,0,0,6.522478599916212,number2,False,True,True,27,2,2019_Nov_18_1002,MA_Theta_Exp,3.0.7,59.973108049072366,
video/Experiment/zh_sp01_Ad_Gr_3_NoThetaInAudio_GlobalThetaInVideo.avi,noTheta,plusVideo,sp01,Ad,Gr,3,0,3,flow/blocks/NoThetaInAudio_GlobalThetaInVideo_A.csv,,,,,,,,,0,0,0,0,0,20,20,22,-0.412962962962963,0.3194444444444444,1,0,0,5.783301900024526,call1,0.05648148148148148,0.11805555555555555,1,0,0,6.450934499967843,colour2,0.4425925925925926,-0.12222222222222222,1,0,0,7.050130399991758,number3,True,True,True,27,2,2019_Nov_18_1002,MA_Theta_Exp,3.0.7,59.973108049072366,
video/Experiment/zh_sp01_Ad_We_1_NoThetaInAudio_GlobalThetaInVideo.avi,noTheta,plusVideo,sp01,Ad,We,1,0,3,flow/blocks/NoThetaInAudio_GlobalThetaInVideo_A.csv,,,,,,,,,0,0,0,0,0,21,21,12,-0.4101851851851852,0.28194444444444444,1,0,0,6.116140000056475,call1,0.006481481481481481,-0.30416666666666664,1,0,0,6.984545400016941,colour4,0.4425925925925926,0.2513888888888889,1,0,0,7.86763490003068,number1,True,True,True,27,2,2019_Nov_18_1002,MA_Theta_Exp,3.0.7,59.973108049072366,
video/Experiment/zh_sp01_Ti_Ro_2_NoThetaInAudio_GlobalThetaInVideo.avi,noTheta,plusVideo,sp01,Ti,Ro,2,0,3,flow/blocks/NoThetaInAudio_GlobalThetaInVideo_A.csv,,,,,,,,,0,0,0,0,0,22,22,25,-0.425462962962963,-0.11388888888888889,1,0,0,5.390638599987142,call3,0.04675925925925926,-0.10416666666666667,1,0,0,6.523765599937178,colour3,0.3912037037037037,0.11666666666666667,1,0,0,7.090175200020894,number2,True,True,True,27,2,2019_Nov_18_1002,MA_Theta_Exp,3.0.7,59.973108049072366,
video/Experiment/zh_sp07_Ti_Gr_4_NoThetaInAudio_GlobalThetaInVideo.avi,noTheta,plusVideo,sp07,Ti,Gr,4,0,3,flow/blocks/NoThetaInAudio_GlobalThetaInVideo_A.csv,,,,,,,,,0,0,0,0,0,23,23,7,-0.44212962962962965,-0.1361111111111111,1,0,0,4.659136799979024,call3,-0.033796296296296297,0.10416666666666667,1,0,0,5.322295500081964,colour2,0.43703703703703706,-0.32222222222222224,1,0,0,5.922665600082837,number4,True,True,True,27,2,2019_Nov_18_1002,MA_Theta_Exp,3.0.7,59.973108049072366,
video/Experiment/zh_sp07_Un_Ge_3_NoThetaInAudio_GlobalThetaInVideo.avi,noTheta,plusVideo,sp07,Un,Ge,3,0,3,flow/blocks/NoThetaInAudio_GlobalThetaInVideo_A.csv,,,,,,,,,0,0,0,0,0,24,24,2,-0.3921296296296296,-0.3125,1,0,0,4.594706899952143,call4,0.024537037037037038,0.31805555555555554,1,0,0,6.193724900018424,colour1,0.3912037037037037,-0.11805555555555555,1,0,0,6.796975300065242,number3,True,True,True,27,2,2019_Nov_18_1002,MA_Theta_Exp,3.0.7,59.973108049072366,
video/Experiment/zh_sp01_Ti_Ge_4_NoThetaInAudio_GlobalThetaInVideo.avi,noTheta,plusVideo,sp01,Ti,Ge,4,0,3,flow/blocks/NoThetaInAudio_GlobalThetaInVideo_A.csv,,,,,,,,,0,0,0,0,0,25,25,3,-0.42824074074074076,-0.12083333333333333,1,0,0,5.306164799956605,call3,-0.0032407407407407406,0.3347222222222222,1,0,0,6.089129099971615,colour1,0.39537037037037037,-0.2916666666666667,1,0,0,6.772606400074437,number4,True,True,True,27,2,2019_Nov_18_1002,MA_Theta_Exp,3.0.7,59.973108049072366,
video/Experiment/zh_sp07_Un_We_4_NoThetaInAudio_GlobalThetaInVideo.avi,noTheta,plusVideo,sp07,Un,We,4,0,3,flow/blocks/NoThetaInAudio_GlobalThetaInVideo_A.csv,,,,,,,,,0,0,0,0,0,26,26,15,-0.3921296296296296,-0.30694444444444446,1,0,0,4.608821100089699,call4,0.0023148148148148147,-0.30833333333333335,1,0,0,5.158530400018208,colour4,0.3912037037037037,-0.33611111111111114,1,0,0,5.708435100037605,number4,True,True,True,27,2,2019_Nov_18_1002,MA_Theta_Exp,3.0.7,59.973108049072366,
video/Experiment/zh_sp07_Un_Ge_2_NoThetaInAudio_GlobalThetaInVideo.avi,noTheta,plusVideo,sp07,Un,Ge,2,0,3,flow/blocks/NoThetaInAudio_GlobalThetaInVideo_A.csv,,,,,,,,,0,0,0,0,0,27,27,17,-0.37546296296296294,-0.2916666666666667,1,0,0,4.802317399997264,call4,0.020370370370370372,0.28055555555555556,1,0,0,5.75277530006133,colour1,0.4148148148148148,0.0763888888888889,1,0,0,6.368978100013919,number2,True,True,True,27,2,2019_Nov_18_1002,MA_Theta_Exp,3.0.7,59.973108049072366,
video/Experiment/zh_sp07_Dr_Gr_4_NoThetaInAudio_GlobalThetaInVideo.avi,noTheta,plusVideo,sp07,Dr,Gr,4,0,3,flow/blocks/NoThetaInAudio_GlobalThetaInVideo_A.csv,,,,,,,,,0,0,0,0,0,28,28,23,-0.42962962962962964,-0.3416666666666667,1,0,0,4.931816299911588,call4,-0.047685185185185185,0.3194444444444444,1,0,0,5.864902300061658,colour1,0.38842592592592595,-0.15694444444444444,1,0,0,6.520223699975759,number3,False,False,False,27,2,2019_Nov_18_1002,MA_Theta_Exp,3.0.7,59.973108049072366,
video/Experiment/zh_sp01_Un_Gr_1_NoThetaInAudio_GlobalThetaInVideo.avi,noTheta,plusVideo,sp01,Un,Gr,1,0,3,flow/blocks/NoThetaInAudio_GlobalThetaInVideo_A.csv,,,,,,,,,0,0,0,0,0,29,29,20,-0.39490740740740743,-0.3111111111111111,1,0,0,5.867012800066732,call4,-0.0032407407407407406,0.09861111111111111,1,0,0,6.632543300045654,colour2,0.399537037037037,0.28055555555555556,1,0,0,7.6326477000257,number1,True,True,True,27,2,2019_Nov_18_1002,MA_Theta_Exp,3.0.7,59.973108049072366,
video/Experiment/zh_sp07_Ti_We_4_NoThetaInAudio_GlobalThetaInVideo.avi,noTheta,plusVideo,sp07,Ti,We,4,0,3,flow/blocks/NoThetaInAudio_GlobalThetaInVideo_A.csv,,,,,,,,,0,0,0,0,0,30,30,31,-0.42962962962962964,-0.15833333333333333,1,0,0,4.72827820002567,call3,0.038425925925925926,0.10972222222222222,1,0,0,5.627183299977332,colour2,0.34675925925925927,-0.275,1,0,0,6.326854999992065,number4,True,False,True,27,2,2019_Nov_18_1002,MA_Theta_Exp,3.0.7,59.973108049072366,
video/Experiment/zh_sp07_Ti_Ge_3_NoThetaInAudio_GlobalThetaInVideo.avi,noTheta,plusVideo,sp07,Ti,Ge,3,0,3,flow/blocks/NoThetaInAudio_GlobalThetaInVideo_A.csv,,,,,,,,,0,0,0,0,0,31,31,18,-0.39351851851851855,-0.10416666666666667,1,0,0,4.425652700010687,call3,-0.06296296296296296,0.325,1,0,0,5.039053300046362,colour1,0.4009259259259259,-0.16944444444444445,1,0,0,5.626232299953699,number3,True,True,True,27,2,2019_Nov_18_1002,MA_Theta_Exp,3.0.7,59.973108049072366,
video/Experiment/zh_sp01_Ad_We_4_GlobalTheta_NoVideo.avi,globalTheta,noVideo,sp01,Ad,We,4,1,5,flow/blocks/GlobalTheta_NoVideo_B.csv,,,,,,,,,0,1,1,1,0,0,0,31,-0.42268518518518516,0.3472222222222222,1,0,0,5.26433079992421,call1,0.014814814814814815,0.11944444444444445,1,0,0,6.214751800056547,colour2,0.45925925925925926,-0.34305555555555556,1,0,0,6.998428700026125,number4,True,False,True,27,2,2019_Nov_18_1002,MA_Theta_Exp,3.0.7,59.973108049072366,
video/Experiment/zh_sp07_Dr_Ro_1_GlobalTheta_NoVideo.avi,globalTheta,noVideo,sp07,Dr,Ro,1,1,5,flow/blocks/GlobalTheta_NoVideo_B.csv,,,,,,,,,0,1,1,1,0,1,1,24,-0.412962962962963,0.16527777777777777,1,0,0,4.6058686000760645,call2,0.053703703703703705,-0.12222222222222222,1,0,0,5.254683800041676,colour3,0.45787037037037037,0.30972222222222223,1,0,0,5.855250000022352,number1,True,True,True,27,2,2019_Nov_18_1002,MA_Theta_Exp,3.0.7,59.973108049072366,
video/Experiment/zh_sp01_Un_Ro_4_GlobalTheta_NoVideo.avi,globalTheta,noVideo,sp01,Un,Ro,4,1,5,flow/blocks/GlobalTheta_NoVideo_B.csv,,,,,,,,,0,1,1,1,0,2,2,27,-0.44351851851851853,-0.3541666666666667,1,0,0,5.176295800018124,call4,-0.004629629629629629,-0.12361111111111112,1,0,0,5.942647899966687,colour3,0.48842592592592593,-0.34444444444444444,1,0,0,6.509662299999036,number4,True,True,True,27,2,2019_Nov_18_1002,MA_Theta_Exp,3.0.7,59.973108049072366,
video/Experiment/zh_sp07_Ti_We_2_GlobalTheta_NoVideo.avi,globalTheta,noVideo,sp07,Ti,We,2,1,5,flow/blocks/GlobalTheta_NoVideo_B.csv,,,,,,,,,0,1,1,1,0,3,3,29,-0.43657407407407406,-0.12638888888888888,1,0,0,4.593939899932593,call3,0.014814814814814815,0.10416666666666667,1,0,0,5.260857000015676,colour2,0.36342592592592593,0.2791666666666667,1,0,0,6.21028350002598,number1,True,False,False,27,2,2019_Nov_18_1002,MA_Theta_Exp,3.0.7,59.973108049072366,
video/Experiment/zh_sp01_Ad_Ge_3_GlobalTheta_NoVideo.avi,globalTheta,noVideo,sp01,Ad,Ge,3,1,5,flow/blocks/GlobalTheta_NoVideo_B.csv,,,,,,,,,0,1,1,1,0,4,4,18,-0.3574074074074074,0.30833333333333335,1,0,0,5.0190566999372095,call1,0.01898148148148148,0.3236111111111111,1,0,0,5.835166500066407,colour1,0.3787037037037037,-0.07916666666666666,1,0,0,6.485073399962857,number3,True,True,True,27,2,2019_Nov_18_1002,MA_Theta_Exp,3.0.7,59.973108049072366,
video/Experiment/zh_sp07_Ti_Gr_1_GlobalTheta_NoVideo.avi,globalTheta,noVideo,sp07,Ti,Gr,1,1,5,flow/blocks/GlobalTheta_NoVideo_B.csv,,,,,,,,,0,1,1,1,0,5,5,4,-0.4476851851851852,-0.09861111111111111,1,0,0,4.452787499991246,call3,-0.06851851851851852,0.075,1,0,0,5.002382399979979,colour2,0.39675925925925926,0.31805555555555554,1,0,0,5.624501699930988,number1,True,True,True,27,2,2019_Nov_18_1002,MA_Theta_Exp,3.0.7,59.973108049072366,
video/Experiment/zh_sp01_Un_Gr_4_GlobalTheta_NoVideo.avi,globalTheta,noVideo,sp01,Un,Gr,4,1,5,flow/blocks/GlobalTheta_NoVideo_B.csv,,,,,,,,,0,1,1,1,0,6,6,23,-0.3907407407407407,-0.12777777777777777,1,0,0,4.778701099916361,call3,-0.05185185185185185,0.12222222222222222,1,0,0,5.310046600061469,colour2,0.3425925925925926,-0.30972222222222223,1,0,0,5.975989200058393,number4,False,True,True,27,2,2019_Nov_18_1002,MA_Theta_Exp,3.0.7,59.973108049072366,
video/Experiment/zh_sp01_Ad_Gr_4_GlobalTheta_NoVideo.avi,globalTheta,noVideo,sp01,Ad,Gr,4,1,5,flow/blocks/GlobalTheta_NoVideo_B.csv,,,,,,,,,0,1,1,1,0,7,7,7,-0.4046296296296296,0.32916666666666666,1,0,0,5.422875899937935,call1,-0.010185185185185186,0.11388888888888889,1,0,0,5.907354699913412,colour2,0.46620370370370373,-0.2986111111111111,1,0,0,6.774247800000012,number4,True,True,True,27,2,2019_Nov_18_1002,MA_Theta_Exp,3.0.7,59.973108049072366,
video/Experiment/zh_sp07_Dr_Ro_3_GlobalTheta_NoVideo.avi,globalTheta,noVideo,sp07,Dr,Ro,3,1,5,flow/blocks/GlobalTheta_NoVideo_B.csv,,,,,,,,,0,1,1,1,0,8,8,26,-0.40324074074074073,-0.32222222222222224,1,0,0,4.553789100027643,call4,0.0412037037037037,0.3111111111111111,1,0,0,5.387412499985658,colour1,0.41064814814814815,-0.16111111111111112,1,0,0,6.3042451000073925,number3,False,False,True,27,2,2019_Nov_18_1002,MA_Theta_Exp,3.0.7,59.973108049072366,
video/Experiment/zh_sp07_Ti_We_3_GlobalTheta_NoVideo.avi,globalTheta,noVideo,sp07,Ti,We,3,1,5,flow/blocks/GlobalTheta_NoVideo_B.csv,,,,,,,,,0,1,1,1,0,9,9,30,-0.4074074074074074,-0.12916666666666668,1,0,0,4.545088400016539,call3,0.024537037037037038,0.13194444444444445,1,0,0,5.13979859999381,colour2,0.3731481481481482,-0.1638888888888889,1,0,0,5.689911099965684,number3,True,False,True,27,2,2019_Nov_18_1002,MA_Theta_Exp,3.0.7,59.973108049072366,
video/Experiment/zh_sp01_Un_Gr_3_GlobalTheta_NoVideo.avi,globalTheta,noVideo,sp01,Un,Gr,3,1,5,flow/blocks/GlobalTheta_NoVideo_B.csv,,,,,,,,,0,1,1,1,0,10,10,6,-0.3990740740740741,-0.11805555555555555,1,0,0,4.864525099983439,call3,0.006481481481481481,0.059722222222222225,1,0,0,5.513910199981183,colour2,0.3398148148148148,-0.125,1,0,0,6.0648161000572145,number3,False,True,True,27,2,2019_Nov_18_1002,MA_Theta_Exp,3.0.7,59.973108049072366,
video/Experiment/zh_sp07_Ti_Ro_4_GlobalTheta_NoVideo.avi,globalTheta,noVideo,sp07,Ti,Ro,4,1,5,flow/blocks/GlobalTheta_NoVideo_B.csv,,,,,,,,,0,1,1,1,0,11,11,11,-0.41435185185185186,-0.10833333333333334,1,0,0,6.043869400047697,call3,0.003703703703703704,-0.2569444444444444,1,0,0,6.776643499964848,colour4,0.38287037037037036,-0.2972222222222222,1,0,0,7.31006189994514,number4,True,False,True,27,2,2019_Nov_18_1002,MA_Theta_Exp,3.0.7,59.973108049072366,
video/Experiment/zh_sp07_Dr_We_3_GlobalTheta_NoVideo.avi,globalTheta,noVideo,sp07,Dr,We,3,1,5,flow/blocks/GlobalTheta_NoVideo_B.csv,,,,,,,,,0,1,1,1,0,12,12,14,-0.38657407407407407,-0.10416666666666667,1,0,0,4.4660287000006065,call3,-0.001851851851851852,-0.2916666666666667,1,0,0,4.949212300009094,colour4,0.36898148148148147,-0.14583333333333334,1,0,0,5.551728600054048,number3,False,True,True,27,2,2019_Nov_18_1002,MA_Theta_Exp,3.0.7,59.973108049072366,
video/Experiment/zh_sp07_Ti_Gr_3_GlobalTheta_NoVideo.avi,globalTheta,noVideo,sp07,Ti,Gr,3,1,5,flow/blocks/GlobalTheta_NoVideo_B.csv,,,,,,,,,0,1,1,1,0,13,13,22,-0.4212962962962963,-0.1125,1,0,0,4.594100099988282,call3,-0.032407407407407406,0.07777777777777778,1,0,0,5.1097749000182375,colour2,0.41759259259259257,-0.10416666666666667,1,0,0,5.626329699996859,number3,True,True,True,27,2,2019_Nov_18_1002,MA_Theta_Exp,3.0.7,59.973108049072366,
video/Experiment/zh_sp01_Ti_We_1_GlobalTheta_NoVideo.avi,globalTheta,noVideo,sp01,Ti,We,1,1,5,flow/blocks/GlobalTheta_NoVideo_B.csv,,,,,,,,,0,1,1,1,0,14,14,12,-0.35462962962962963,-0.10972222222222222,1,0,0,5.08098530001007,call3,0.03148148148148148,-0.30694444444444446,1,0,0,5.631235299981199,colour4,0.4398148148148148,0.26805555555555555,1,0,0,6.43266249995213,number1,True,True,True,27,2,2019_Nov_18_1002,MA_Theta_Exp,3.0.7,59.973108049072366,
video/Experiment/zh_sp01_Dr_Gr_1_GlobalTheta_NoVideo.avi,globalTheta,noVideo,sp01,Dr,Gr,1,1,5,flow/blocks/GlobalTheta_NoVideo_B.csv,,,,,,,,,0,1,1,1,0,15,15,20,-0.40324074074074073,-0.10694444444444444,1,0,0,5.469675899948925,call3,0.013425925925925926,0.10138888888888889,1,0,0,6.020555099938065,colour2,0.3592592592592593,0.3138888888888889,1,0,0,6.5535430000163615,number1,False,True,True,27,2,2019_Nov_18_1002,MA_Theta_Exp,3.0.7,59.973108049072366,
video/Experiment/zh_sp07_Ti_Ro_1_GlobalTheta_NoVideo.avi,globalTheta,noVideo,sp07,Ti,Ro,1,1,5,flow/blocks/GlobalTheta_NoVideo_B.csv,,,,,,,,,0,1,1,1,0,16,16,8,-0.3768518518518518,-0.10138888888888889,1,0,0,4.498295300058089,call3,-0.050462962962962966,0.10694444444444444,1,0,0,4.997929600067437,colour2,0.3814814814814815,0.30277777777777776,1,0,0,5.532052500057034,number1,True,False,True,27,2,2019_Nov_18_1002,MA_Theta_Exp,3.0.7,59.973108049072366,
video/Experiment/zh_sp07_Dr_Ge_3_GlobalTheta_NoVideo.avi,globalTheta,noVideo,sp07,Dr,Ge,3,1,5,flow/blocks/GlobalTheta_NoVideo_B.csv,,,,,,,,,0,1,1,1,0,17,17,2,-0.40046296296296297,-0.10694444444444444,1,0,0,4.664392499951646,call3,-0.02962962962962963,0.12222222222222222,1,0,0,5.114771399996243,colour2,0.4398148148148148,-0.12916666666666668,1,0,0,5.614054500008933,number3,False,False,True,27,2,2019_Nov_18_1002,MA_Theta_Exp,3.0.7,59.973108049072366,
video/Experiment/zh_sp07_Ad_Ro_2_GlobalTheta_NoVideo.avi,globalTheta,noVideo,sp07,Ad,Ro,2,1,5,flow/blocks/GlobalTheta_NoVideo_B.csv,,,,,,,,,0,1,1,1,0,18,18,25,-0.3824074074074074,0.3055555555555556,1,0,0,4.451674600015394,call1,0.04537037037037037,-0.09166666666666666,1,0,0,5.267901199986227,colour3,0.387037037037037,0.11527777777777778,1,0,0,6.003652899991721,number2,True,True,True,27,2,2019_Nov_18_1002,MA_Theta_Exp,3.0.7,59.973108049072366,
video/Experiment/zh_sp01_Ad_Ge_4_GlobalTheta_NoVideo.avi,globalTheta,noVideo,sp01,Ad,Ge,4,1,5,flow/blocks/GlobalTheta_NoVideo_B.csv,,,,,,,,,0,1,1,1,0,19,19,3,-0.3490740740740741,0.325,1,0,0,5.244952000095509,call1,0.023148148148148147,0.09305555555555556,1,0,0,6.078098800033331,colour2,0.43703703703703706,-0.125,1,0,0,6.627952400012873,number3,True,False,False,27,2,2019_Nov_18_1002,MA_Theta_Exp,3.0.7,59.973108049072366,
video/Experiment/zh_sp07_Un_Ge_4_GlobalTheta_NoVideo.avi,globalTheta,noVideo,sp07,Un,Ge,4,1,5,flow/blocks/GlobalTheta_NoVideo_B.csv,,,,,,,,,0,1,1,1,0,20,20,19,-0.4324074074074074,-0.3263888888888889,1,0,0,4.809094000025652,call4,0.0023148148148148147,0.07777777777777778,1,0,0,5.807221499970183,colour2,0.399537037037037,-0.1375,1,0,0,6.3085422000149265,number3,True,False,False,27,2,2019_Nov_18_1002,MA_Theta_Exp,3.0.7,59.973108049072366,
video/Experiment/zh_sp07_Dr_Ge_2_GlobalTheta_NoVideo.avi,globalTheta,noVideo,sp07,Dr,Ge,2,1,5,flow/blocks/GlobalTheta_NoVideo_B.csv,,,,,,,,,0,1,1,1,0,21,21,17,-0.3837962962962963,0.3194444444444444,1,0,0,4.424842500011437,call1,0.03425925925925926,0.10833333333333334,1,0,0,4.926456899964251,colour2,0.4078703703703704,0.09722222222222222,1,0,0,5.341480499948375,number2,False,False,True,27,2,2019_Nov_18_1002,MA_Theta_Exp,3.0.7,59.973108049072366,
video/Experiment/zh_sp01_Ad_Ro_3_GlobalTheta_NoVideo.avi,globalTheta,noVideo,sp01,Ad,Ro,3,1,5,flow/blocks/GlobalTheta_NoVideo_B.csv,,,,,,,,,0,1,1,1,0,22,22,10,-0.37407407407407406,0.29305555555555557,1,0,0,5.227318200049922,call1,-0.02824074074074074,-0.06388888888888888,1,0,0,5.943899600068107,colour3,0.4300925925925926,-0.12916666666666668,1,0,0,6.427655400009826,number3,True,True,True,27,2,2019_Nov_18_1002,MA_Theta_Exp,3.0.7,59.973108049072366,
video/Experiment/zh_sp01_Ad_Ge_1_GlobalTheta_NoVideo.avi,globalTheta,noVideo,sp01,Ad,Ge,1,1,5,flow/blocks/GlobalTheta_NoVideo_B.csv,,,,,,,,,0,1,1,1,0,23,23,16,-0.4199074074074074,0.3194444444444444,1,0,0,5.35101870005019,call1,0.04537037037037037,0.3,1,0,0,6.321365799987689,colour1,0.39814814814814814,0.32083333333333336,1,0,0,6.904198599979281,number1,True,True,True,27,2,2019_Nov_18_1002,MA_Theta_Exp,3.0.7,59.973108049072366,
video/Experiment/zh_sp01_Un_Ro_2_GlobalTheta_NoVideo.avi,globalTheta,noVideo,sp01,Un,Ro,2,1,5,flow/blocks/GlobalTheta_NoVideo_B.csv,,,,,,,,,0,1,1,1,0,24,24,9,-0.40879629629629627,-0.08055555555555556,1,0,0,4.93976879992988,call3,-0.03796296296296296,0.0763888888888889,1,0,0,5.468252799939364,colour2,0.35648148148148145,0.07083333333333333,1,0,0,5.93994880001992,number2,False,False,True,27,2,2019_Nov_18_1002,MA_Theta_Exp,3.0.7,59.973108049072366,
video/Experiment/zh_sp07_Un_Gr_2_GlobalTheta_NoVideo.avi,globalTheta,noVideo,sp07,Un,Gr,2,1,5,flow/blocks/GlobalTheta_NoVideo_B.csv,,,,,,,,,0,1,1,1,0,25,25,5,-0.40324074074074073,-0.1,1,0,0,5.09723940002732,call3,0.053703703703703705,0.06805555555555555,1,0,0,6.048402999993414,colour2,0.3592592592592593,0.2847222222222222,1,0,0,6.563784800004214,number1,False,True,False,27,2,2019_Nov_18_1002,MA_Theta_Exp,3.0.7,59.973108049072366,
video/Experiment/zh_sp01_Un_Ge_1_GlobalTheta_NoVideo.avi,globalTheta,noVideo,sp01,Un,Ge,1,1,5,flow/blocks/GlobalTheta_NoVideo_B.csv,,,,,,,,,0,1,1,1,0,26,26,0,-0.34629629629629627,-0.30416666666666664,1,0,0,5.371557799982838,call4,-0.02824074074074074,0.35833333333333334,1,0,0,6.186562800081447,colour1,0.37592592592592594,0.32916666666666666,1,0,0,6.733011999982409,number1,True,True,True,27,2,2019_Nov_18_1002,MA_Theta_Exp,3.0.7,59.973108049072366,
video/Experiment/zh_sp07_Dr_We_4_GlobalTheta_NoVideo.avi,globalTheta,noVideo,sp07,Dr,We,4,1,5,flow/blocks/GlobalTheta_NoVideo_B.csv,,,,,,,,,0,1,1,1,0,27,27,15,-0.42962962962962964,-0.1,1,0,0,4.492762799956836,call3,0.06759259259259259,0.10138888888888889,1,0,0,5.09312879992649,colour2,0.4439814814814815,-0.12361111111111112,1,0,0,5.688594600069337,number3,False,False,False,27,2,2019_Nov_18_1002,MA_Theta_Exp,3.0.7,59.973108049072366,
video/Experiment/zh_sp01_Ti_Gr_2_GlobalTheta_NoVideo.avi,globalTheta,noVideo,sp01,Ti,Gr,2,1,5,flow/blocks/GlobalTheta_NoVideo_B.csv,,,,,,,,,0,1,1,1,0,28,28,21,-0.42824074074074076,-0.1125,1,0,0,5.290918599930592,call3,-0.000462962962962963,0.10277777777777777,1,0,0,5.924750099889934,colour2,0.3773148148148148,0.15,1,0,0,6.515421100077219,number2,True,True,True,27,2,2019_Nov_18_1002,MA_Theta_Exp,3.0.7,59.973108049072366,
video/Experiment/zh_sp01_Un_We_2_GlobalTheta_NoVideo.avi,globalTheta,noVideo,sp01,Un,We,2,1,5,flow/blocks/GlobalTheta_NoVideo_B.csv,,,,,,,,,0,1,1,1,0,29,29,13,-0.37824074074074077,-0.11388888888888889,1,0,0,5.191422100062482,call3,-0.06435185185185185,-0.2861111111111111,1,0,0,5.758406999986619,colour4,0.43425925925925923,0.09861111111111111,1,0,0,6.376476499950513,number2,False,True,True,27,2,2019_Nov_18_1002,MA_Theta_Exp,3.0.7,59.973108049072366,
video/Experiment/zh_sp07_Ad_Ge_2_GlobalTheta_NoVideo.avi,globalTheta,noVideo,sp07,Ad,Ge,2,1,5,flow/blocks/GlobalTheta_NoVideo_B.csv,,,,,,,,,0,1,1,1,0,30,30,1,-0.45046296296296295,0.3388888888888889,1,0,0,4.191100499941967,call1,0.060648148148148145,0.11666666666666667,1,0,0,4.774506999994628,colour2,0.4078703703703704,0.13333333333333333,1,0,0,5.258660800056532,number2,True,False,True,27,2,2019_Nov_18_1002,MA_Theta_Exp,3.0.7,59.973108049072366,
video/Experiment/zh_sp01_Dr_We_1_GlobalTheta_NoVideo.avi,globalTheta,noVideo,sp01,Dr,We,1,1,5,flow/blocks/GlobalTheta_NoVideo_B.csv,,,,,,,,,0,1,1,1,0,31,31,28,-0.4351851851851852,-0.11944444444444445,1,0,0,6.100188300013542,call3,-0.01712962962962963,0.07083333333333333,1,0,0,6.969604899990372,colour2,0.37037037037037035,0.2611111111111111,1,0,0,7.466686600004323,number1,False,False,True,27,2,2019_Nov_18_1002,MA_Theta_Exp,3.0.7,59.973108049072366,
