videoFile,condition,video,speaker,callSign,colour,number,seq,id,block,exp.thisRepN,exp.thisTrialN,exp.thisN,exp.thisIndex,training.thisRepN,training.thisTrialN,training.thisN,training.thisIndex,firstHalf.thisRepN,firstHalf.thisTrialN,firstHalf.thisN,firstHalf.thisIndex,blocksA.thisRepN,blocksA.thisTrialN,blocksA.thisN,blocksA.thisIndex,mouseClickOnCall.x,mouseClickOnCall.y,mouseClickOnCall.leftButton,mouseClickOnCall.midButton,mouseClickOnCall.rightButton,mouseClickOnCall.time,mouseClickOnCall.clicked_name,mouseClickOnColour.x,mouseClickOnColour.y,mouseClickOnColour.leftButton,mouseClickOnColour.midButton,mouseClickOnColour.rightButton,mouseClickOnColour.time,mouseClickOnColour.clicked_name,mouseClickOnNumber.x,mouseClickOnNumber.y,mouseClickOnNumber.leftButton,mouseClickOnNumber.midButton,mouseClickOnNumber.rightButton,mouseClickOnNumber.time,mouseClickOnNumber.clicked_name,callSignCorrect,colourCorrect,numberCorrect,participant,order,date,expName,psychopyVersion,frameRate,
video/Training/zh_sp01_Ad_We_4_NVocInAudio_NoVideo.avi,vocoded,noVideo,sp01,Ad,We,4,,,,,,,,0,0,0,0,,,,,,,,,-0.4101851851851852,0.30972222222222223,1,0,0,6.645545799983665,call1,-0.07685185185185185,-0.325,1,0,0,7.550285800010897,colour4,0.36342592592592593,-0.32222222222222224,1,0,0,8.14972579991445,number4,True,True,True,28,3,2019_Nov_18_1105,MA_Theta_Exp,3.0.7,59.901545808816444,
video/Training/zh_sp07_Ad_Ge_3_NVocInAudio_NoVideo.avi,vocoded,noVideo,sp07,Ad,Ge,3,,,,,,,,0,1,1,1,,,,,,,,,-0.37546296296296294,0.2847222222222222,1,0,0,4.925875999964774,call1,-0.008796296296296297,0.275,1,0,0,5.676070499932393,colour1,0.37175925925925923,-0.0763888888888889,1,0,0,6.4635870000347495,number3,True,True,True,28,3,2019_Nov_18_1105,MA_Theta_Exp,3.0.7,59.901545808816444,
video/Training/zh_sp01_Dr_Ro_3_NVocInAudio_GlobalThetaInVideo.avi,vocoded,plusVideo,sp01,Dr,Ro,3,,,,,,,,0,2,2,2,,,,,,,,,-0.38101851851851853,0.1,1,0,0,5.998161600087769,call2,-0.040740740740740744,-0.1375,1,0,0,7.445342699997127,colour3,0.4203703703703704,-0.11944444444444445,1,0,0,8.217680800007656,number3,True,True,True,28,3,2019_Nov_18_1105,MA_Theta_Exp,3.0.7,59.901545808816444,
video/Training/zh_sp07_Dr_Gr_4_NVocInAudio_GlobalThetaInVideo.avi,vocoded,plusVideo,sp07,Dr,Gr,4,,,,,,,,0,3,3,3,,,,,,,,,-0.42685185185185187,0.13333333333333333,1,0,0,5.390928199980408,call2,-0.008796296296296297,0.1111111111111111,1,0,0,6.107818799908273,colour2,0.43842592592592594,-0.3263888888888889,1,0,0,6.940077000064775,number4,True,True,True,28,3,2019_Nov_18_1105,MA_Theta_Exp,3.0.7,59.901545808816444,
video/Training/zh_sp01_Ti_Gr_2_NoThetaInAudio_NoVideo.avi,noTheta,noVideo,sp01,Ti,Gr,2,,,,,,,,0,4,4,4,,,,,,,,,-0.4337962962962963,0.05277777777777778,1,0,0,7.003149399999529,call2,0.005092592592592593,0.30833333333333335,1,0,0,7.719992099911906,colour1,0.32175925925925924,-0.03888888888888889,1,0,0,8.211936799925752,number3,False,False,False,28,3,2019_Nov_18_1105,MA_Theta_Exp,3.0.7,59.901545808816444,
video/Training/zh_sp07_Ti_Ro_1_NoThetaInAudio_NoVideo.avi,noTheta,noVideo,sp07,Ti,Ro,1,,,,,,,,0,5,5,5,,,,,,,,,-0.3712962962962963,0.26666666666666666,1,0,0,9.103078099898994,call1,-0.014351851851851852,-0.10277777777777777,1,0,0,9.76235179998912,colour3,0.48148148148148145,0.058333333333333334,1,0,0,10.266252900008112,number2,False,True,False,28,3,2019_Nov_18_1105,MA_Theta_Exp,3.0.7,59.901545808816444,
video/Training/zh_sp01_Un_Ge_1_NoThetaInAudio_GlobalThetaInVideo.avi,noTheta,plusVideo,sp01,Un,Ge,1,,,,,,,,0,6,6,6,,,,,,,,,-0.37407407407407406,-0.2972222222222222,1,0,0,6.543046899954788,call4,0.03981481481481482,-0.07222222222222222,1,0,0,10.343698400072753,colour3,0.36342592592592593,0.25,1,0,0,10.860249500023201,number1,True,False,True,28,3,2019_Nov_18_1105,MA_Theta_Exp,3.0.7,59.901545808816444,
video/Training/zh_sp07_Un_We_2_NoThetaInAudio_GlobalThetaInVideo.avi,noTheta,plusVideo,sp07,Un,We,2,,,,,,,,0,7,7,7,,,,,,,,,-0.39490740740740743,-0.2763888888888889,1,0,0,5.743866299977526,call4,0.07731481481481481,-0.3375,1,0,0,6.309867299976759,colour4,0.3773148148148148,0.3277777777777778,1,0,0,8.946174600045197,number1,True,True,False,28,3,2019_Nov_18_1105,MA_Theta_Exp,3.0.7,59.901545808816444,
video/Training/zh_sp01_Ad_Ge_1_GlobalTheta_NoVideo.avi,globalTheta,noVideo,sp01,Ad,Ge,1,,,,,,,,0,8,8,8,,,,,,,,,-0.37824074074074077,0.3013888888888889,1,0,0,5.510553800035268,call1,0.013425925925925926,0.31805555555555554,1,0,0,6.204464399954304,colour1,0.4398148148148148,0.3125,1,0,0,6.755378399975598,number1,True,True,True,28,3,2019_Nov_18_1105,MA_Theta_Exp,3.0.7,59.901545808816444,
video/Training/zh_sp07_Ad_Ro_3_GlobalTheta_NoVideo.avi,globalTheta,noVideo,sp07,Ad,Ro,3,,,,,,,,0,9,9,9,,,,,,,,,-0.41574074074074074,0.2986111111111111,1,0,0,5.644761799951084,call1,-0.014351851851851852,0.10416666666666667,1,0,0,9.281780200079083,colour2,0.3509259259259259,-0.08055555555555556,1,0,0,9.767714100074954,number3,True,False,True,28,3,2019_Nov_18_1105,MA_Theta_Exp,3.0.7,59.901545808816444,
video/Experiment/zh_sp01_Ad_Ro_4_GlobalTheta_NoVideo.avi,globalTheta,noVideo,sp01,Ad,Ro,4,0,5,flow/blocks/GlobalTheta_NoVideo_A.csv,,,,,,,,,0,0,0,0,0,0,0,11,-0.4060185185185185,0.28888888888888886,1,0,0,5.75786260003224,call1,-0.1310185185185185,-0.025,1,0,0,6.344714100006968,colour3,0.4287037037037037,-0.29305555555555557,1,0,0,7.242208599927835,number4,True,True,True,28,3,2019_Nov_18_1105,MA_Theta_Exp,3.0.7,59.901545808816444,
video/Experiment/zh_sp07_Ti_Ro_2_GlobalTheta_NoVideo.avi,globalTheta,noVideo,sp07,Ti,Ro,2,0,5,flow/blocks/GlobalTheta_NoVideo_A.csv,,,,,,,,,0,0,0,0,0,1,1,25,-0.3768518518518518,-0.30972222222222223,1,0,0,7.990069400053471,call4,,,,,,,,,,,,,,,False,NO_ANSW,NO_ANSW,28,3,2019_Nov_18_1105,MA_Theta_Exp,3.0.7,59.901545808816444,
video/Experiment/zh_sp07_Ad_Ro_1_GlobalTheta_NoVideo.avi,globalTheta,noVideo,sp07,Ad,Ro,1,0,5,flow/blocks/GlobalTheta_NoVideo_A.csv,,,,,,,,,0,0,0,0,0,2,2,8,-0.3907407407407407,0.09027777777777778,1,0,0,7.06919760000892,call2,-0.008796296296296297,-0.12083333333333333,1,0,0,8.87184779997915,colour3,0.34120370370370373,0.3194444444444444,1,0,0,9.393568099942058,number1,False,True,True,28,3,2019_Nov_18_1105,MA_Theta_Exp,3.0.7,59.901545808816444,
video/Experiment/zh_sp01_Ti_Ge_3_GlobalTheta_NoVideo.avi,globalTheta,noVideo,sp01,Ti,Ge,3,0,5,flow/blocks/GlobalTheta_NoVideo_A.csv,,,,,,,,,0,0,0,0,0,3,3,18,-0.41574074074074074,-0.3472222222222222,1,0,0,11.527507000020705,call4,0.06620370370370371,0.11666666666666667,1,0,0,12.21035780000966,colour2,0.3162037037037037,-0.1361111111111111,1,0,0,12.648522699950263,number3,False,False,True,28,3,2019_Nov_18_1105,MA_Theta_Exp,3.0.7,59.901545808816444,
video/Experiment/zh_sp01_Dr_We_2_GlobalTheta_NoVideo.avi,globalTheta,noVideo,sp01,Dr,We,2,0,5,flow/blocks/GlobalTheta_NoVideo_A.csv,,,,,,,,,0,0,0,0,0,4,4,13,-0.3101851851851852,-0.25,1,0,0,6.897624899982475,call4,0.010648148148148148,-0.29444444444444445,1,0,0,9.54463009990286,colour4,0.4162037037037037,0.275,1,0,0,11.203432300011627,number1,False,True,False,28,3,2019_Nov_18_1105,MA_Theta_Exp,3.0.7,59.901545808816444,
video/Experiment/zh_sp07_Ad_Gr_1_GlobalTheta_NoVideo.avi,globalTheta,noVideo,sp07,Ad,Gr,1,0,5,flow/blocks/GlobalTheta_NoVideo_A.csv,,,,,,,,,0,0,0,0,0,5,5,4,-0.35324074074074074,0.0875,1,0,0,10.192948999931104,call2,0.05648148148148148,-0.13333333333333333,1,0,0,11.137747299973853,colour3,,,,,,,,False,False,NO_ANSW,28,3,2019_Nov_18_1105,MA_Theta_Exp,3.0.7,59.901545808816444,
video/Experiment/zh_sp01_Dr_Ge_4_GlobalTheta_NoVideo.avi,globalTheta,noVideo,sp01,Dr,Ge,4,0,5,flow/blocks/GlobalTheta_NoVideo_A.csv,,,,,,,,,0,0,0,0,0,6,6,19,0.3773148148148148,-0.3277777777777778,1,0,0,5.01306599995587,call2,-0.010185185185185186,-0.15555555555555556,1,0,0,9.928830899996683,colour3,0.3509259259259259,-0.28888888888888886,1,0,0,10.281638899934478,number4,True,False,True,28,3,2019_Nov_18_1105,MA_Theta_Exp,3.0.7,59.901545808816444,
video/Experiment/zh_sp07_Un_Ge_3_GlobalTheta_NoVideo.avi,globalTheta,noVideo,sp07,Un,Ge,3,0,5,flow/blocks/GlobalTheta_NoVideo_A.csv,,,,,,,,,0,0,0,0,0,7,7,2,-0.3574074074074074,-0.2833333333333333,1,0,0,8.013128800084814,call4,0.04259259259259259,0.05694444444444444,1,0,0,8.730375400045887,colour2,0.34953703703703703,-0.14027777777777778,1,0,0,9.165025599999353,number3,True,False,True,28,3,2019_Nov_18_1105,MA_Theta_Exp,3.0.7,59.901545808816444,
video/Experiment/zh_sp01_Un_We_1_GlobalTheta_NoVideo.avi,globalTheta,noVideo,sp01,Un,We,1,0,5,flow/blocks/GlobalTheta_NoVideo_A.csv,,,,,,,,,0,0,0,0,0,8,8,28,-0.4115740740740741,-0.3472222222222222,1,0,0,5.212274400051683,call4,-0.012962962962962963,0.40694444444444444,1,0,0,6.157216800027527,colour1,0.4300925925925926,0.275,1,0,0,7.219578600022942,number1,True,False,True,28,3,2019_Nov_18_1105,MA_Theta_Exp,3.0.7,59.901545808816444,
video/Experiment/zh_sp07_Ti_Gr_4_GlobalTheta_NoVideo.avi,globalTheta,noVideo,sp07,Ti,Gr,4,0,5,flow/blocks/GlobalTheta_NoVideo_A.csv,,,,,,,,,0,0,0,0,0,9,9,7,-0.41435185185185186,-0.08611111111111111,1,0,0,5.155446499935351,call3,0.009259259259259259,0.12083333333333333,1,0,0,5.673199799959548,colour2,0.39537037037037037,-0.10972222222222222,1,0,0,6.169447399908677,number3,True,True,False,28,3,2019_Nov_18_1105,MA_Theta_Exp,3.0.7,59.901545808816444,
video/Experiment/zh_sp07_Dr_Ge_1_GlobalTheta_NoVideo.avi,globalTheta,noVideo,sp07,Dr,Ge,1,0,5,flow/blocks/GlobalTheta_NoVideo_A.csv,,,,,,,,,0,0,0,0,0,10,10,0,-0.33935185185185185,-0.30833333333333335,1,0,0,7.400903299916536,call4,-0.000462962962962963,-0.26805555555555555,1,0,0,10.378867499995977,colour4,0.4009259259259259,0.26805555555555555,1,0,0,10.924461900023744,number1,False,False,True,28,3,2019_Nov_18_1105,MA_Theta_Exp,3.0.7,59.901545808816444,
video/Experiment/zh_sp07_Un_Gr_1_GlobalTheta_NoVideo.avi,globalTheta,noVideo,sp07,Un,Gr,1,0,5,flow/blocks/GlobalTheta_NoVideo_A.csv,,,,,,,,,0,0,0,0,0,11,11,20,-0.42685185185185187,0.29305555555555557,1,0,0,7.550928900018334,call1,-0.10740740740740741,0.11666666666666667,1,0,0,8.083621299942024,colour2,0.387037037037037,0.2152777777777778,1,0,0,8.986908100079745,number1,False,True,True,28,3,2019_Nov_18_1105,MA_Theta_Exp,3.0.7,59.901545808816444,
video/Experiment/zh_sp01_Dr_Ro_4_GlobalTheta_NoVideo.avi,globalTheta,noVideo,sp01,Dr,Ro,4,0,5,flow/blocks/GlobalTheta_NoVideo_A.csv,,,,,,,,,0,0,0,0,0,12,12,27,-0.3837962962962963,0.06527777777777778,1,0,0,7.571494200034067,call2,-0.01990740740740741,0.06111111111111111,1,0,0,11.569215400028042,colour2,0.4162037037037037,-0.06805555555555555,1,0,0,12.09625820000656,number3,True,False,False,28,3,2019_Nov_18_1105,MA_Theta_Exp,3.0.7,59.901545808816444,
video/Experiment/zh_sp07_Un_Ro_1_GlobalTheta_NoVideo.avi,globalTheta,noVideo,sp07,Un,Ro,1,0,5,flow/blocks/GlobalTheta_NoVideo_A.csv,,,,,,,,,0,0,0,0,0,13,13,24,-0.412962962962963,-0.29305555555555557,1,0,0,8.178777800058015,call4,0.017592592592592594,-0.175,1,0,0,10.29915279999841,colour3,0.4078703703703704,-0.12222222222222222,1,0,0,10.663652100018226,number3,True,True,False,28,3,2019_Nov_18_1105,MA_Theta_Exp,3.0.7,59.901545808816444,
video/Experiment/zh_sp01_Dr_Gr_2_GlobalTheta_NoVideo.avi,globalTheta,noVideo,sp01,Dr,Gr,2,0,5,flow/blocks/GlobalTheta_NoVideo_A.csv,,,,,,,,,0,0,0,0,0,14,14,5,-0.3976851851851852,0.044444444444444446,1,0,0,9.522161399945617,call2,-0.001851851851851852,0.3055555555555556,1,0,0,9.971172700054012,colour1,0.38842592592592595,0.10555555555555556,1,0,0,10.406712400028482,number2,True,False,True,28,3,2019_Nov_18_1105,MA_Theta_Exp,3.0.7,59.901545808816444,
video/Experiment/zh_sp07_Ad_Gr_3_GlobalTheta_NoVideo.avi,globalTheta,noVideo,sp07,Ad,Gr,3,0,5,flow/blocks/GlobalTheta_NoVideo_A.csv,,,,,,,,,0,0,0,0,0,15,15,22,-0.41574074074074074,-0.33611111111111114,1,0,0,9.554581300006248,call4,0.01898148148148148,0.07083333333333333,1,0,0,11.119781199959107,colour2,0.37453703703703706,-0.06944444444444445,1,0,0,11.625795100000687,number3,False,True,True,28,3,2019_Nov_18_1105,MA_Theta_Exp,3.0.7,59.901545808816444,
video/Experiment/zh_sp07_Ad_Gr_2_GlobalTheta_NoVideo.avi,globalTheta,noVideo,sp07,Ad,Gr,2,0,5,flow/blocks/GlobalTheta_NoVideo_A.csv,,,,,,,,,0,0,0,0,0,16,16,21,-0.3768518518518518,-0.3125,1,0,0,4.583652599947527,call4,-0.014351851851851852,0.13333333333333333,1,0,0,5.353181300102733,colour2,0.3384259259259259,0.2902777777777778,1,0,0,8.900104000000283,number1,False,True,False,28,3,2019_Nov_18_1105,MA_Theta_Exp,3.0.7,59.901545808816444,
video/Experiment/zh_sp07_Ti_We_4_GlobalTheta_NoVideo.avi,globalTheta,noVideo,sp07,Ti,We,4,0,5,flow/blocks/GlobalTheta_NoVideo_A.csv,,,,,,,,,0,0,0,0,0,17,17,31,-0.42962962962962964,0.08611111111111111,1,0,0,9.425879399990663,call2,,,,,,,,,,,,,,,False,NO_ANSW,NO_ANSW,28,3,2019_Nov_18_1105,MA_Theta_Exp,3.0.7,59.901545808816444,
video/Experiment/zh_sp07_Dr_Gr_4_GlobalTheta_NoVideo.avi,globalTheta,noVideo,sp07,Dr,Gr,4,0,5,flow/blocks/GlobalTheta_NoVideo_A.csv,,,,,,,,,0,0,0,0,0,18,18,23,-0.3990740740740741,-0.28888888888888886,1,0,0,8.32985560002271,call4,-0.09074074074074075,-0.12777777777777777,1,0,0,11.361352800042368,colour3,,,,,,,,False,False,NO_ANSW,28,3,2019_Nov_18_1105,MA_Theta_Exp,3.0.7,59.901545808816444,
video/Experiment/zh_sp01_Ad_We_3_GlobalTheta_NoVideo.avi,globalTheta,noVideo,sp01,Ad,We,3,0,5,flow/blocks/GlobalTheta_NoVideo_A.csv,,,,,,,,,0,0,0,0,0,19,19,30,-0.4101851851851852,0.33055555555555555,1,0,0,5.039128900039941,call1,-0.022685185185185187,-0.29583333333333334,1,0,0,5.956171200028621,colour4,0.41203703703703703,-0.10694444444444444,1,0,0,6.554758799960837,number3,True,True,True,28,3,2019_Nov_18_1105,MA_Theta_Exp,3.0.7,59.901545808816444,
video/Experiment/zh_sp01_Dr_Gr_3_GlobalTheta_NoVideo.avi,globalTheta,noVideo,sp01,Dr,Gr,3,0,5,flow/blocks/GlobalTheta_NoVideo_A.csv,,,,,,,,,0,0,0,0,0,20,20,6,-0.4310185185185185,-0.2916666666666667,1,0,0,4.854254000005312,call4,-0.008796296296296297,-0.3055555555555556,1,0,0,5.459673300036229,colour4,0.4398148148148148,-0.12361111111111112,1,0,0,5.949835199979134,number3,False,False,True,28,3,2019_Nov_18_1105,MA_Theta_Exp,3.0.7,59.901545808816444,
video/Experiment/zh_sp07_Ti_Ge_2_GlobalTheta_NoVideo.avi,globalTheta,noVideo,sp07,Ti,Ge,2,0,5,flow/blocks/GlobalTheta_NoVideo_A.csv,,,,,,,,,0,0,0,0,0,21,21,1,-0.3476851851851852,-0.3625,1,0,0,6.4742380999960005,call4,0.04398148148148148,0.06805555555555555,1,0,0,7.556269999942742,colour2,0.34675925925925927,0.2625,1,0,0,8.209654000005685,number1,False,False,False,28,3,2019_Nov_18_1105,MA_Theta_Exp,3.0.7,59.901545808816444,
video/Experiment/zh_sp01_Un_Ro_3_GlobalTheta_NoVideo.avi,globalTheta,noVideo,sp01,Un,Ro,3,0,5,flow/blocks/GlobalTheta_NoVideo_A.csv,,,,,,,,,0,0,0,0,0,22,22,26,-0.41712962962962963,0.05277777777777778,1,0,0,9.235666299937293,call2,0.012037037037037037,0.32083333333333336,1,0,0,9.938044599955902,colour1,0.32731481481481484,-0.10416666666666667,1,0,0,10.448061400093138,number3,False,False,True,28,3,2019_Nov_18_1105,MA_Theta_Exp,3.0.7,59.901545808816444,
video/Experiment/zh_sp07_Ti_Ge_4_GlobalTheta_NoVideo.avi,globalTheta,noVideo,sp07,Ti,Ge,4,0,5,flow/blocks/GlobalTheta_NoVideo_A.csv,,,,,,,,,0,0,0,0,0,23,23,3,-0.42962962962962964,0.10972222222222222,1,0,0,4.632410899968818,call2,0.037037037037037035,-0.14722222222222223,1,0,0,10.164827800006606,colour3,0.4564814814814815,-0.1527777777777778,1,0,0,10.594735700055026,number3,False,False,False,28,3,2019_Nov_18_1105,MA_Theta_Exp,3.0.7,59.901545808816444,
video/Experiment/zh_sp01_Un_Ge_2_GlobalTheta_NoVideo.avi,globalTheta,noVideo,sp01,Un,Ge,2,0,5,flow/blocks/GlobalTheta_NoVideo_A.csv,,,,,,,,,0,0,0,0,0,24,24,17,-0.35462962962962963,-0.2972222222222222,1,0,0,6.034599100006744,call4,0.06759259259259259,0.29305555555555557,1,0,0,7.187676200061105,colour1,0.4134259259259259,0.15694444444444444,1,0,0,9.456925899954513,number2,True,True,True,28,3,2019_Nov_18_1105,MA_Theta_Exp,3.0.7,59.901545808816444,
video/Experiment/zh_sp01_Ad_We_1_GlobalTheta_NoVideo.avi,globalTheta,noVideo,sp01,Ad,We,1,0,5,flow/blocks/GlobalTheta_NoVideo_A.csv,,,,,,,,,0,0,0,0,0,25,25,12,-0.41574074074074074,0.2611111111111111,1,0,0,5.07750280003529,call1,-0.03657407407407407,-0.35,1,0,0,5.760381200001575,colour4,0.4064814814814815,0.3388888888888889,1,0,0,6.474268399993889,number1,True,True,True,28,3,2019_Nov_18_1105,MA_Theta_Exp,3.0.7,59.901545808816444,
video/Experiment/zh_sp01_Ti_Ge_1_GlobalTheta_NoVideo.avi,globalTheta,noVideo,sp01,Ti,Ge,1,0,5,flow/blocks/GlobalTheta_NoVideo_A.csv,,,,,,,,,0,0,0,0,0,26,26,16,-0.42407407407407405,0.09583333333333334,1,0,0,9.82230429991614,call2,0.07314814814814814,0.35694444444444445,1,0,0,11.03986750007607,colour1,0.45092592592592595,0.2847222222222222,1,0,0,11.455028400057927,number1,False,True,True,28,3,2019_Nov_18_1105,MA_Theta_Exp,3.0.7,59.901545808816444,
video/Experiment/zh_sp01_Ti_Ro_3_GlobalTheta_NoVideo.avi,globalTheta,noVideo,sp01,Ti,Ro,3,0,5,flow/blocks/GlobalTheta_NoVideo_A.csv,,,,,,,,,0,0,0,0,0,27,27,10,-0.4476851851851852,-0.3111111111111111,1,0,0,5.100533000077121,call4,0.005092592592592593,-0.0875,1,0,0,5.898654800024815,colour3,0.4537037037037037,-0.15694444444444444,1,0,0,6.765662599937059,number3,False,True,True,28,3,2019_Nov_18_1105,MA_Theta_Exp,3.0.7,59.901545808816444,
video/Experiment/zh_sp01_Ad_We_2_GlobalTheta_NoVideo.avi,globalTheta,noVideo,sp01,Ad,We,2,0,5,flow/blocks/GlobalTheta_NoVideo_A.csv,,,,,,,,,0,0,0,0,0,28,28,29,-0.36574074074074076,0.24722222222222223,1,0,0,5.1915507999947295,call1,-0.02824074074074074,-0.32083333333333336,1,0,0,6.427224999992177,colour4,0.4439814814814815,0.07916666666666666,1,0,0,9.335600099992007,number2,True,True,True,28,3,2019_Nov_18_1105,MA_Theta_Exp,3.0.7,59.901545808816444,
video/Experiment/zh_sp07_Dr_Ro_2_GlobalTheta_NoVideo.avi,globalTheta,noVideo,sp07,Dr,Ro,2,0,5,flow/blocks/GlobalTheta_NoVideo_A.csv,,,,,,,,,0,0,0,0,0,29,29,9,-0.37546296296296294,-0.30833333333333335,1,0,0,9.773038399987854,call4,0.07731481481481481,0.025,1,0,0,12.17049930000212,colour2,0.47175925925925927,-0.125,1,0,0,12.577993799932301,number3,False,False,False,28,3,2019_Nov_18_1105,MA_Theta_Exp,3.0.7,59.901545808816444,
video/Experiment/zh_sp07_Un_We_4_GlobalTheta_NoVideo.avi,globalTheta,noVideo,sp07,Un,We,4,0,5,flow/blocks/GlobalTheta_NoVideo_A.csv,,,,,,,,,0,0,0,0,0,30,30,15,-0.38101851851851853,-0.15138888888888888,1,0,0,7.732361100031994,call3,-0.018518518518518517,-0.375,1,0,0,8.74554909998551,colour4,0.4162037037037037,-0.3402777777777778,1,0,0,9.164357999921776,number4,False,True,True,28,3,2019_Nov_18_1105,MA_Theta_Exp,3.0.7,59.901545808816444,
video/Experiment/zh_sp01_Un_We_3_GlobalTheta_NoVideo.avi,globalTheta,noVideo,sp01,Un,We,3,0,5,flow/blocks/GlobalTheta_NoVideo_A.csv,,,,,,,,,0,0,0,0,0,31,31,14,-0.3685185185185185,-0.2861111111111111,1,0,0,5.275270599988289,call4,0.03981481481481482,-0.31805555555555554,1,0,0,5.821521400008351,colour4,0.4162037037037037,-0.12638888888888888,1,0,0,6.508588599972427,number3,True,True,True,28,3,2019_Nov_18_1105,MA_Theta_Exp,3.0.7,59.901545808816444,
video/Experiment/zh_sp01_Dr_Ge_3_NVocInAudio_GlobalThetaInVideo.avi,vocoded,plusVideo,sp01,Dr,Ge,3,1,1,flow/blocks/NVocInAudio_GlobalThetaInVideo_B.csv,,,,,,,,,0,1,1,1,0,0,0,2,-0.38796296296296295,0.10555555555555556,1,0,0,6.188220299896784,call2,-0.04490740740740741,0.3388888888888889,1,0,0,6.905643900041468,colour1,0.41064814814814815,-0.06944444444444445,1,0,0,7.771417899988592,number3,True,True,True,28,3,2019_Nov_18_1105,MA_Theta_Exp,3.0.7,59.901545808816444,
video/Experiment/zh_sp01_Ti_Gr_3_NVocInAudio_GlobalThetaInVideo.avi,vocoded,plusVideo,sp01,Ti,Gr,3,1,1,flow/blocks/NVocInAudio_GlobalThetaInVideo_B.csv,,,,,,,,,0,1,1,1,0,1,1,22,-0.4101851851851852,-0.1361111111111111,1,0,0,5.189528099959716,call3,-0.01574074074074074,0.33194444444444443,1,0,0,5.923649100004695,colour1,0.32592592592592595,-0.15,1,0,0,7.8646035999991,number3,True,False,True,28,3,2019_Nov_18_1105,MA_Theta_Exp,3.0.7,59.901545808816444,
video/Experiment/zh_sp01_Ti_Gr_1_NVocInAudio_GlobalThetaInVideo.avi,vocoded,plusVideo,sp01,Ti,Gr,1,1,1,flow/blocks/NVocInAudio_GlobalThetaInVideo_B.csv,,,,,,,,,0,1,1,1,0,2,2,4,-0.3712962962962963,-0.14166666666666666,1,0,0,5.261514900019392,call3,0.038425925925925926,0.12083333333333333,1,0,0,5.846105400007218,colour2,0.38425925925925924,0.2833333333333333,1,0,0,6.610209999955259,number1,True,True,True,28,3,2019_Nov_18_1105,MA_Theta_Exp,3.0.7,59.901545808816444,
video/Experiment/zh_sp01_Ad_Gr_4_NVocInAudio_GlobalThetaInVideo.avi,vocoded,plusVideo,sp01,Ad,Gr,4,1,1,flow/blocks/NVocInAudio_GlobalThetaInVideo_B.csv,,,,,,,,,0,1,1,1,0,3,3,7,-0.3976851851851852,0.30416666666666664,1,0,0,5.48436150001362,call1,-0.000462962962962963,0.06111111111111111,1,0,0,6.002556200022809,colour2,0.3523148148148148,-0.2625,1,0,0,6.686635699938051,number4,True,True,True,28,3,2019_Nov_18_1105,MA_Theta_Exp,3.0.7,59.901545808816444,
video/Experiment/zh_sp01_Ad_Ge_2_NVocInAudio_GlobalThetaInVideo.avi,vocoded,plusVideo,sp01,Ad,Ge,2,1,1,flow/blocks/NVocInAudio_GlobalThetaInVideo_B.csv,,,,,,,,,0,1,1,1,0,4,4,1,-0.4337962962962963,0.2861111111111111,1,0,0,5.109532300033607,call1,-0.01574074074074074,0.2708333333333333,1,0,0,5.699163399985991,colour1,0.38842592592592595,0.12916666666666668,1,0,0,6.226528600091115,number2,True,True,True,28,3,2019_Nov_18_1105,MA_Theta_Exp,3.0.7,59.901545808816444,
video/Experiment/zh_sp07_Ad_Ro_2_NVocInAudio_GlobalThetaInVideo.avi,vocoded,plusVideo,sp07,Ad,Ro,2,1,1,flow/blocks/NVocInAudio_GlobalThetaInVideo_B.csv,,,,,,,,,0,1,1,1,0,5,5,25,-0.3476851851851852,0.29305555555555557,1,0,0,4.4818466999568045,call1,-0.010185185185185186,-0.10138888888888889,1,0,0,5.213239599950612,colour3,0.41064814814814815,0.09861111111111111,1,0,0,5.847978699952364,number2,True,True,True,28,3,2019_Nov_18_1105,MA_Theta_Exp,3.0.7,59.901545808816444,
video/Experiment/zh_sp01_Ad_Ge_3_NVocInAudio_GlobalThetaInVideo.avi,vocoded,plusVideo,sp01,Ad,Ge,3,1,1,flow/blocks/NVocInAudio_GlobalThetaInVideo_B.csv,,,,,,,,,0,1,1,1,0,6,6,18,-0.44212962962962965,0.28888888888888886,1,0,0,4.978912699967623,call1,0.03287037037037037,0.3055555555555556,1,0,0,5.661186299985275,colour1,0.43842592592592594,-0.12777777777777777,1,0,0,6.4425196999218315,number3,True,True,True,28,3,2019_Nov_18_1105,MA_Theta_Exp,3.0.7,59.901545808816444,
video/Experiment/zh_sp01_Dr_Ro_1_NVocInAudio_GlobalThetaInVideo.avi,vocoded,plusVideo,sp01,Dr,Ro,1,1,1,flow/blocks/NVocInAudio_GlobalThetaInVideo_B.csv,,,,,,,,,0,1,1,1,0,7,7,24,-0.39490740740740743,0.1111111111111111,1,0,0,5.298605800024234,call2,0.03564814814814815,-0.12638888888888888,1,0,0,6.0737725999206305,colour3,0.42314814814814816,0.30694444444444446,1,0,0,6.744174699997529,number1,True,True,True,28,3,2019_Nov_18_1105,MA_Theta_Exp,3.0.7,59.901545808816444,
video/Experiment/zh_sp01_Ti_We_3_NVocInAudio_GlobalThetaInVideo.avi,vocoded,plusVideo,sp01,Ti,We,3,1,1,flow/blocks/NVocInAudio_GlobalThetaInVideo_B.csv,,,,,,,,,0,1,1,1,0,8,8,30,-0.41712962962962963,0.2861111111111111,1,0,0,5.901053400011733,call1,-0.010185185185185186,-0.3486111111111111,1,0,0,6.809296800056472,colour4,0.42314814814814816,-0.14027777777777778,1,0,0,7.531114100012928,number3,False,True,True,28,3,2019_Nov_18_1105,MA_Theta_Exp,3.0.7,59.901545808816444,
video/Experiment/zh_sp07_Un_Gr_2_NVocInAudio_GlobalThetaInVideo.avi,vocoded,plusVideo,sp07,Un,Gr,2,1,1,flow/blocks/NVocInAudio_GlobalThetaInVideo_B.csv,,,,,,,,,0,1,1,1,0,9,9,5,-0.4337962962962963,-0.3013888888888889,1,0,0,4.544024000060745,call4,0.062037037037037036,0.08194444444444444,1,0,0,5.1754206999903545,colour2,0.47453703703703703,0.07222222222222222,1,0,0,5.6100570999551564,number2,True,True,True,28,3,2019_Nov_18_1105,MA_Theta_Exp,3.0.7,59.901545808816444,
video/Experiment/zh_sp07_Ti_Ro_1_NVocInAudio_GlobalThetaInVideo.avi,vocoded,plusVideo,sp07,Ti,Ro,1,1,1,flow/blocks/NVocInAudio_GlobalThetaInVideo_B.csv,,,,,,,,,0,1,1,1,0,10,10,8,-0.43796296296296294,0.10694444444444444,1,0,0,4.437675100052729,call2,-0.41574074074074074,-0.07083333333333333,1,0,0,5.459569299942814,colour3,0.36898148148148147,0.24444444444444444,1,0,0,7.9899561000056565,number1,False,True,True,28,3,2019_Nov_18_1105,MA_Theta_Exp,3.0.7,59.901545808816444,
video/Experiment/zh_sp01_Ad_Ro_3_NVocInAudio_GlobalThetaInVideo.avi,vocoded,plusVideo,sp01,Ad,Ro,3,1,1,flow/blocks/NVocInAudio_GlobalThetaInVideo_B.csv,,,,,,,,,0,1,1,1,0,11,11,10,-0.43796296296296294,0.31527777777777777,1,0,0,5.333467100048438,call1,-0.06018518518518518,-0.05555555555555555,1,0,0,6.483460200019181,colour3,0.3731481481481482,-0.12222222222222222,1,0,0,7.136059200041927,number3,True,True,True,28,3,2019_Nov_18_1105,MA_Theta_Exp,3.0.7,59.901545808816444,
video/Experiment/zh_sp07_Dr_We_3_NVocInAudio_GlobalThetaInVideo.avi,vocoded,plusVideo,sp07,Dr,We,3,1,1,flow/blocks/NVocInAudio_GlobalThetaInVideo_B.csv,,,,,,,,,0,1,1,1,0,12,12,14,-0.4601851851851852,0.13472222222222222,1,0,0,4.609404099988751,call2,-0.021296296296296296,-0.38472222222222224,1,0,0,5.623195299995132,colour4,0.37453703703703706,-0.07361111111111111,1,0,0,6.376641699927859,number3,True,True,True,28,3,2019_Nov_18_1105,MA_Theta_Exp,3.0.7,59.901545808816444,
video/Experiment/zh_sp01_Ti_Ro_4_NVocInAudio_GlobalThetaInVideo.avi,vocoded,plusVideo,sp01,Ti,Ro,4,1,1,flow/blocks/NVocInAudio_GlobalThetaInVideo_B.csv,,,,,,,,,0,1,1,1,0,13,13,11,-0.40185185185185185,-0.13194444444444445,1,0,0,5.880408599972725,call3,0.017592592592592594,-0.12638888888888888,1,0,0,6.627322299988009,colour3,0.4412037037037037,-0.3347222222222222,1,0,0,7.277376699959859,number4,True,True,True,28,3,2019_Nov_18_1105,MA_Theta_Exp,3.0.7,59.901545808816444,
video/Experiment/zh_sp07_Ti_We_2_NVocInAudio_GlobalThetaInVideo.avi,vocoded,plusVideo,sp07,Ti,We,2,1,1,flow/blocks/NVocInAudio_GlobalThetaInVideo_B.csv,,,,,,,,,0,1,1,1,0,14,14,29,-0.35185185185185186,-0.1111111111111111,1,0,0,5.410837100003846,call3,0.05925925925925926,-0.3611111111111111,1,0,0,6.131435599992983,colour4,0.4148148148148148,0.09166666666666666,1,0,0,6.930738899973221,number2,True,True,True,28,3,2019_Nov_18_1105,MA_Theta_Exp,3.0.7,59.901545808816444,
video/Experiment/zh_sp01_Un_Ge_1_NVocInAudio_GlobalThetaInVideo.avi,vocoded,plusVideo,sp01,Un,Ge,1,1,1,flow/blocks/NVocInAudio_GlobalThetaInVideo_B.csv,,,,,,,,,0,1,1,1,0,15,15,0,-0.4185185185185185,-0.2847222222222222,1,0,0,5.578550999984145,call4,-0.018518518518518517,0.35833333333333334,1,0,0,6.378656700020656,colour1,0.38981481481481484,0.29305555555555557,1,0,0,7.229520699940622,number1,True,True,True,28,3,2019_Nov_18_1105,MA_Theta_Exp,3.0.7,59.901545808816444,
video/Experiment/zh_sp01_Ad_Ge_4_NVocInAudio_GlobalThetaInVideo.avi,vocoded,plusVideo,sp01,Ad,Ge,4,1,1,flow/blocks/NVocInAudio_GlobalThetaInVideo_B.csv,,,,,,,,,0,1,1,1,0,16,16,3,-0.4351851851851852,0.29583333333333334,1,0,0,5.250457499991171,call1,-0.01712962962962963,0.30694444444444446,1,0,0,5.913551999954507,colour1,0.3592592592592593,-0.3347222222222222,1,0,0,6.708147399942391,number4,True,True,True,28,3,2019_Nov_18_1105,MA_Theta_Exp,3.0.7,59.901545808816444,
video/Experiment/zh_sp07_Dr_We_4_NVocInAudio_GlobalThetaInVideo.avi,vocoded,plusVideo,sp07,Dr,We,4,1,1,flow/blocks/NVocInAudio_GlobalThetaInVideo_B.csv,,,,,,,,,0,1,1,1,0,17,17,15,-0.38935185185185184,-0.3125,1,0,0,4.901513799908571,call4,-0.000462962962962963,-0.29583333333333334,1,0,0,5.600226400070824,colour4,0.45787037037037037,-0.3416666666666667,1,0,0,6.399783700006083,number4,False,True,True,28,3,2019_Nov_18_1105,MA_Theta_Exp,3.0.7,59.901545808816444,
video/Experiment/zh_sp07_Un_Ge_4_NVocInAudio_GlobalThetaInVideo.avi,vocoded,plusVideo,sp07,Un,Ge,4,1,1,flow/blocks/NVocInAudio_GlobalThetaInVideo_B.csv,,,,,,,,,0,1,1,1,0,18,18,19,-0.37824074074074077,-0.3111111111111111,1,0,0,4.510736599913798,call4,0.013425925925925926,0.37083333333333335,1,0,0,5.256175200105645,colour1,0.43703703703703706,-0.3527777777777778,1,0,0,6.024593100068159,number4,True,True,True,28,3,2019_Nov_18_1105,MA_Theta_Exp,3.0.7,59.901545808816444,
video/Experiment/zh_sp01_Ti_Gr_2_NVocInAudio_GlobalThetaInVideo.avi,vocoded,plusVideo,sp01,Ti,Gr,2,1,1,flow/blocks/NVocInAudio_GlobalThetaInVideo_B.csv,,,,,,,,,0,1,1,1,0,19,19,21,-0.4060185185185185,-0.12777777777777777,1,0,0,5.441646400024183,call3,-0.014351851851851852,0.11666666666666667,1,0,0,6.1527122000698,colour2,0.38287037037037036,0.11527777777777778,1,0,0,7.133818499976769,number2,True,True,True,28,3,2019_Nov_18_1105,MA_Theta_Exp,3.0.7,59.901545808816444,
video/Experiment/zh_sp07_Ad_Ge_1_NVocInAudio_GlobalThetaInVideo.avi,vocoded,plusVideo,sp07,Ad,Ge,1,1,1,flow/blocks/NVocInAudio_GlobalThetaInVideo_B.csv,,,,,,,,,0,1,1,1,0,20,20,16,-0.37546296296296294,0.2916666666666667,1,0,0,5.657302999985404,call1,-0.024074074074074074,0.2652777777777778,1,0,0,6.1676693999907,colour1,0.4078703703703704,0.28888888888888886,1,0,0,6.674101199954748,number1,True,True,True,28,3,2019_Nov_18_1105,MA_Theta_Exp,3.0.7,59.901545808816444,
video/Experiment/zh_sp07_Un_Ro_2_NVocInAudio_GlobalThetaInVideo.avi,vocoded,plusVideo,sp07,Un,Ro,2,1,1,flow/blocks/NVocInAudio_GlobalThetaInVideo_B.csv,,,,,,,,,0,1,1,1,0,21,21,9,-0.42407407407407405,-0.33611111111111114,1,0,0,4.375932800001465,call4,0.023148148148148147,-0.12777777777777777,1,0,0,4.992211599950679,colour3,0.3648148148148148,0.08194444444444444,1,0,0,5.723505400004797,number2,True,True,True,28,3,2019_Nov_18_1105,MA_Theta_Exp,3.0.7,59.901545808816444,
video/Experiment/zh_sp01_Un_Ro_4_NVocInAudio_GlobalThetaInVideo.avi,vocoded,plusVideo,sp01,Un,Ro,4,1,1,flow/blocks/NVocInAudio_GlobalThetaInVideo_B.csv,,,,,,,,,0,1,1,1,0,22,22,27,-0.4615740740740741,-0.30972222222222223,1,0,0,5.165496099973097,call4,0.00787037037037037,-0.075,1,0,0,5.984648900106549,colour3,0.4203703703703704,-0.31527777777777777,1,0,0,6.7505535000236705,number4,True,True,True,28,3,2019_Nov_18_1105,MA_Theta_Exp,3.0.7,59.901545808816444,
video/Experiment/zh_sp07_Ti_We_1_NVocInAudio_GlobalThetaInVideo.avi,vocoded,plusVideo,sp07,Ti,We,1,1,1,flow/blocks/NVocInAudio_GlobalThetaInVideo_B.csv,,,,,,,,,0,1,1,1,0,23,23,12,-0.3685185185185185,-0.09861111111111111,1,0,0,4.704222200089134,call3,0.04953703703703704,-0.3527777777777778,1,0,0,5.65203300002031,colour4,0.41203703703703703,0.29305555555555557,1,0,0,6.471526499954052,number1,True,True,True,28,3,2019_Nov_18_1105,MA_Theta_Exp,3.0.7,59.901545808816444,
video/Experiment/zh_sp07_Dr_Gr_1_NVocInAudio_GlobalThetaInVideo.avi,vocoded,plusVideo,sp07,Dr,Gr,1,1,1,flow/blocks/NVocInAudio_GlobalThetaInVideo_B.csv,,,,,,,,,0,1,1,1,0,24,24,20,-0.41574074074074074,0.09861111111111111,1,0,0,4.811675900011323,call2,0.03425925925925926,0.075,1,0,0,5.462018000078388,colour2,0.42453703703703705,0.3111111111111111,1,0,0,6.065485499915667,number1,True,True,True,28,3,2019_Nov_18_1105,MA_Theta_Exp,3.0.7,59.901545808816444,
video/Experiment/zh_sp07_Ad_We_4_NVocInAudio_GlobalThetaInVideo.avi,vocoded,plusVideo,sp07,Ad,We,4,1,1,flow/blocks/NVocInAudio_GlobalThetaInVideo_B.csv,,,,,,,,,0,1,1,1,0,25,25,31,-0.3560185185185185,0.33055555555555555,1,0,0,4.783019399968907,call1,-0.01990740740740741,-0.32916666666666666,1,0,0,5.478492200025357,colour4,0.43842592592592594,-0.30277777777777776,1,0,0,6.033897600020282,number4,True,True,True,28,3,2019_Nov_18_1105,MA_Theta_Exp,3.0.7,59.901545808816444,
video/Experiment/zh_sp07_Un_We_2_NVocInAudio_GlobalThetaInVideo.avi,vocoded,plusVideo,sp07,Un,We,2,1,1,flow/blocks/NVocInAudio_GlobalThetaInVideo_B.csv,,,,,,,,,0,1,1,1,0,26,26,13,-0.425462962962963,-0.35,1,0,0,5.515083000063896,call4,-0.021296296296296296,-0.30694444444444446,1,0,0,6.21666290005669,colour4,0.4064814814814815,0.08888888888888889,1,0,0,6.93583990004845,number2,True,True,True,28,3,2019_Nov_18_1105,MA_Theta_Exp,3.0.7,59.901545808816444,
video/Experiment/zh_sp07_Un_Gr_3_NVocInAudio_GlobalThetaInVideo.avi,vocoded,plusVideo,sp07,Un,Gr,3,1,1,flow/blocks/NVocInAudio_GlobalThetaInVideo_B.csv,,,,,,,,,0,1,1,1,0,27,27,6,-0.4101851851851852,-0.32916666666666666,1,0,0,4.588504799990915,call4,-0.033796296296296297,0.09444444444444444,1,0,0,5.525680999970064,colour2,0.37453703703703706,-0.11805555555555555,1,0,0,6.254541000002064,number3,True,True,True,28,3,2019_Nov_18_1105,MA_Theta_Exp,3.0.7,59.901545808816444,
video/Experiment/zh_sp01_Un_Gr_4_NVocInAudio_GlobalThetaInVideo.avi,vocoded,plusVideo,sp01,Un,Gr,4,1,1,flow/blocks/NVocInAudio_GlobalThetaInVideo_B.csv,,,,,,,,,0,1,1,1,0,28,28,23,-0.38935185185185184,-0.3125,1,0,0,5.701744799967855,call4,0.009259259259259259,0.10277777777777777,1,0,0,6.668000799953006,colour2,0.3675925925925926,-0.31666666666666665,1,0,0,7.368115100078285,number4,True,True,True,28,3,2019_Nov_18_1105,MA_Theta_Exp,3.0.7,59.901545808816444,
video/Experiment/zh_sp01_Dr_We_1_NVocInAudio_GlobalThetaInVideo.avi,vocoded,plusVideo,sp01,Dr,We,1,1,1,flow/blocks/NVocInAudio_GlobalThetaInVideo_B.csv,,,,,,,,,0,1,1,1,0,29,29,28,-0.38935185185185184,0.08611111111111111,1,0,0,5.247872700099833,call2,-0.018518518518518517,-0.3611111111111111,1,0,0,5.961084900074638,colour4,0.39675925925925926,0.28194444444444444,1,0,0,6.814049700042233,number1,True,True,True,28,3,2019_Nov_18_1105,MA_Theta_Exp,3.0.7,59.901545808816444,
video/Experiment/zh_sp07_Dr_Ro_3_NVocInAudio_GlobalThetaInVideo.avi,vocoded,plusVideo,sp07,Dr,Ro,3,1,1,flow/blocks/NVocInAudio_GlobalThetaInVideo_B.csv,,,,,,,,,0,1,1,1,0,30,30,26,-0.44212962962962965,0.1,1,0,0,5.566592399962246,call2,0.010648148148148148,-0.3333333333333333,1,0,0,7.136780699947849,colour4,0.4078703703703704,-0.09861111111111111,1,0,0,7.8981859999476,number3,True,False,True,28,3,2019_Nov_18_1105,MA_Theta_Exp,3.0.7,59.901545808816444,
video/Experiment/zh_sp07_Dr_Ge_2_NVocInAudio_GlobalThetaInVideo.avi,vocoded,plusVideo,sp07,Dr,Ge,2,1,1,flow/blocks/NVocInAudio_GlobalThetaInVideo_B.csv,,,,,,,,,0,1,1,1,0,31,31,17,-0.4337962962962963,0.0875,1,0,0,5.477047400083393,call2,-0.007407407407407408,0.30277777777777776,1,0,0,6.11850240000058,colour1,0.44814814814814813,0.1125,1,0,0,6.814849599963054,number2,True,True,True,28,3,2019_Nov_18_1105,MA_Theta_Exp,3.0.7,59.901545808816444,
video/Experiment/zh_sp01_Un_We_4_NoThetaInAudio_NoVideo.avi,noTheta,noVideo,sp01,Un,We,4,2,4,flow/blocks/NoThetaInAudio_NoVideo_A.csv,,,,,,,,,0,2,2,2,0,0,0,15,-0.4060185185185185,-0.3277777777777778,1,0,0,5.336436100071296,call4,-0.02546296296296296,-0.32083333333333336,1,0,0,6.077132600010373,colour4,0.45925925925925926,-0.325,1,0,0,6.80108130001463,number4,True,True,True,28,3,2019_Nov_18_1105,MA_Theta_Exp,3.0.7,59.901545808816444,
video/Experiment/zh_sp01_Un_We_3_NoThetaInAudio_NoVideo.avi,noTheta,noVideo,sp01,Un,We,3,2,4,flow/blocks/NoThetaInAudio_NoVideo_A.csv,,,,,,,,,0,2,2,2,0,1,1,14,-0.37962962962962965,-0.2972222222222222,1,0,0,4.879673599964008,call4,0.012037037037037037,-0.33055555555555555,1,0,0,5.461038700072095,colour4,0.4217592592592593,-0.12916666666666668,1,0,0,6.076209900085814,number3,True,True,True,28,3,2019_Nov_18_1105,MA_Theta_Exp,3.0.7,59.901545808816444,
video/Experiment/zh_sp07_Dr_Ge_4_NoThetaInAudio_NoVideo.avi,noTheta,noVideo,sp07,Dr,Ge,4,2,4,flow/blocks/NoThetaInAudio_NoVideo_A.csv,,,,,,,,,0,2,2,2,0,2,2,19,-0.4185185185185185,-0.11388888888888889,1,0,0,5.9656457999954,call3,0.014814814814814815,0.3125,1,0,0,6.680363400024362,colour1,0.4078703703703704,-0.3263888888888889,1,0,0,7.332502200035378,number4,False,True,True,28,3,2019_Nov_18_1105,MA_Theta_Exp,3.0.7,59.901545808816444,
video/Experiment/zh_sp07_Ti_Ge_4_NoThetaInAudio_NoVideo.avi,noTheta,noVideo,sp07,Ti,Ge,4,2,4,flow/blocks/NoThetaInAudio_NoVideo_A.csv,,,,,,,,,0,2,2,2,0,3,3,3,-0.36018518518518516,-0.3111111111111111,1,0,0,7.7923311000922695,call4,-0.032407407407407406,-0.14027777777777778,1,0,0,8.262097400031053,colour3,0.38842592592592595,-0.37083333333333335,1,0,0,8.73056259995792,number4,False,False,True,28,3,2019_Nov_18_1105,MA_Theta_Exp,3.0.7,59.901545808816444,
video/Experiment/zh_sp07_Ti_Ro_3_NoThetaInAudio_NoVideo.avi,noTheta,noVideo,sp07,Ti,Ro,3,2,4,flow/blocks/NoThetaInAudio_NoVideo_A.csv,,,,,,,,,0,2,2,2,0,4,4,10,-0.40185185185185185,-0.13333333333333333,1,0,0,4.395409899996594,call3,0.003703703703703704,-0.12916666666666668,1,0,0,4.889792099944316,colour3,0.4425925925925926,-0.08472222222222223,1,0,0,5.5715974000049755,number3,True,True,True,28,3,2019_Nov_18_1105,MA_Theta_Exp,3.0.7,59.901545808816444,
video/Experiment/zh_sp07_Ad_We_2_NoThetaInAudio_NoVideo.avi,noTheta,noVideo,sp07,Ad,We,2,2,4,flow/blocks/NoThetaInAudio_NoVideo_A.csv,,,,,,,,,0,2,2,2,0,5,5,29,-0.4310185185185185,0.3125,1,0,0,4.671911199926399,call1,0.016203703703703703,-0.32916666666666666,1,0,0,5.58929180004634,colour4,0.4203703703703704,0.05277777777777778,1,0,0,6.323499400052242,number2,True,True,True,28,3,2019_Nov_18_1105,MA_Theta_Exp,3.0.7,59.901545808816444,
video/Experiment/zh_sp07_Ad_Ro_4_NoThetaInAudio_NoVideo.avi,noTheta,noVideo,sp07,Ad,Ro,4,2,4,flow/blocks/NoThetaInAudio_NoVideo_A.csv,,,,,,,,,0,2,2,2,0,6,6,11,-0.42685185185185187,0.325,1,0,0,5.129183799959719,call1,-0.05324074074074074,-0.34305555555555556,1,0,0,5.86023390002083,colour4,0.3773148148148148,-0.08888888888888889,1,0,0,6.543971400009468,number3,True,False,False,28,3,2019_Nov_18_1105,MA_Theta_Exp,3.0.7,59.901545808816444,
video/Experiment/zh_sp07_Un_Ge_2_NoThetaInAudio_NoVideo.avi,noTheta,noVideo,sp07,Un,Ge,2,2,4,flow/blocks/NoThetaInAudio_NoVideo_A.csv,,,,,,,,,0,2,2,2,0,7,7,17,-0.41712962962962963,-0.3402777777777778,1,0,0,5.31783119996544,call4,0.000925925925925926,-0.3277777777777778,1,0,0,7.740853799972683,colour4,0.3662037037037037,0.03611111111111111,1,0,0,8.303034499986097,number2,True,False,True,28,3,2019_Nov_18_1105,MA_Theta_Exp,3.0.7,59.901545808816444,
video/Experiment/zh_sp07_Un_We_1_NoThetaInAudio_NoVideo.avi,noTheta,noVideo,sp07,Un,We,1,2,4,flow/blocks/NoThetaInAudio_NoVideo_A.csv,,,,,,,,,0,2,2,2,0,8,8,28,-0.40324074074074073,-0.3236111111111111,1,0,0,4.321250700042583,call4,-0.03796296296296296,-0.32916666666666666,1,0,0,4.967991799931042,colour4,0.37037037037037035,0.2986111111111111,1,0,0,5.8142394999740645,number1,True,True,True,28,3,2019_Nov_18_1105,MA_Theta_Exp,3.0.7,59.901545808816444,
video/Experiment/zh_sp07_Ti_Ge_3_NoThetaInAudio_NoVideo.avi,noTheta,noVideo,sp07,Ti,Ge,3,2,4,flow/blocks/NoThetaInAudio_NoVideo_A.csv,,,,,,,,,0,2,2,2,0,9,9,18,-0.39490740740740743,-0.13194444444444445,1,0,0,5.325826400076039,call3,0.009259259259259259,0.2847222222222222,1,0,0,6.059296300052665,colour1,0.39537037037037037,-0.09722222222222222,1,0,0,6.83930600003805,number3,True,True,True,28,3,2019_Nov_18_1105,MA_Theta_Exp,3.0.7,59.901545808816444,
video/Experiment/zh_sp01_Ad_Gr_1_NoThetaInAudio_NoVideo.avi,noTheta,noVideo,sp01,Ad,Gr,1,2,4,flow/blocks/NoThetaInAudio_NoVideo_A.csv,,,,,,,,,0,2,2,2,0,10,10,4,-0.39351851851851855,0.2861111111111111,1,0,0,5.431664100033231,call1,-0.01990740740740741,0.11388888888888889,1,0,0,6.229302100022323,colour2,0.42592592592592593,0.3138888888888889,1,0,0,6.9596617999486625,number1,True,True,True,28,3,2019_Nov_18_1105,MA_Theta_Exp,3.0.7,59.901545808816444,
video/Experiment/zh_sp01_Ad_Ro_1_NoThetaInAudio_NoVideo.avi,noTheta,noVideo,sp01,Ad,Ro,1,2,4,flow/blocks/NoThetaInAudio_NoVideo_A.csv,,,,,,,,,0,2,2,2,0,11,11,8,-0.4074074074074074,0.25555555555555554,1,0,0,5.391137600061484,call1,-0.047685185185185185,-0.13055555555555556,1,0,0,6.840924700023606,colour3,0.399537037037037,0.27361111111111114,1,0,0,7.427361999987625,number1,True,True,True,28,3,2019_Nov_18_1105,MA_Theta_Exp,3.0.7,59.901545808816444,
video/Experiment/zh_sp01_Dr_Gr_4_NoThetaInAudio_NoVideo.avi,noTheta,noVideo,sp01,Dr,Gr,4,2,4,flow/blocks/NoThetaInAudio_NoVideo_A.csv,,,,,,,,,0,2,2,2,0,12,12,23,-0.39490740740740743,0.09166666666666666,1,0,0,5.506086400011554,call2,0.03981481481481482,0.07916666666666666,1,0,0,6.1402391999727115,colour2,0.4273148148148148,-0.31666666666666665,1,0,0,6.940202500089072,number4,True,True,True,28,3,2019_Nov_18_1105,MA_Theta_Exp,3.0.7,59.901545808816444,
video/Experiment/zh_sp07_Ad_Gr_2_NoThetaInAudio_NoVideo.avi,noTheta,noVideo,sp07,Ad,Gr,2,2,4,flow/blocks/NoThetaInAudio_NoVideo_A.csv,,,,,,,,,0,2,2,2,0,13,13,21,-0.412962962962963,0.21805555555555556,1,0,0,5.436725400038995,call1,0.005092592592592593,0.0625,1,0,0,9.03822680003941,colour2,0.3925925925925926,0.034722222222222224,1,0,0,9.687569599947892,number2,True,True,True,28,3,2019_Nov_18_1105,MA_Theta_Exp,3.0.7,59.901545808816444,
video/Experiment/zh_sp01_Dr_Gr_3_NoThetaInAudio_NoVideo.avi,noTheta,noVideo,sp01,Dr,Gr,3,2,4,flow/blocks/NoThetaInAudio_NoVideo_A.csv,,,,,,,,,0,2,2,2,0,14,14,6,-0.42407407407407405,0.10277777777777777,1,0,0,5.057514299987815,call2,-0.0032407407407407406,0.09166666666666666,1,0,0,5.857875399990007,colour2,0.43425925925925923,-0.14027777777777778,1,0,0,6.507667699945159,number3,True,True,True,28,3,2019_Nov_18_1105,MA_Theta_Exp,3.0.7,59.901545808816444,
video/Experiment/zh_sp01_Ti_Ge_1_NoThetaInAudio_NoVideo.avi,noTheta,noVideo,sp01,Ti,Ge,1,2,4,flow/blocks/NoThetaInAudio_NoVideo_A.csv,,,,,,,,,0,2,2,2,0,15,15,16,-0.38796296296296295,-0.1,1,0,0,6.582900400040671,call3,0.0412037037037037,0.26666666666666666,1,0,0,7.348998199915513,colour1,0.3912037037037037,0.28194444444444444,1,0,0,8.03564939997159,number1,True,True,True,28,3,2019_Nov_18_1105,MA_Theta_Exp,3.0.7,59.901545808816444,
video/Experiment/zh_sp01_Ad_We_1_NoThetaInAudio_NoVideo.avi,noTheta,noVideo,sp01,Ad,We,1,2,4,flow/blocks/NoThetaInAudio_NoVideo_A.csv,,,,,,,,,0,2,2,2,0,16,16,12,-0.4212962962962963,-0.32222222222222224,1,0,0,6.29082659992855,call4,-0.05462962962962963,-0.3111111111111111,1,0,0,6.760970399947837,colour4,0.4148148148148148,0.2777777777777778,1,0,0,7.469482599990442,number1,False,True,True,28,3,2019_Nov_18_1105,MA_Theta_Exp,3.0.7,59.901545808816444,
video/Experiment/zh_sp01_Ad_We_3_NoThetaInAudio_NoVideo.avi,noTheta,noVideo,sp01,Ad,We,3,2,4,flow/blocks/NoThetaInAudio_NoVideo_A.csv,,,,,,,,,0,2,2,2,0,17,17,30,-0.41435185185185186,0.25277777777777777,1,0,0,5.337764299940318,call1,-0.06296296296296296,-0.3236111111111111,1,0,0,6.034637000062503,colour4,0.35509259259259257,-0.13055555555555556,1,0,0,6.578173200017773,number3,True,True,True,28,3,2019_Nov_18_1105,MA_Theta_Exp,3.0.7,59.901545808816444,
video/Experiment/zh_sp01_Dr_Ro_2_NoThetaInAudio_NoVideo.avi,noTheta,noVideo,sp01,Dr,Ro,2,2,4,flow/blocks/NoThetaInAudio_NoVideo_A.csv,,,,,,,,,0,2,2,2,0,18,18,9,-0.38935185185185184,0.10138888888888889,1,0,0,10.434088699985296,call2,-0.05740740740740741,-0.12916666666666668,1,0,0,10.851074500009418,colour3,0.3287037037037037,0.027777777777777776,1,0,0,11.196892899926752,number2,True,True,True,28,3,2019_Nov_18_1105,MA_Theta_Exp,3.0.7,59.901545808816444,
video/Experiment/zh_sp07_Ti_Ro_2_NoThetaInAudio_NoVideo.avi,noTheta,noVideo,sp07,Ti,Ro,2,2,4,flow/blocks/NoThetaInAudio_NoVideo_A.csv,,,,,,,,,0,2,2,2,0,19,19,25,-0.4060185185185185,-0.1597222222222222,1,0,0,4.782068599946797,call3,-0.024074074074074074,-0.14722222222222223,1,0,0,5.266744800028391,colour3,0.4217592592592593,0.09305555555555556,1,0,0,5.81530879996717,number2,True,True,True,28,3,2019_Nov_18_1105,MA_Theta_Exp,3.0.7,59.901545808816444,
video/Experiment/zh_sp07_Ti_Gr_4_NoThetaInAudio_NoVideo.avi,noTheta,noVideo,sp07,Ti,Gr,4,2,4,flow/blocks/NoThetaInAudio_NoVideo_A.csv,,,,,,,,,0,2,2,2,0,20,20,7,-0.4101851851851852,-0.13472222222222222,1,0,0,4.653316700016148,call3,0.013425925925925926,0.06944444444444445,1,0,0,5.3667077999562025,colour2,0.387037037037037,-0.2916666666666667,1,0,0,6.07038710010238,number4,True,True,True,28,3,2019_Nov_18_1105,MA_Theta_Exp,3.0.7,59.901545808816444,
video/Experiment/zh_sp07_Dr_Ro_4_NoThetaInAudio_NoVideo.avi,noTheta,noVideo,sp07,Dr,Ro,4,2,4,flow/blocks/NoThetaInAudio_NoVideo_A.csv,,,,,,,,,0,2,2,2,0,21,21,27,-0.36018518518518516,-0.10138888888888889,1,0,0,8.755265699932352,call3,0.013425925925925926,0.043055555555555555,1,0,0,9.959846600075252,colour2,0.4287037037037037,-0.31527777777777777,1,0,0,10.384137200075202,number4,False,False,True,28,3,2019_Nov_18_1105,MA_Theta_Exp,3.0.7,59.901545808816444,
video/Experiment/zh_sp07_Ti_Ge_2_NoThetaInAudio_NoVideo.avi,noTheta,noVideo,sp07,Ti,Ge,2,2,4,flow/blocks/NoThetaInAudio_NoVideo_A.csv,,,,,,,,,0,2,2,2,0,22,22,1,-0.38796296296296295,0.04027777777777778,1,0,0,8.336454200092703,call2,0.01898148148148148,0.25,1,0,0,9.124135300051421,colour1,0.4064814814814815,-0.3111111111111111,1,0,0,9.774644699995406,number4,False,True,False,28,3,2019_Nov_18_1105,MA_Theta_Exp,3.0.7,59.901545808816444,
video/Experiment/zh_sp01_Un_Ro_1_NoThetaInAudio_NoVideo.avi,noTheta,noVideo,sp01,Un,Ro,1,2,4,flow/blocks/NoThetaInAudio_NoVideo_A.csv,,,,,,,,,0,2,2,2,0,23,23,24,-0.38101851851851853,-0.33611111111111114,1,0,0,5.151809300063178,call4,0.03287037037037037,-0.11805555555555555,1,0,0,5.739887099945918,colour3,0.4023148148148148,0.29305555555555557,1,0,0,6.373379399999976,number1,True,True,True,28,3,2019_Nov_18_1105,MA_Theta_Exp,3.0.7,59.901545808816444,
video/Experiment/zh_sp01_Dr_We_2_NoThetaInAudio_NoVideo.avi,noTheta,noVideo,sp01,Dr,We,2,2,4,flow/blocks/NoThetaInAudio_NoVideo_A.csv,,,,,,,,,0,2,2,2,0,24,24,13,-0.4393518518518518,0.0875,1,0,0,6.331435899948701,call2,0.005092592592592593,-0.325,1,0,0,7.000261400011368,colour4,0.36342592592592593,0.043055555555555555,1,0,0,9.656774999923073,number2,True,True,True,28,3,2019_Nov_18_1105,MA_Theta_Exp,3.0.7,59.901545808816444,
video/Experiment/zh_sp07_Un_Ge_3_NoThetaInAudio_NoVideo.avi,noTheta,noVideo,sp07,Un,Ge,3,2,4,flow/blocks/NoThetaInAudio_NoVideo_A.csv,,,,,,,,,0,2,2,2,0,25,25,2,-0.4476851851851852,-0.3,1,0,0,5.07723709999118,call4,-0.014351851851851852,0.12222222222222222,1,0,0,10.627209299942479,colour2,0.4023148148148148,-0.11527777777777778,1,0,0,11.026730599929579,number3,True,False,True,28,3,2019_Nov_18_1105,MA_Theta_Exp,3.0.7,59.901545808816444,
video/Experiment/zh_sp01_Un_Ro_3_NoThetaInAudio_NoVideo.avi,noTheta,noVideo,sp01,Un,Ro,3,2,4,flow/blocks/NoThetaInAudio_NoVideo_A.csv,,,,,,,,,0,2,2,2,0,26,26,26,-0.37824074074074077,-0.30833333333333335,1,0,0,5.114997500088066,call4,0.016203703703703703,-0.10138888888888889,1,0,0,5.732577400049195,colour3,0.4217592592592593,-0.14166666666666666,1,0,0,6.278432999970391,number3,True,True,True,28,3,2019_Nov_18_1105,MA_Theta_Exp,3.0.7,59.901545808816444,
video/Experiment/zh_sp07_Dr_Ge_1_NoThetaInAudio_NoVideo.avi,noTheta,noVideo,sp07,Dr,Ge,1,2,4,flow/blocks/NoThetaInAudio_NoVideo_A.csv,,,,,,,,,0,2,2,2,0,27,27,0,-0.40185185185185185,-0.29444444444444445,1,0,0,8.982327500008978,call4,0.08287037037037037,0.05,1,0,0,10.366669099894352,colour2,0.3662037037037037,0.2916666666666667,1,0,0,10.81471970002167,number1,False,False,True,28,3,2019_Nov_18_1105,MA_Theta_Exp,3.0.7,59.901545808816444,
video/Experiment/zh_sp01_Ti_We_4_NoThetaInAudio_NoVideo.avi,noTheta,noVideo,sp01,Ti,We,4,2,4,flow/blocks/NoThetaInAudio_NoVideo_A.csv,,,,,,,,,0,2,2,2,0,28,28,31,-0.40324074074074073,-0.15416666666666667,1,0,0,6.822380999918096,call3,-0.03657407407407407,-0.37916666666666665,1,0,0,7.573021400021389,colour4,0.399537037037037,-0.4083333333333333,1,0,0,8.004031400079839,number4,True,True,True,28,3,2019_Nov_18_1105,MA_Theta_Exp,3.0.7,59.901545808816444,
video/Experiment/zh_sp01_Ad_Gr_3_NoThetaInAudio_NoVideo.avi,noTheta,noVideo,sp01,Ad,Gr,3,2,4,flow/blocks/NoThetaInAudio_NoVideo_A.csv,,,,,,,,,0,2,2,2,0,29,29,22,-0.45046296296296295,0.05555555555555555,1,0,0,10.406954300007783,call2,-0.04490740740740741,0.07361111111111111,1,0,0,10.901521399966441,colour2,0.34675925925925927,-0.10416666666666667,1,0,0,11.537322399904951,number3,False,True,True,28,3,2019_Nov_18_1105,MA_Theta_Exp,3.0.7,59.901545808816444,
video/Experiment/zh_sp01_Un_Gr_1_NoThetaInAudio_NoVideo.avi,noTheta,noVideo,sp01,Un,Gr,1,2,4,flow/blocks/NoThetaInAudio_NoVideo_A.csv,,,,,,,,,0,2,2,2,0,30,30,20,-0.34629629629629627,-0.3680555555555556,1,0,0,5.1987481999676675,call4,-0.01574074074074074,0.08333333333333333,1,0,0,5.847436300013214,colour2,0.4009259259259259,0.30277777777777776,1,0,0,6.439334900001995,number1,True,True,True,28,3,2019_Nov_18_1105,MA_Theta_Exp,3.0.7,59.901545808816444,
video/Experiment/zh_sp07_Dr_Gr_2_NoThetaInAudio_NoVideo.avi,noTheta,noVideo,sp07,Dr,Gr,2,2,4,flow/blocks/NoThetaInAudio_NoVideo_A.csv,,,,,,,,,0,2,2,2,0,31,31,5,-0.47824074074074074,0.11388888888888889,1,0,0,5.635926800081506,call2,-0.03935185185185185,0.1125,1,0,0,6.199339600047097,colour2,0.41898148148148145,0.0875,1,0,0,6.672730999998748,number2,True,True,True,28,3,2019_Nov_18_1105,MA_Theta_Exp,3.0.7,59.901545808816444,
