videoFile,condition,video,speaker,callSign,colour,number,seq,id,block,exp.thisRepN,exp.thisTrialN,exp.thisN,exp.thisIndex,training.thisRepN,training.thisTrialN,training.thisN,training.thisIndex,firstHalf.thisRepN,firstHalf.thisTrialN,firstHalf.thisN,firstHalf.thisIndex,blocksA.thisRepN,blocksA.thisTrialN,blocksA.thisN,blocksA.thisIndex,secondHalf.thisRepN,secondHalf.thisTrialN,secondHalf.thisN,secondHalf.thisIndex,blocksB.thisRepN,blocksB.thisTrialN,blocksB.thisN,blocksB.thisIndex,mouseClickOnCall.x,mouseClickOnCall.y,mouseClickOnCall.leftButton,mouseClickOnCall.midButton,mouseClickOnCall.rightButton,mouseClickOnCall.time,mouseClickOnCall.clicked_name,mouseClickOnColour.x,mouseClickOnColour.y,mouseClickOnColour.leftButton,mouseClickOnColour.midButton,mouseClickOnColour.rightButton,mouseClickOnColour.time,mouseClickOnColour.clicked_name,mouseClickOnNumber.x,mouseClickOnNumber.y,mouseClickOnNumber.leftButton,mouseClickOnNumber.midButton,mouseClickOnNumber.rightButton,mouseClickOnNumber.time,mouseClickOnNumber.clicked_name,callSignCorrect,colourCorrect,numberCorrect,participant,order,date,expName,psychopyVersion,frameRate,
video/Training/zh_sp01_Ad_We_4_NVocInAudio_NoVideo.avi,vocoded,noVideo,sp01,Ad,We,4,,,,,,,,0,0,0,0,,,,,,,,,,,,,,,,,-0.3875,0.3347222222222222,1,0,0,7.324221199960448,call1,0.002777777777777778,-0.2902777777777778,1,0,0,9.205140999983996,colour4,0.4388888888888889,-0.3013888888888889,1,0,0,9.83692070003599,number4,True,True,True,30,5,2019_Nov_18_1309,MA_Theta_Exp,3.0.7,60.31592273020391,
video/Training/zh_sp07_Ad_Ge_3_NVocInAudio_NoVideo.avi,vocoded,noVideo,sp07,Ad,Ge,3,,,,,,,,0,1,1,1,,,,,,,,,,,,,,,,,-0.39305555555555555,0.29305555555555557,1,0,0,4.934112099930644,call1,-0.005555555555555556,0.2833333333333333,1,0,0,6.035073300008662,colour1,0.4083333333333333,-0.10694444444444444,1,0,0,6.8855167999863625,number3,True,True,True,30,5,2019_Nov_18_1309,MA_Theta_Exp,3.0.7,60.31592273020391,
video/Training/zh_sp01_Dr_Ro_3_NVocInAudio_GlobalThetaInVideo.avi,vocoded,plusVideo,sp01,Dr,Ro,3,,,,,,,,0,2,2,2,,,,,,,,,,,,,,,,,-0.40555555555555556,0.09861111111111111,1,0,0,5.202035200083628,call2,0.05555555555555555,-0.1361111111111111,1,0,0,6.069618000066839,colour3,0.3958333333333333,-0.10277777777777777,1,0,0,6.765704300021753,number3,True,True,True,30,5,2019_Nov_18_1309,MA_Theta_Exp,3.0.7,60.31592273020391,
video/Training/zh_sp07_Dr_Gr_4_NVocInAudio_GlobalThetaInVideo.avi,vocoded,plusVideo,sp07,Dr,Gr,4,,,,,,,,0,3,3,3,,,,,,,,,,,,,,,,,-0.3888888888888889,0.09861111111111111,1,0,0,4.559269100078382,call2,0.022222222222222223,0.07916666666666666,1,0,0,5.2388477000640705,colour2,0.3611111111111111,-0.29305555555555557,1,0,0,6.006911300006323,number4,True,True,True,30,5,2019_Nov_18_1309,MA_Theta_Exp,3.0.7,60.31592273020391,
video/Training/zh_sp01_Ti_Gr_2_NoThetaInAudio_NoVideo.avi,noTheta,noVideo,sp01,Ti,Gr,2,,,,,,,,0,4,4,4,,,,,,,,,,,,,,,,,-0.3611111111111111,0.12777777777777777,1,0,0,6.279983900021762,call2,-0.02638888888888889,0.10972222222222222,1,0,0,6.778885500039905,colour2,0.3638888888888889,0.09722222222222222,1,0,0,7.323670299956575,number2,False,True,True,30,5,2019_Nov_18_1309,MA_Theta_Exp,3.0.7,60.31592273020391,
video/Training/zh_sp07_Ti_Ro_1_NoThetaInAudio_NoVideo.avi,noTheta,noVideo,sp07,Ti,Ro,1,,,,,,,,0,5,5,5,,,,,,,,,,,,,,,,,-0.3861111111111111,-0.10138888888888889,1,0,0,4.457313299993984,call3,-0.006944444444444444,-0.10694444444444444,1,0,0,5.122111800010316,colour3,0.375,0.29305555555555557,1,0,0,5.791775000048801,number1,True,True,True,30,5,2019_Nov_18_1309,MA_Theta_Exp,3.0.7,60.31592273020391,
video/Training/zh_sp01_Un_Ge_1_NoThetaInAudio_GlobalThetaInVideo.avi,noTheta,plusVideo,sp01,Un,Ge,1,,,,,,,,0,6,6,6,,,,,,,,,,,,,,,,,-0.4111111111111111,-0.30416666666666664,1,0,0,5.760287299985066,call4,-0.05138888888888889,0.08611111111111111,1,0,0,6.434510500053875,colour2,0.3416666666666667,0.3013888888888889,1,0,0,7.011585999978706,number1,True,False,True,30,5,2019_Nov_18_1309,MA_Theta_Exp,3.0.7,60.31592273020391,
video/Training/zh_sp07_Un_We_2_NoThetaInAudio_GlobalThetaInVideo.avi,noTheta,plusVideo,sp07,Un,We,2,,,,,,,,0,7,7,7,,,,,,,,,,,,,,,,,-0.4041666666666667,-0.2833333333333333,1,0,0,6.355343000032008,call4,0.0625,0.09444444444444444,1,0,0,8.039378699962981,colour2,0.3680555555555556,0.1361111111111111,1,0,0,8.48919350001961,number2,True,False,True,30,5,2019_Nov_18_1309,MA_Theta_Exp,3.0.7,60.31592273020391,
video/Training/zh_sp01_Ad_Ge_1_GlobalTheta_NoVideo.avi,globalTheta,noVideo,sp01,Ad,Ge,1,,,,,,,,0,8,8,8,,,,,,,,,,,,,,,,,0.015277777777777777,0.29583333333333334,1,0,0,9.500427899998613,,,,,,,,,,,,,,,,NO_ANSW,NO_ANSW,NO_ANSW,30,5,2019_Nov_18_1309,MA_Theta_Exp,3.0.7,60.31592273020391,
video/Training/zh_sp07_Ad_Ro_3_GlobalTheta_NoVideo.avi,globalTheta,noVideo,sp07,Ad,Ro,3,,,,,,,,0,9,9,9,,,,,,,,,,,,,,,,,-0.39444444444444443,0.10277777777777777,1,0,0,4.489253500010818,call2,0.03888888888888889,-0.09722222222222222,1,0,0,6.307114099967293,colour3,0.43472222222222223,0.09166666666666666,1,0,0,6.77593259990681,number2,False,True,False,30,5,2019_Nov_18_1309,MA_Theta_Exp,3.0.7,60.31592273020391,
video/Experiment/zh_sp01_Un_We_3_NoThetaInAudio_NoVideo.avi,noTheta,noVideo,sp01,Un,We,3,0,4,flow/blocks/NoThetaInAudio_NoVideo_A.csv,,,,,,,,,0,0,0,0,0,0,0,14,,,,,,,,,-0.3388888888888889,-0.3055555555555556,1,0,0,5.371080499957316,call4,-0.002777777777777778,-0.2902777777777778,1,0,0,6.3211367999901995,colour4,0.3680555555555556,-0.13333333333333333,1,0,0,6.937862999970093,number3,True,True,True,30,5,2019_Nov_18_1309,MA_Theta_Exp,3.0.7,60.31592273020391,
video/Experiment/zh_sp01_Un_Gr_1_NoThetaInAudio_NoVideo.avi,noTheta,noVideo,sp01,Un,Gr,1,0,4,flow/blocks/NoThetaInAudio_NoVideo_A.csv,,,,,,,,,0,0,0,0,0,1,1,20,,,,,,,,,-0.3402777777777778,0.13194444444444445,1,0,0,6.095853899954818,call2,-0.020833333333333332,0.06805555555555555,1,0,0,6.5970034000929445,colour2,0.4111111111111111,0.2902777777777778,1,0,0,7.132693300023675,number1,False,True,True,30,5,2019_Nov_18_1309,MA_Theta_Exp,3.0.7,60.31592273020391,
video/Experiment/zh_sp01_Ad_Gr_1_NoThetaInAudio_NoVideo.avi,noTheta,noVideo,sp01,Ad,Gr,1,0,4,flow/blocks/NoThetaInAudio_NoVideo_A.csv,,,,,,,,,0,0,0,0,0,2,2,4,,,,,,,,,-0.3972222222222222,0.2708333333333333,1,0,0,5.38461280008778,call1,0.004166666666666667,0.03611111111111111,1,0,0,5.934721800033003,colour2,0.4111111111111111,0.25277777777777777,1,0,0,6.400969599955715,number1,True,True,True,30,5,2019_Nov_18_1309,MA_Theta_Exp,3.0.7,60.31592273020391,
video/Experiment/zh_sp07_Un_We_1_NoThetaInAudio_NoVideo.avi,noTheta,noVideo,sp07,Un,We,1,0,4,flow/blocks/NoThetaInAudio_NoVideo_A.csv,,,,,,,,,0,0,0,0,0,3,3,28,,,,,,,,,-0.45,-0.2972222222222222,1,0,0,4.9684511999366805,call4,-0.016666666666666666,0.08055555555555556,1,0,0,5.851341199944727,colour2,0.37083333333333335,0.3055555555555556,1,0,0,6.417866600095294,number1,True,False,True,30,5,2019_Nov_18_1309,MA_Theta_Exp,3.0.7,60.31592273020391,
video/Experiment/zh_sp07_Un_Ge_3_NoThetaInAudio_NoVideo.avi,noTheta,noVideo,sp07,Un,Ge,3,0,4,flow/blocks/NoThetaInAudio_NoVideo_A.csv,,,,,,,,,0,0,0,0,0,4,4,2,,,,,,,,,-0.32916666666666666,0.09305555555555556,1,0,0,5.383234200067818,call2,0.03888888888888889,-0.30277777777777776,1,0,0,6.498991700005718,colour4,0.4263888888888889,-0.09722222222222222,1,0,0,7.048462999984622,number3,False,False,True,30,5,2019_Nov_18_1309,MA_Theta_Exp,3.0.7,60.31592273020391,
video/Experiment/zh_sp01_Un_Ro_1_NoThetaInAudio_NoVideo.avi,noTheta,noVideo,sp01,Un,Ro,1,0,4,flow/blocks/NoThetaInAudio_NoVideo_A.csv,,,,,,,,,0,0,0,0,0,5,5,24,,,,,,,,,-0.3972222222222222,-0.3,1,0,0,5.625686699990183,call4,0.06527777777777778,-0.15,1,0,0,6.826210599974729,colour3,0.40555555555555556,0.29583333333333334,1,0,0,7.478598600020632,number1,True,True,True,30,5,2019_Nov_18_1309,MA_Theta_Exp,3.0.7,60.31592273020391,
video/Experiment/zh_sp07_Ti_Gr_4_NoThetaInAudio_NoVideo.avi,noTheta,noVideo,sp07,Ti,Gr,4,0,4,flow/blocks/NoThetaInAudio_NoVideo_A.csv,,,,,,,,,0,0,0,0,0,6,6,7,,,,,,,,,-0.34444444444444444,-0.05416666666666667,1,0,0,5.000703199999407,call3,0.018055555555555554,0.10277777777777777,1,0,0,5.5506409999215975,colour2,0.3736111111111111,-0.275,1,0,0,6.067876500077546,number4,True,True,True,30,5,2019_Nov_18_1309,MA_Theta_Exp,3.0.7,60.31592273020391,
video/Experiment/zh_sp07_Ti_Ro_2_NoThetaInAudio_NoVideo.avi,noTheta,noVideo,sp07,Ti,Ro,2,0,4,flow/blocks/NoThetaInAudio_NoVideo_A.csv,,,,,,,,,0,0,0,0,0,7,7,25,,,,,,,,,-0.35138888888888886,-0.31805555555555554,1,0,0,7.954575399984606,call4,0.05694444444444444,-0.2611111111111111,1,0,0,9.840277799987234,colour4,0.3611111111111111,0.08888888888888889,1,0,0,10.47514459991362,number2,False,False,True,30,5,2019_Nov_18_1309,MA_Theta_Exp,3.0.7,60.31592273020391,
video/Experiment/zh_sp01_Ti_We_4_NoThetaInAudio_NoVideo.avi,noTheta,noVideo,sp01,Ti,We,4,0,4,flow/blocks/NoThetaInAudio_NoVideo_A.csv,,,,,,,,,0,0,0,0,0,8,8,31,,,,,,,,,-0.36666666666666664,-0.0875,1,0,0,6.3102858000202104,call3,-0.027777777777777776,-0.3458333333333333,1,0,0,7.111118200002238,colour4,0.33611111111111114,-0.35138888888888886,1,0,0,7.7932365000015125,number4,True,True,True,30,5,2019_Nov_18_1309,MA_Theta_Exp,3.0.7,60.31592273020391,
video/Experiment/zh_sp07_Ti_Ge_4_NoThetaInAudio_NoVideo.avi,noTheta,noVideo,sp07,Ti,Ge,4,0,4,flow/blocks/NoThetaInAudio_NoVideo_A.csv,,,,,,,,,0,0,0,0,0,9,9,3,,,,,,,,,-0.37777777777777777,-0.09166666666666666,1,0,0,5.980441699968651,call3,0.08333333333333333,-0.2638888888888889,1,0,0,7.746956699993461,colour4,0.33194444444444443,-0.3,1,0,0,8.313476799987257,number4,True,False,True,30,5,2019_Nov_18_1309,MA_Theta_Exp,3.0.7,60.31592273020391,
video/Experiment/zh_sp07_Dr_Gr_2_NoThetaInAudio_NoVideo.avi,noTheta,noVideo,sp07,Dr,Gr,2,0,4,flow/blocks/NoThetaInAudio_NoVideo_A.csv,,,,,,,,,0,0,0,0,0,10,10,5,,,,,,,,,-0.37777777777777777,0.10555555555555556,1,0,0,4.818645599996671,call2,0.0,0.10972222222222222,1,0,0,5.32908610010054,colour2,0.3763888888888889,0.09444444444444444,1,0,0,5.876029800041579,number2,True,True,True,30,5,2019_Nov_18_1309,MA_Theta_Exp,3.0.7,60.31592273020391,
video/Experiment/zh_sp07_Ti_Ro_3_NoThetaInAudio_NoVideo.avi,noTheta,noVideo,sp07,Ti,Ro,3,0,4,flow/blocks/NoThetaInAudio_NoVideo_A.csv,,,,,,,,,0,0,0,0,0,11,11,10,,,,,,,,,-0.35,-0.125,1,0,0,5.4528947999933735,call3,0.059722222222222225,0.26944444444444443,1,0,0,6.252187100006267,colour1,0.34305555555555556,-0.1361111111111111,1,0,0,6.953119500074536,number3,True,False,True,30,5,2019_Nov_18_1309,MA_Theta_Exp,3.0.7,60.31592273020391,
video/Experiment/zh_sp07_Ad_Gr_2_NoThetaInAudio_NoVideo.avi,noTheta,noVideo,sp07,Ad,Gr,2,0,4,flow/blocks/NoThetaInAudio_NoVideo_A.csv,,,,,,,,,0,0,0,0,0,12,12,21,,,,,,,,,-0.3902777777777778,0.31805555555555554,1,0,0,4.562784400070086,call1,-0.027777777777777776,0.1,1,0,0,5.081892100046389,colour2,0.39444444444444443,0.09583333333333334,1,0,0,5.629719899967313,number2,True,True,True,30,5,2019_Nov_18_1309,MA_Theta_Exp,3.0.7,60.31592273020391,
video/Experiment/zh_sp01_Un_Ro_3_NoThetaInAudio_NoVideo.avi,noTheta,noVideo,sp01,Un,Ro,3,0,4,flow/blocks/NoThetaInAudio_NoVideo_A.csv,,,,,,,,,0,0,0,0,0,13,13,26,,,,,,,,,-0.4222222222222222,0.06944444444444445,1,0,0,5.212571099982597,call2,-0.004166666666666667,-0.12361111111111112,1,0,0,6.061323000001721,colour3,0.37777777777777777,-0.1388888888888889,1,0,0,6.477944899932481,number3,False,True,True,30,5,2019_Nov_18_1309,MA_Theta_Exp,3.0.7,60.31592273020391,
video/Experiment/zh_sp07_Ti_Ge_3_NoThetaInAudio_NoVideo.avi,noTheta,noVideo,sp07,Ti,Ge,3,0,4,flow/blocks/NoThetaInAudio_NoVideo_A.csv,,,,,,,,,0,0,0,0,0,14,14,18,,,,,,,,,-0.41805555555555557,0.275,1,0,0,4.917121300008148,call1,0.018055555555555554,0.2625,1,0,0,5.56771790003404,colour1,0.425,-0.10694444444444444,1,0,0,6.1838785000145435,number3,False,True,True,30,5,2019_Nov_18_1309,MA_Theta_Exp,3.0.7,60.31592273020391,
video/Experiment/zh_sp01_Ad_We_1_NoThetaInAudio_NoVideo.avi,noTheta,noVideo,sp01,Ad,We,1,0,4,flow/blocks/NoThetaInAudio_NoVideo_A.csv,,,,,,,,,0,0,0,0,0,15,15,12,,,,,,,,,-0.3638888888888889,0.2569444444444444,1,0,0,4.85887510003522,call1,0.030555555555555555,-0.3597222222222222,1,0,0,5.569903500028886,colour4,0.4375,0.30833333333333335,1,0,0,6.2366093000164255,number1,True,True,True,30,5,2019_Nov_18_1309,MA_Theta_Exp,3.0.7,60.31592273020391,
video/Experiment/zh_sp01_Un_We_4_NoThetaInAudio_NoVideo.avi,noTheta,noVideo,sp01,Un,We,4,0,4,flow/blocks/NoThetaInAudio_NoVideo_A.csv,,,,,,,,,0,0,0,0,0,16,16,15,,,,,,,,,-0.3888888888888889,-0.30787037037037035,1,0,0,5.230412799981423,call4,0.030555555555555555,-0.3314814814814815,1,0,0,5.8126696000108495,colour4,0.43333333333333335,-0.32314814814814813,1,0,0,6.4792248000158,number4,True,True,True,30,5,2019_Nov_18_1309,MA_Theta_Exp,3.0.7,60.31592273020391,
video/Experiment/zh_sp07_Dr_Ge_1_NoThetaInAudio_NoVideo.avi,noTheta,noVideo,sp07,Dr,Ge,1,0,4,flow/blocks/NoThetaInAudio_NoVideo_A.csv,,,,,,,,,0,0,0,0,0,17,17,0,,,,,,,,,-0.3638888888888889,0.0962962962962963,1,0,0,4.802723399945535,call2,0.011111111111111112,0.2574074074074074,1,0,0,5.252392599941231,colour1,0.4388888888888889,0.26157407407407407,1,0,0,5.722708900109865,number1,True,True,True,30,5,2019_Nov_18_1309,MA_Theta_Exp,3.0.7,60.31592273020391,
video/Experiment/zh_sp01_Ad_Ro_1_NoThetaInAudio_NoVideo.avi,noTheta,noVideo,sp01,Ad,Ro,1,0,4,flow/blocks/NoThetaInAudio_NoVideo_A.csv,,,,,,,,,0,0,0,0,0,18,18,8,,,,,,,,,-0.3861111111111111,0.30324074074074076,1,0,0,5.04905780008994,call1,0.006944444444444444,-0.09953703703703703,1,0,0,5.648306000046432,colour3,0.40555555555555556,0.2518518518518518,1,0,0,6.232113000005484,number1,True,True,True,30,5,2019_Nov_18_1309,MA_Theta_Exp,3.0.7,60.31592273020391,
video/Experiment/zh_sp01_Ti_Ge_1_NoThetaInAudio_NoVideo.avi,noTheta,noVideo,sp01,Ti,Ge,1,0,4,flow/blocks/NoThetaInAudio_NoVideo_A.csv,,,,,,,,,0,0,0,0,0,19,19,16,,,,,,,,,-0.40694444444444444,-0.13703703703703704,1,0,0,5.291511400020681,call3,-0.002777777777777778,0.2726851851851852,1,0,0,5.923448099987581,colour1,0.4375,0.2601851851851852,1,0,0,6.640326200053096,number1,True,True,True,30,5,2019_Nov_18_1309,MA_Theta_Exp,3.0.7,60.31592273020391,
video/Experiment/zh_sp01_Dr_Gr_4_NoThetaInAudio_NoVideo.avi,noTheta,noVideo,sp01,Dr,Gr,4,0,4,flow/blocks/NoThetaInAudio_NoVideo_A.csv,,,,,,,,,0,0,0,0,0,20,20,23,,,,,,,,,-0.4666666666666667,0.11990740740740741,1,0,0,5.1684292000718415,call2,0.006944444444444444,0.0824074074074074,1,0,0,5.9590817000716925,colour2,0.44166666666666665,-0.2814814814814815,1,0,0,6.732978699961677,number4,True,True,True,30,5,2019_Nov_18_1309,MA_Theta_Exp,3.0.7,60.31592273020391,
video/Experiment/zh_sp01_Ad_Gr_3_NoThetaInAudio_NoVideo.avi,noTheta,noVideo,sp01,Ad,Gr,3,0,4,flow/blocks/NoThetaInAudio_NoVideo_A.csv,,,,,,,,,0,0,0,0,0,21,21,22,,,,,,,,,-0.3486111111111111,0.2949074074074074,1,0,0,5.346642900025472,call1,-0.04583333333333333,0.07962962962962963,1,0,0,5.89522790000774,colour2,0.3347222222222222,-0.10925925925925926,1,0,0,6.462471400038339,number3,True,True,True,30,5,2019_Nov_18_1309,MA_Theta_Exp,3.0.7,60.31592273020391,
video/Experiment/zh_sp01_Dr_Ro_2_NoThetaInAudio_NoVideo.avi,noTheta,noVideo,sp01,Dr,Ro,2,0,4,flow/blocks/NoThetaInAudio_NoVideo_A.csv,,,,,,,,,0,0,0,0,0,22,22,9,,,,,,,,,-0.35694444444444445,0.10185185185185185,1,0,0,5.542437099968083,call2,-0.008333333333333333,-0.12037037037037036,1,0,0,6.142645100015216,colour3,0.3902777777777778,0.14074074074074075,1,0,0,6.926235900027677,number2,True,True,True,30,5,2019_Nov_18_1309,MA_Theta_Exp,3.0.7,60.31592273020391,
video/Experiment/zh_sp07_Un_Ge_2_NoThetaInAudio_NoVideo.avi,noTheta,noVideo,sp07,Un,Ge,2,0,4,flow/blocks/NoThetaInAudio_NoVideo_A.csv,,,,,,,,,0,0,0,0,0,23,23,17,,,,,,,,,-0.3638888888888889,-0.27870370370370373,1,0,0,4.599435499985702,call4,0.06944444444444445,-0.04537037037037037,1,0,0,6.715654500061646,colour3,0.4,0.09768518518518518,1,0,0,7.383657600032166,number2,True,False,True,30,5,2019_Nov_18_1309,MA_Theta_Exp,3.0.7,60.31592273020391,
video/Experiment/zh_sp07_Ti_Ge_2_NoThetaInAudio_NoVideo.avi,noTheta,noVideo,sp07,Ti,Ge,2,0,4,flow/blocks/NoThetaInAudio_NoVideo_A.csv,,,,,,,,,0,0,0,0,0,24,24,1,,,,,,,,,-0.32916666666666666,0.08657407407407407,1,0,0,6.058630599989556,call2,0.0375,0.2949074074074074,1,0,0,7.215324899996631,colour1,0.4708333333333333,0.0712962962962963,1,0,0,7.741980100050569,number2,False,True,True,30,5,2019_Nov_18_1309,MA_Theta_Exp,3.0.7,60.31592273020391,
video/Experiment/zh_sp01_Dr_We_2_NoThetaInAudio_NoVideo.avi,noTheta,noVideo,sp01,Dr,We,2,0,4,flow/blocks/NoThetaInAudio_NoVideo_A.csv,,,,,,,,,0,0,0,0,0,25,25,13,,,,,,,,,-0.4361111111111111,0.07824074074074074,1,0,0,5.114579899935052,call2,-0.009722222222222222,-0.3731481481481482,1,0,0,5.731801699963398,colour4,0.42777777777777776,0.0699074074074074,1,0,0,6.636844600085169,number2,True,True,True,30,5,2019_Nov_18_1309,MA_Theta_Exp,3.0.7,60.31592273020391,
video/Experiment/zh_sp07_Dr_Ge_4_NoThetaInAudio_NoVideo.avi,noTheta,noVideo,sp07,Dr,Ge,4,0,4,flow/blocks/NoThetaInAudio_NoVideo_A.csv,,,,,,,,,0,0,0,0,0,26,26,19,,,,,,,,,-0.4083333333333333,0.10462962962962963,1,0,0,4.624253100017086,call2,0.059722222222222225,0.2935185185185185,1,0,0,5.190003799973056,colour1,0.42777777777777776,-0.2828703703703704,1,0,0,5.960002300096676,number4,True,True,True,30,5,2019_Nov_18_1309,MA_Theta_Exp,3.0.7,60.31592273020391,
video/Experiment/zh_sp07_Ad_Ro_4_NoThetaInAudio_NoVideo.avi,noTheta,noVideo,sp07,Ad,Ro,4,0,4,flow/blocks/NoThetaInAudio_NoVideo_A.csv,,,,,,,,,0,0,0,0,0,27,27,11,,,,,,,,,-0.35,0.29074074074074074,1,0,0,4.542700299993157,call1,-0.041666666666666664,-0.07175925925925926,1,0,0,5.292984600062482,colour3,0.37222222222222223,-0.29398148148148145,1,0,0,5.914430000004359,number4,True,True,True,30,5,2019_Nov_18_1309,MA_Theta_Exp,3.0.7,60.31592273020391,
video/Experiment/zh_sp01_Dr_Gr_3_NoThetaInAudio_NoVideo.avi,noTheta,noVideo,sp01,Dr,Gr,3,0,4,flow/blocks/NoThetaInAudio_NoVideo_A.csv,,,,,,,,,0,0,0,0,0,28,28,6,,,,,,,,,-0.38055555555555554,0.1087962962962963,1,0,0,5.481305500026792,call2,0.015277777777777777,0.05740740740740741,1,0,0,6.015121499891393,colour2,0.3861111111111111,-0.15925925925925927,1,0,0,6.59607169998344,number3,True,True,True,30,5,2019_Nov_18_1309,MA_Theta_Exp,3.0.7,60.31592273020391,
video/Experiment/zh_sp07_Ad_We_2_NoThetaInAudio_NoVideo.avi,noTheta,noVideo,sp07,Ad,We,2,0,4,flow/blocks/NoThetaInAudio_NoVideo_A.csv,,,,,,,,,0,0,0,0,0,29,29,29,,,,,,,,,-0.3333333333333333,0.3212962962962963,1,0,0,4.629264999995939,call1,0.013888888888888888,-0.2814814814814815,1,0,0,5.596162599977106,colour4,0.35,0.06296296296296296,1,0,0,6.3648409999441355,number2,True,True,True,30,5,2019_Nov_18_1309,MA_Theta_Exp,3.0.7,60.31592273020391,
video/Experiment/zh_sp07_Dr_Ro_4_NoThetaInAudio_NoVideo.avi,noTheta,noVideo,sp07,Dr,Ro,4,0,4,flow/blocks/NoThetaInAudio_NoVideo_A.csv,,,,,,,,,0,0,0,0,0,30,30,27,,,,,,,,,-0.39444444444444443,0.28935185185185186,1,0,0,4.426395799964666,call1,-0.025,-0.09675925925925925,1,0,0,5.09264719998464,colour3,0.41388888888888886,-0.30925925925925923,1,0,0,5.682843600050546,number4,False,True,True,30,5,2019_Nov_18_1309,MA_Theta_Exp,3.0.7,60.31592273020391,
video/Experiment/zh_sp01_Ad_We_3_NoThetaInAudio_NoVideo.avi,noTheta,noVideo,sp01,Ad,We,3,0,4,flow/blocks/NoThetaInAudio_NoVideo_A.csv,,,,,,,,,0,0,0,0,0,31,31,30,,,,,,,,,-0.3972222222222222,0.36712962962962964,1,0,0,5.144131899927743,call1,-0.009722222222222222,-0.3537037037037037,1,0,0,5.815109700080939,colour4,0.3277777777777778,-0.15092592592592594,1,0,0,6.460871700081043,number3,True,True,True,30,5,2019_Nov_18_1309,MA_Theta_Exp,3.0.7,60.31592273020391,
video/Experiment/zh_sp01_Dr_We_3_NVocInAudio_NoVideo.avi,vocoded,noVideo,sp01,Dr,We,3,1,2,flow/blocks/NVocInAudio_NoVideo_B.csv,,,,,,,,,0,1,1,1,0,0,0,14,,,,,,,,,-0.4027777777777778,0.11435185185185186,1,0,0,5.225820699939504,call2,-0.027777777777777776,-0.31203703703703706,1,0,0,5.796937000006437,colour4,0.375,-0.14675925925925926,1,0,0,6.366120000020601,number3,True,True,True,30,5,2019_Nov_18_1309,MA_Theta_Exp,3.0.7,60.31592273020391,
video/Experiment/zh_sp07_Dr_We_1_NVocInAudio_NoVideo.avi,vocoded,noVideo,sp07,Dr,We,1,1,2,flow/blocks/NVocInAudio_NoVideo_B.csv,,,,,,,,,0,1,1,1,0,1,1,28,,,,,,,,,-0.4388888888888889,0.0962962962962963,1,0,0,4.589022999978624,call2,0.008333333333333333,-0.3189814814814815,1,0,0,5.208930499968119,colour4,0.4666666666666667,0.31712962962962965,1,0,0,5.924567500012927,number1,True,True,True,30,5,2019_Nov_18_1309,MA_Theta_Exp,3.0.7,60.31592273020391,
video/Experiment/zh_sp07_Un_Ge_1_NVocInAudio_NoVideo.avi,vocoded,noVideo,sp07,Un,Ge,1,1,2,flow/blocks/NVocInAudio_NoVideo_B.csv,,,,,,,,,0,1,1,1,0,2,2,0,,,,,,,,,-0.3888888888888889,-0.32037037037037036,1,0,0,4.664537200005725,call4,-0.041666666666666664,0.3435185185185185,1,0,0,5.415601499960758,colour1,0.3680555555555556,0.2657407407407407,1,0,0,6.080986100016162,number1,True,True,True,30,5,2019_Nov_18_1309,MA_Theta_Exp,3.0.7,60.31592273020391,
video/Experiment/zh_sp01_Un_Gr_2_NVocInAudio_NoVideo.avi,vocoded,noVideo,sp01,Un,Gr,2,1,2,flow/blocks/NVocInAudio_NoVideo_B.csv,,,,,,,,,0,1,1,1,0,3,3,5,,,,,,,,,-0.4,-0.3675925925925926,1,0,0,5.056927000056021,call4,0.027777777777777776,0.056018518518518516,1,0,0,5.763141299947165,colour2,0.4375,0.0824074074074074,1,0,0,6.256914599915035,number2,True,True,True,30,5,2019_Nov_18_1309,MA_Theta_Exp,3.0.7,60.31592273020391,
video/Experiment/zh_sp07_Dr_Ro_1_NVocInAudio_NoVideo.avi,vocoded,noVideo,sp07,Dr,Ro,1,1,2,flow/blocks/NVocInAudio_NoVideo_B.csv,,,,,,,,,0,1,1,1,0,4,4,24,,,,,,,,,-0.3888888888888889,0.14629629629629629,1,0,0,5.1495336999651045,call2,0.004166666666666667,-0.08287037037037037,1,0,0,5.68454849999398,colour3,0.37083333333333335,0.2810185185185185,1,0,0,6.332039900007658,number1,True,True,True,30,5,2019_Nov_18_1309,MA_Theta_Exp,3.0.7,60.31592273020391,
video/Experiment/zh_sp07_Ti_We_3_NVocInAudio_NoVideo.avi,vocoded,noVideo,sp07,Ti,We,3,1,2,flow/blocks/NVocInAudio_NoVideo_B.csv,,,,,,,,,0,1,1,1,0,5,5,30,,,,,,,,,-0.3888888888888889,-0.10787037037037037,1,0,0,4.706078300019726,call3,-0.03333333333333333,-0.3675925925925926,1,0,0,5.3673380999825895,colour4,0.425,-0.12314814814814815,1,0,0,6.108800199930556,number3,True,True,True,30,5,2019_Nov_18_1309,MA_Theta_Exp,3.0.7,60.31592273020391,
video/Experiment/zh_sp07_Un_Ro_2_NVocInAudio_NoVideo.avi,vocoded,noVideo,sp07,Un,Ro,2,1,2,flow/blocks/NVocInAudio_NoVideo_B.csv,,,,,,,,,0,1,1,1,0,6,6,9,,,,,,,,,-0.43472222222222223,-0.2953703703703704,1,0,0,4.9159301000181586,call4,-0.05555555555555555,-0.12314814814814815,1,0,0,5.48081579990685,colour3,0.38472222222222224,0.0824074074074074,1,0,0,5.91354840004351,number2,True,True,True,30,5,2019_Nov_18_1309,MA_Theta_Exp,3.0.7,60.31592273020391,
video/Experiment/zh_sp01_Un_Ro_4_NVocInAudio_NoVideo.avi,vocoded,noVideo,sp01,Un,Ro,4,1,2,flow/blocks/NVocInAudio_NoVideo_B.csv,,,,,,,,,0,1,1,1,0,7,7,27,,,,,,,,,-0.4083333333333333,-0.3384259259259259,1,0,0,5.460434900014661,call4,-0.002777777777777778,-0.12175925925925926,1,0,0,6.261609999928623,colour3,0.38055555555555554,-0.32175925925925924,1,0,0,6.791882400051691,number4,True,True,True,30,5,2019_Nov_18_1309,MA_Theta_Exp,3.0.7,60.31592273020391,
video/Experiment/zh_sp07_Ad_Gr_4_NVocInAudio_NoVideo.avi,vocoded,noVideo,sp07,Ad,Gr,4,1,2,flow/blocks/NVocInAudio_NoVideo_B.csv,,,,,,,,,0,1,1,1,0,8,8,7,,,,,,,,,-0.33194444444444443,0.3143518518518518,1,0,0,4.507026199949905,call1,-0.009722222222222222,0.13240740740740742,1,0,0,5.007064800010994,colour2,0.37083333333333335,-0.30648148148148147,1,0,0,5.574267799966037,number4,True,True,True,30,5,2019_Nov_18_1309,MA_Theta_Exp,3.0.7,60.31592273020391,
video/Experiment/zh_sp01_Un_Gr_3_NVocInAudio_NoVideo.avi,vocoded,noVideo,sp01,Un,Gr,3,1,2,flow/blocks/NVocInAudio_NoVideo_B.csv,,,,,,,,,0,1,1,1,0,9,9,6,,,,,,,,,-0.3388888888888889,-0.27175925925925926,1,0,0,5.613532099989243,call4,0.006944444444444444,0.10601851851851851,1,0,0,6.183842499973252,colour2,0.375,-0.1050925925925926,1,0,0,6.913535800063983,number3,True,True,True,30,5,2019_Nov_18_1309,MA_Theta_Exp,3.0.7,60.31592273020391,
video/Experiment/zh_sp07_Dr_Ro_3_NVocInAudio_NoVideo.avi,vocoded,noVideo,sp07,Dr,Ro,3,1,2,flow/blocks/NVocInAudio_NoVideo_B.csv,,,,,,,,,0,1,1,1,0,10,10,26,,,,,,,,,-0.4013888888888889,0.06712962962962964,1,0,0,4.827853299910203,call2,-0.025,-0.11481481481481481,1,0,0,5.379356899997219,colour3,0.37083333333333335,-0.1412037037037037,1,0,0,5.9794857000233606,number3,True,True,True,30,5,2019_Nov_18_1309,MA_Theta_Exp,3.0.7,60.31592273020391,
video/Experiment/zh_sp07_Ti_Gr_2_NVocInAudio_NoVideo.avi,vocoded,noVideo,sp07,Ti,Gr,2,1,2,flow/blocks/NVocInAudio_NoVideo_B.csv,,,,,,,,,0,1,1,1,0,11,11,21,,,,,,,,,-0.3597222222222222,-0.13564814814814816,1,0,0,4.7985073999734595,call3,0.016666666666666666,0.07407407407407407,1,0,0,5.382529800059274,colour2,0.3680555555555556,0.09907407407407408,1,0,0,5.885466500069015,number2,True,True,True,30,5,2019_Nov_18_1309,MA_Theta_Exp,3.0.7,60.31592273020391,
video/Experiment/zh_sp07_Ad_Ro_2_NVocInAudio_NoVideo.avi,vocoded,noVideo,sp07,Ad,Ro,2,1,2,flow/blocks/NVocInAudio_NoVideo_B.csv,,,,,,,,,0,1,1,1,0,12,12,25,,,,,,,,,-0.37777777777777777,0.26990740740740743,1,0,0,4.757355300011113,call1,-0.019444444444444445,-0.10787037037037037,1,0,0,5.374454400036484,colour3,0.425,0.12407407407407407,1,0,0,6.207236699992791,number2,True,True,True,30,5,2019_Nov_18_1309,MA_Theta_Exp,3.0.7,60.31592273020391,
video/Experiment/zh_sp07_Dr_We_4_NVocInAudio_NoVideo.avi,vocoded,noVideo,sp07,Dr,We,4,1,2,flow/blocks/NVocInAudio_NoVideo_B.csv,,,,,,,,,0,1,1,1,0,13,13,15,,,,,,,,,-0.36527777777777776,0.0962962962962963,1,0,0,4.645748800016008,call2,0.013888888888888888,-0.3189814814814815,1,0,0,5.33159820002038,colour4,0.41388888888888886,-0.3731481481481482,1,0,0,5.761685800040141,number4,True,True,True,30,5,2019_Nov_18_1309,MA_Theta_Exp,3.0.7,60.31592273020391,
video/Experiment/zh_sp01_Ad_Ge_4_NVocInAudio_NoVideo.avi,vocoded,noVideo,sp01,Ad,Ge,4,1,2,flow/blocks/NVocInAudio_NoVideo_B.csv,,,,,,,,,0,1,1,1,0,14,14,3,,,,,,,,,-0.4305555555555556,0.350462962962963,1,0,0,5.168021799996495,call1,-0.022222222222222223,0.25324074074074077,1,0,0,5.7216776999412104,colour1,0.48194444444444445,-0.2953703703703704,1,0,0,6.390322700026445,number4,True,True,True,30,5,2019_Nov_18_1309,MA_Theta_Exp,3.0.7,60.31592273020391,
video/Experiment/zh_sp07_Ad_We_4_NVocInAudio_NoVideo.avi,vocoded,noVideo,sp07,Ad,We,4,1,2,flow/blocks/NVocInAudio_NoVideo_B.csv,,,,,,,,,0,1,1,1,0,15,15,31,,,,,,,,,-0.375,0.29074074074074074,1,0,0,4.388899800018407,call1,0.015277777777777777,-0.3050925925925926,1,0,0,4.98989279998932,colour4,0.46944444444444444,-0.3287037037037037,1,0,0,5.538758700015023,number4,True,True,True,30,5,2019_Nov_18_1309,MA_Theta_Exp,3.0.7,60.31592273020391,
video/Experiment/zh_sp01_Ti_Gr_1_NVocInAudio_NoVideo.avi,vocoded,noVideo,sp01,Ti,Gr,1,1,2,flow/blocks/NVocInAudio_NoVideo_B.csv,,,,,,,,,0,1,1,1,0,16,16,4,,,,,,,,,-0.3888888888888889,-0.08287037037037037,1,0,0,5.096441300003789,call3,0.001388888888888889,0.10185185185185185,1,0,0,5.648568500066176,colour2,0.4083333333333333,0.28379629629629627,1,0,0,6.233962199999951,number1,True,True,True,30,5,2019_Nov_18_1309,MA_Theta_Exp,3.0.7,60.31592273020391,
video/Experiment/zh_sp01_Ti_Ro_4_NVocInAudio_NoVideo.avi,vocoded,noVideo,sp01,Ti,Ro,4,1,2,flow/blocks/NVocInAudio_NoVideo_B.csv,,,,,,,,,0,1,1,1,0,17,17,11,,,,,,,,,-0.3458333333333333,-0.11064814814814815,1,0,0,5.248881499981508,call3,0.04027777777777778,-0.11203703703703703,1,0,0,5.769027200061828,colour3,0.4111111111111111,-0.2967592592592593,1,0,0,6.231454299995676,number4,True,True,True,30,5,2019_Nov_18_1309,MA_Theta_Exp,3.0.7,60.31592273020391,
video/Experiment/zh_sp07_Ti_Ro_1_NVocInAudio_NoVideo.avi,vocoded,noVideo,sp07,Ti,Ro,1,1,2,flow/blocks/NVocInAudio_NoVideo_B.csv,,,,,,,,,0,1,1,1,0,18,18,8,,,,,,,,,-0.3527777777777778,-0.09814814814814815,1,0,0,4.595158000010997,call3,-0.022222222222222223,-0.12037037037037036,1,0,0,5.221871900022961,colour3,0.36527777777777776,0.2935185185185185,1,0,0,5.901441199937835,number1,True,True,True,30,5,2019_Nov_18_1309,MA_Theta_Exp,3.0.7,60.31592273020391,
video/Experiment/zh_sp01_Ad_Ge_2_NVocInAudio_NoVideo.avi,vocoded,noVideo,sp01,Ad,Ge,2,1,2,flow/blocks/NVocInAudio_NoVideo_B.csv,,,,,,,,,0,1,1,1,0,19,19,1,,,,,,,,,-0.3375,0.26296296296296295,1,0,0,5.102694700006396,call1,0.06944444444444445,0.2671296296296296,1,0,0,5.718865199945867,colour1,0.3972222222222222,0.14074074074074075,1,0,0,6.2436150999274105,number2,True,True,True,30,5,2019_Nov_18_1309,MA_Theta_Exp,3.0.7,60.31592273020391,
video/Experiment/zh_sp01_Un_Gr_4_NVocInAudio_NoVideo.avi,vocoded,noVideo,sp01,Un,Gr,4,1,2,flow/blocks/NVocInAudio_NoVideo_B.csv,,,,,,,,,0,1,1,1,0,20,20,23,,,,,,,,,-0.39305555555555555,-0.3162037037037037,1,0,0,4.876866400009021,call4,-0.030555555555555555,0.08101851851851852,1,0,0,5.4427305000135675,colour2,0.4305555555555556,-0.3023148148148148,1,0,0,6.043639000039548,number4,True,True,True,30,5,2019_Nov_18_1309,MA_Theta_Exp,3.0.7,60.31592273020391,
video/Experiment/zh_sp07_Dr_Ge_3_NVocInAudio_NoVideo.avi,vocoded,noVideo,sp07,Dr,Ge,3,1,2,flow/blocks/NVocInAudio_NoVideo_B.csv,,,,,,,,,0,1,1,1,0,21,21,2,,,,,,,,,-0.35694444444444445,0.11990740740740741,1,0,0,4.628972499980591,call2,-0.006944444444444444,0.30185185185185187,1,0,0,5.205361599917524,colour1,0.3902777777777778,-0.08287037037037037,1,0,0,5.745301399962045,number3,True,True,True,30,5,2019_Nov_18_1309,MA_Theta_Exp,3.0.7,60.31592273020391,
video/Experiment/zh_sp07_Ad_Ge_3_NVocInAudio_NoVideo.avi,vocoded,noVideo,sp07,Ad,Ge,3,1,2,flow/blocks/NVocInAudio_NoVideo_B.csv,,,,,,,,,0,1,1,1,0,22,22,18,,,,,,,,,-0.3472222222222222,0.300462962962963,1,0,0,5.524213899974711,call1,0.0375,0.3060185185185185,1,0,0,6.23944399994798,colour1,0.375,-0.07175925925925926,1,0,0,6.956928599975072,number3,True,True,True,30,5,2019_Nov_18_1309,MA_Theta_Exp,3.0.7,60.31592273020391,
video/Experiment/zh_sp01_Ad_Ge_1_NVocInAudio_NoVideo.avi,vocoded,noVideo,sp01,Ad,Ge,1,1,2,flow/blocks/NVocInAudio_NoVideo_B.csv,,,,,,,,,0,1,1,1,0,23,23,16,,,,,,,,,-0.41805555555555557,0.30972222222222223,1,0,0,5.265489300014451,call1,0.07916666666666666,0.3,1,0,0,5.810361200012267,colour1,0.3888888888888889,0.3,1,0,0,6.2613070999505,number1,True,True,True,30,5,2019_Nov_18_1309,MA_Theta_Exp,3.0.7,60.31592273020391,
video/Experiment/zh_sp07_Dr_Ge_2_NVocInAudio_NoVideo.avi,vocoded,noVideo,sp07,Dr,Ge,2,1,2,flow/blocks/NVocInAudio_NoVideo_B.csv,,,,,,,,,0,1,1,1,0,24,24,17,,,,,,,,,-0.375,0.08333333333333333,1,0,0,5.851728099980392,call2,0.016666666666666666,0.3055555555555556,1,0,0,6.571383900009096,colour1,0.35555555555555557,0.11388888888888889,1,0,0,7.023596100043505,number2,True,True,True,30,5,2019_Nov_18_1309,MA_Theta_Exp,3.0.7,60.31592273020391,
video/Experiment/zh_sp01_Ti_We_1_NVocInAudio_NoVideo.avi,vocoded,noVideo,sp01,Ti,We,1,1,2,flow/blocks/NVocInAudio_NoVideo_B.csv,,,,,,,,,0,1,1,1,0,25,25,12,,,,,,,,,-0.4652777777777778,-0.1111111111111111,1,0,0,5.349907499970868,call3,-0.058333333333333334,-0.28055555555555556,1,0,0,5.915134700015187,colour4,0.3541666666666667,0.3541666666666667,1,0,0,6.514620199915953,number1,True,True,True,30,5,2019_Nov_18_1309,MA_Theta_Exp,3.0.7,60.31592273020391,
video/Experiment/zh_sp01_Ad_Ro_3_NVocInAudio_NoVideo.avi,vocoded,noVideo,sp01,Ad,Ro,3,1,2,flow/blocks/NVocInAudio_NoVideo_B.csv,,,,,,,,,0,1,1,1,0,26,26,10,,,,,,,,,-0.3638888888888889,0.3527777777777778,1,0,0,4.947176799993031,call1,0.030555555555555555,-0.09583333333333334,1,0,0,5.617069799918681,colour3,0.4083333333333333,-0.14722222222222223,1,0,0,6.235193500062451,number3,True,True,True,30,5,2019_Nov_18_1309,MA_Theta_Exp,3.0.7,60.31592273020391,
video/Experiment/zh_sp01_Dr_Gr_1_NVocInAudio_NoVideo.avi,vocoded,noVideo,sp01,Dr,Gr,1,1,2,flow/blocks/NVocInAudio_NoVideo_B.csv,,,,,,,,,0,1,1,1,0,27,27,20,,,,,,,,,-0.38333333333333336,0.11944444444444445,1,0,0,5.213566399994306,call2,0.0763888888888889,0.10277777777777777,1,0,0,5.689786699949764,colour2,0.44027777777777777,0.2972222222222222,1,0,0,6.12483829993289,number1,True,True,True,30,5,2019_Nov_18_1309,MA_Theta_Exp,3.0.7,60.31592273020391,
video/Experiment/zh_sp01_Un_We_2_NVocInAudio_NoVideo.avi,vocoded,noVideo,sp01,Un,We,2,1,2,flow/blocks/NVocInAudio_NoVideo_B.csv,,,,,,,,,0,1,1,1,0,28,28,13,,,,,,,,,-0.3680555555555556,-0.3148148148148148,1,0,0,5.014796199975535,call4,0.016666666666666666,-0.31203703703703706,1,0,0,5.449639200000092,colour4,0.4263888888888889,0.11990740740740741,1,0,0,5.983259200002067,number2,True,True,True,30,5,2019_Nov_18_1309,MA_Theta_Exp,3.0.7,60.31592273020391,
video/Experiment/zh_sp01_Un_Ge_4_NVocInAudio_NoVideo.avi,vocoded,noVideo,sp01,Un,Ge,4,1,2,flow/blocks/NVocInAudio_NoVideo_B.csv,,,,,,,,,0,1,1,1,0,29,29,19,,,,,,,,,-0.3472222222222222,-0.3425925925925926,1,0,0,5.183523099985905,call4,0.041666666666666664,0.30185185185185187,1,0,0,5.851300799986348,colour1,0.37222222222222223,-0.3398148148148148,1,0,0,6.453435799921863,number4,True,True,True,30,5,2019_Nov_18_1309,MA_Theta_Exp,3.0.7,60.31592273020391,
video/Experiment/zh_sp01_Ti_Gr_3_NVocInAudio_NoVideo.avi,vocoded,noVideo,sp01,Ti,Gr,3,1,2,flow/blocks/NVocInAudio_NoVideo_B.csv,,,,,,,,,0,1,1,1,0,30,30,22,,,,,,,,,-0.325,-0.1439814814814815,1,0,0,4.910366200027056,call3,0.0125,0.08101851851851852,1,0,0,5.491561400005594,colour2,0.43333333333333335,-0.12731481481481483,1,0,0,6.1245848999824375,number3,True,True,True,30,5,2019_Nov_18_1309,MA_Theta_Exp,3.0.7,60.31592273020391,
video/Experiment/zh_sp07_Ti_We_2_NVocInAudio_NoVideo.avi,vocoded,noVideo,sp07,Ti,We,2,1,2,flow/blocks/NVocInAudio_NoVideo_B.csv,,,,,,,,,0,1,1,1,0,31,31,29,,,,,,,,,-0.32083333333333336,-0.12314814814814815,1,0,0,4.746261399937794,call3,0.030555555555555555,-0.3023148148148148,1,0,0,5.314411700004712,colour4,0.4111111111111111,0.11712962962962963,1,0,0,5.90912270010449,number2,True,True,True,30,5,2019_Nov_18_1309,MA_Theta_Exp,3.0.7,60.31592273020391,
video/Experiment/zh_sp01_Dr_Ge_4_NoThetaInAudio_GlobalThetaInVideo.avi,noTheta,plusVideo,sp01,Dr,Ge,4,2,3,flow/blocks/NoThetaInAudio_GlobalThetaInVideo_A.csv,,,,,,,,,0,2,2,2,0,0,0,19,,,,,,,,,-0.42916666666666664,0.11296296296296296,1,0,0,5.177945200004615,call2,-0.04027777777777778,0.300462962962963,1,0,0,5.776771600008942,colour1,0.375,-0.23842592592592593,1,0,0,6.412107800017111,number4,True,True,True,30,5,2019_Nov_18_1309,MA_Theta_Exp,3.0.7,60.31592273020391,
video/Experiment/zh_sp07_Un_Ge_2_NoThetaInAudio_GlobalThetaInVideo.avi,noTheta,plusVideo,sp07,Un,Ge,2,2,3,flow/blocks/NoThetaInAudio_GlobalThetaInVideo_A.csv,,,,,,,,,0,2,2,2,0,1,1,17,,,,,,,,,-0.39166666666666666,-0.31342592592592594,1,0,0,4.387675200006925,call4,0.03194444444444444,0.287962962962963,1,0,0,5.0521690000314265,colour1,0.39861111111111114,0.07546296296296297,1,0,0,5.5344806999200955,number2,True,True,True,30,5,2019_Nov_18_1309,MA_Theta_Exp,3.0.7,60.31592273020391,
video/Experiment/zh_sp07_Ti_We_4_NoThetaInAudio_GlobalThetaInVideo.avi,noTheta,plusVideo,sp07,Ti,We,4,2,3,flow/blocks/NoThetaInAudio_GlobalThetaInVideo_A.csv,,,,,,,,,0,2,2,2,0,2,2,31,,,,,,,,,-0.4652777777777778,-0.08425925925925926,1,0,0,4.720514699933119,call3,-0.09027777777777778,-0.29814814814814816,1,0,0,5.256709499983117,colour4,0.3763888888888889,-0.32731481481481484,1,0,0,6.720496900030412,number4,True,True,True,30,5,2019_Nov_18_1309,MA_Theta_Exp,3.0.7,60.31592273020391,
video/Experiment/zh_sp01_Ad_We_2_NoThetaInAudio_GlobalThetaInVideo.avi,noTheta,plusVideo,sp01,Ad,We,2,2,3,flow/blocks/NoThetaInAudio_GlobalThetaInVideo_A.csv,,,,,,,,,0,2,2,2,0,3,3,29,,,,,,,,,-0.35,0.31157407407407406,1,0,0,5.115485000074841,call1,-0.020833333333333332,-0.3398148148148148,1,0,0,5.716125900042243,colour4,0.3819444444444444,0.10324074074074074,1,0,0,6.282039499958046,number2,True,True,True,30,5,2019_Nov_18_1309,MA_Theta_Exp,3.0.7,60.31592273020391,
video/Experiment/zh_sp07_Dr_Gr_2_NoThetaInAudio_GlobalThetaInVideo.avi,noTheta,plusVideo,sp07,Dr,Gr,2,2,3,flow/blocks/NoThetaInAudio_GlobalThetaInVideo_A.csv,,,,,,,,,0,2,2,2,0,4,4,5,,,,,,,,,-0.39444444444444443,0.10462962962962963,1,0,0,4.429906200035475,call2,0.022222222222222223,0.07407407407407407,1,0,0,4.897159400046803,colour2,0.47638888888888886,0.08935185185185185,1,0,0,5.310440700035542,number2,True,True,True,30,5,2019_Nov_18_1309,MA_Theta_Exp,3.0.7,60.31592273020391,
video/Experiment/zh_sp01_Ad_Gr_3_NoThetaInAudio_GlobalThetaInVideo.avi,noTheta,plusVideo,sp01,Ad,Gr,3,2,3,flow/blocks/NoThetaInAudio_GlobalThetaInVideo_A.csv,,,,,,,,,0,2,2,2,0,5,5,22,,,,,,,,,-0.3347222222222222,0.28935185185185186,1,0,0,5.461001600022428,call1,0.05694444444444444,0.07546296296296297,1,0,0,6.493058399995789,colour2,0.43194444444444446,-0.12037037037037036,1,0,0,7.160378700005822,number3,True,True,True,30,5,2019_Nov_18_1309,MA_Theta_Exp,3.0.7,60.31592273020391,
video/Experiment/zh_sp07_Ti_Gr_4_NoThetaInAudio_GlobalThetaInVideo.avi,noTheta,plusVideo,sp07,Ti,Gr,4,2,3,flow/blocks/NoThetaInAudio_GlobalThetaInVideo_A.csv,,,,,,,,,0,2,2,2,0,6,6,7,,,,,,,,,-0.3388888888888889,-0.08981481481481482,1,0,0,4.894206999917515,call3,0.05138888888888889,0.1087962962962963,1,0,0,5.442377700004727,colour2,0.4166666666666667,-0.33564814814814814,1,0,0,6.608859200030565,number4,True,True,True,30,5,2019_Nov_18_1309,MA_Theta_Exp,3.0.7,60.31592273020391,
video/Experiment/zh_sp07_Un_We_4_NoThetaInAudio_GlobalThetaInVideo.avi,noTheta,plusVideo,sp07,Un,We,4,2,3,flow/blocks/NoThetaInAudio_GlobalThetaInVideo_A.csv,,,,,,,,,0,2,2,2,0,7,7,15,,,,,,,,,-0.4152777777777778,-0.29398148148148145,1,0,0,4.547576900105923,call4,-0.03333333333333333,-0.32175925925925924,1,0,0,5.049227699986659,colour4,0.40555555555555556,-0.3189814814814815,1,0,0,5.564729999983683,number4,True,True,True,30,5,2019_Nov_18_1309,MA_Theta_Exp,3.0.7,60.31592273020391,
video/Experiment/zh_sp01_Un_We_1_NoThetaInAudio_GlobalThetaInVideo.avi,noTheta,plusVideo,sp01,Un,We,1,2,3,flow/blocks/NoThetaInAudio_GlobalThetaInVideo_A.csv,,,,,,,,,0,2,2,2,0,8,8,28,,,,,,,,,-0.34305555555555556,-0.29953703703703705,1,0,0,4.9142039000289515,call4,0.07916666666666666,-0.2814814814814815,1,0,0,5.364991299924441,colour4,0.3958333333333333,0.31157407407407406,1,0,0,6.098119100090116,number1,True,True,True,30,5,2019_Nov_18_1309,MA_Theta_Exp,3.0.7,60.31592273020391,
video/Experiment/zh_sp01_Ad_Gr_2_NoThetaInAudio_GlobalThetaInVideo.avi,noTheta,plusVideo,sp01,Ad,Gr,2,2,3,flow/blocks/NoThetaInAudio_GlobalThetaInVideo_A.csv,,,,,,,,,0,2,2,2,0,9,9,21,,,,,,,,,-0.3819444444444444,0.32546296296296295,1,0,0,5.257300299941562,call1,0.03888888888888889,0.11157407407407408,1,0,0,5.791160800028592,colour2,0.35833333333333334,0.10601851851851851,1,0,0,6.3419204000383615,number2,True,True,True,30,5,2019_Nov_18_1309,MA_Theta_Exp,3.0.7,60.31592273020391,
video/Experiment/zh_sp07_Ti_Ro_3_NoThetaInAudio_GlobalThetaInVideo.avi,noTheta,plusVideo,sp07,Ti,Ro,3,2,3,flow/blocks/NoThetaInAudio_GlobalThetaInVideo_A.csv,,,,,,,,,0,2,2,2,0,10,10,10,,,,,,,,,-0.3194444444444444,-0.10231481481481482,1,0,0,4.654101500054821,call3,0.020833333333333332,-0.08009259259259259,1,0,0,5.092112199985422,colour3,0.32222222222222224,-0.08148148148148149,1,0,0,5.535996599937789,number3,True,True,True,30,5,2019_Nov_18_1309,MA_Theta_Exp,3.0.7,60.31592273020391,
video/Experiment/zh_sp01_Ti_Ro_2_NoThetaInAudio_GlobalThetaInVideo.avi,noTheta,plusVideo,sp01,Ti,Ro,2,2,3,flow/blocks/NoThetaInAudio_GlobalThetaInVideo_A.csv,,,,,,,,,0,2,2,2,0,11,11,25,,,,,,,,,-0.3888888888888889,-0.08564814814814815,1,0,0,5.078610499971546,call3,0.016666666666666666,-0.08287037037037037,1,0,0,5.746404799981974,colour3,0.3388888888888889,0.06712962962962964,1,0,0,6.294692900031805,number2,True,True,True,30,5,2019_Nov_18_1309,MA_Theta_Exp,3.0.7,60.31592273020391,
video/Experiment/zh_sp07_Ad_We_3_NoThetaInAudio_GlobalThetaInVideo.avi,noTheta,plusVideo,sp07,Ad,We,3,2,3,flow/blocks/NoThetaInAudio_GlobalThetaInVideo_A.csv,,,,,,,,,0,2,2,2,0,12,12,30,,,,,,,,,-0.3625,0.2671296296296296,1,0,0,4.414223400061019,call1,0.06388888888888888,-0.3106481481481482,1,0,0,5.031283300020732,colour4,0.41388888888888886,-0.08981481481481482,1,0,0,5.8267502000089735,number3,True,True,True,30,5,2019_Nov_18_1309,MA_Theta_Exp,3.0.7,60.31592273020391,
video/Experiment/zh_sp01_Ad_Ro_4_NoThetaInAudio_GlobalThetaInVideo.avi,noTheta,plusVideo,sp01,Ad,Ro,4,2,3,flow/blocks/NoThetaInAudio_GlobalThetaInVideo_A.csv,,,,,,,,,0,2,2,2,0,13,13,11,,,,,,,,,-0.33194444444444443,0.29074074074074074,1,0,0,5.440877399989404,call1,-0.03888888888888889,-0.07592592592592592,1,0,0,6.036426899954677,colour3,0.3472222222222222,-0.29814814814814816,1,0,0,6.719971199985594,number4,True,True,True,30,5,2019_Nov_18_1309,MA_Theta_Exp,3.0.7,60.31592273020391,
video/Experiment/zh_sp07_Dr_Ro_2_NoThetaInAudio_GlobalThetaInVideo.avi,noTheta,plusVideo,sp07,Dr,Ro,2,2,3,flow/blocks/NoThetaInAudio_GlobalThetaInVideo_A.csv,,,,,,,,,0,2,2,2,0,14,14,9,,,,,,,,,-0.36944444444444446,0.0699074074074074,1,0,0,4.882290999987163,call2,0.07777777777777778,-0.08981481481481482,1,0,0,6.576949800015427,colour3,0.44583333333333336,0.11574074074074074,1,0,0,7.0986918999115005,number2,True,True,True,30,5,2019_Nov_18_1309,MA_Theta_Exp,3.0.7,60.31592273020391,
video/Experiment/zh_sp01_Un_Ro_1_NoThetaInAudio_GlobalThetaInVideo.avi,noTheta,plusVideo,sp01,Un,Ro,1,2,3,flow/blocks/NoThetaInAudio_GlobalThetaInVideo_A.csv,,,,,,,,,0,2,2,2,0,15,15,24,,,,,,,,,-0.39861111111111114,0.06712962962962964,1,0,0,5.231378600001335,call2,0.0,-0.1037037037037037,1,0,0,5.698008199920878,colour3,0.37222222222222223,0.24074074074074073,1,0,0,6.1655139999929816,number1,False,True,True,30,5,2019_Nov_18_1309,MA_Theta_Exp,3.0.7,60.31592273020391,
video/Experiment/zh_sp07_Un_We_3_NoThetaInAudio_GlobalThetaInVideo.avi,noTheta,plusVideo,sp07,Un,We,3,2,3,flow/blocks/NoThetaInAudio_GlobalThetaInVideo_A.csv,,,,,,,,,0,2,2,2,0,16,16,14,,,,,,,,,-0.36944444444444446,0.11296296296296296,1,0,0,4.49902780004777,call2,0.005555555555555556,-0.3314814814814815,1,0,0,5.031576900044456,colour4,0.4041666666666667,-0.11481481481481481,1,0,0,5.532380999997258,number3,False,True,True,30,5,2019_Nov_18_1309,MA_Theta_Exp,3.0.7,60.31592273020391,
video/Experiment/zh_sp01_Ti_Ge_1_NoThetaInAudio_GlobalThetaInVideo.avi,noTheta,plusVideo,sp01,Ti,Ge,1,2,3,flow/blocks/NoThetaInAudio_GlobalThetaInVideo_A.csv,,,,,,,,,0,2,2,2,0,17,17,16,,,,,,,,,-0.39166666666666666,-0.10925925925925926,1,0,0,5.089589899987914,call3,0.006944444444444444,0.2199074074074074,1,0,0,5.7061425999272615,colour1,0.37777777777777777,0.31851851851851853,1,0,0,6.672805600101128,number1,True,True,True,30,5,2019_Nov_18_1309,MA_Theta_Exp,3.0.7,60.31592273020391,
video/Experiment/zh_sp07_Dr_Ge_1_NoThetaInAudio_GlobalThetaInVideo.avi,noTheta,plusVideo,sp07,Dr,Ge,1,2,3,flow/blocks/NoThetaInAudio_GlobalThetaInVideo_A.csv,,,,,,,,,0,2,2,2,0,18,18,0,,,,,,,,,-0.35694444444444445,0.09212962962962963,1,0,0,4.7422051000176,call2,0.0,0.25601851851851853,1,0,0,5.2254079999402165,colour1,0.42916666666666664,0.3087962962962963,1,0,0,5.710377800045535,number1,True,True,True,30,5,2019_Nov_18_1309,MA_Theta_Exp,3.0.7,60.31592273020391,
video/Experiment/zh_sp01_Ad_Ro_1_NoThetaInAudio_GlobalThetaInVideo.avi,noTheta,plusVideo,sp01,Ad,Ro,1,2,3,flow/blocks/NoThetaInAudio_GlobalThetaInVideo_A.csv,,,,,,,,,0,2,2,2,0,19,19,8,,,,,,,,,-0.425,0.31851851851851853,1,0,0,4.987811099970713,call1,-0.002777777777777778,-0.13148148148148148,1,0,0,5.753799600061029,colour3,0.44027777777777777,0.32407407407407407,1,0,0,6.304791399976239,number1,True,True,True,30,5,2019_Nov_18_1309,MA_Theta_Exp,3.0.7,60.31592273020391,
video/Experiment/zh_sp07_Ti_Ge_3_NoThetaInAudio_GlobalThetaInVideo.avi,noTheta,plusVideo,sp07,Ti,Ge,3,2,3,flow/blocks/NoThetaInAudio_GlobalThetaInVideo_A.csv,,,,,,,,,0,2,2,2,0,20,20,18,,,,,,,,,-0.3541666666666667,-0.09675925925925925,1,0,0,4.458477500011213,call3,0.044444444444444446,0.2962962962962963,1,0,0,5.0399572000605986,colour1,0.4513888888888889,-0.08842592592592592,1,0,0,5.9433377999812365,number3,True,True,True,30,5,2019_Nov_18_1309,MA_Theta_Exp,3.0.7,60.31592273020391,
video/Experiment/zh_sp07_Ad_Gr_1_NoThetaInAudio_GlobalThetaInVideo.avi,noTheta,plusVideo,sp07,Ad,Gr,1,2,3,flow/blocks/NoThetaInAudio_GlobalThetaInVideo_A.csv,,,,,,,,,0,2,2,2,0,21,21,4,,,,,,,,,-0.37777777777777777,0.27685185185185185,1,0,0,5.089348300010897,call1,0.025,0.0962962962962963,1,0,0,5.853401000029407,colour2,0.3763888888888889,0.2851851851851852,1,0,0,6.307444099918939,number1,True,True,True,30,5,2019_Nov_18_1309,MA_Theta_Exp,3.0.7,60.31592273020391,
video/Experiment/zh_sp01_Un_Gr_1_NoThetaInAudio_GlobalThetaInVideo.avi,noTheta,plusVideo,sp01,Un,Gr,1,2,3,flow/blocks/NoThetaInAudio_GlobalThetaInVideo_A.csv,,,,,,,,,0,2,2,2,0,22,22,20,,,,,,,,,-0.3194444444444444,0.12546296296296297,1,0,0,5.158721099956892,call2,0.015277777777777777,0.11157407407407408,1,0,0,5.644030899973586,colour2,0.3638888888888889,0.3476851851851852,1,0,0,6.1589388001011685,number1,False,True,True,30,5,2019_Nov_18_1309,MA_Theta_Exp,3.0.7,60.31592273020391,
video/Experiment/zh_sp07_Dr_Gr_4_NoThetaInAudio_GlobalThetaInVideo.avi,noTheta,plusVideo,sp07,Dr,Gr,4,2,3,flow/blocks/NoThetaInAudio_GlobalThetaInVideo_A.csv,,,,,,,,,0,2,2,2,0,23,23,23,,,,,,,,,-0.33611111111111114,0.10462962962962963,1,0,0,4.754265099996701,call2,0.04861111111111111,0.11018518518518519,1,0,0,5.370989700080827,colour2,0.4583333333333333,-0.09537037037037037,1,0,0,6.073174500023015,number3,True,True,False,30,5,2019_Nov_18_1309,MA_Theta_Exp,3.0.7,60.31592273020391,
video/Experiment/zh_sp07_Un_Ge_3_NoThetaInAudio_GlobalThetaInVideo.avi,noTheta,plusVideo,sp07,Un,Ge,3,2,3,flow/blocks/NoThetaInAudio_GlobalThetaInVideo_A.csv,,,,,,,,,0,2,2,2,0,24,24,2,,,,,,,,,-0.3875,-0.2912037037037037,1,0,0,4.418883099919185,call4,0.030555555555555555,0.2865740740740741,1,0,0,5.234681300004013,colour1,0.38472222222222224,-0.15231481481481482,1,0,0,5.951972500071861,number3,True,True,True,30,5,2019_Nov_18_1309,MA_Theta_Exp,3.0.7,60.31592273020391,
video/Experiment/zh_sp07_Ti_Ge_2_NoThetaInAudio_GlobalThetaInVideo.avi,noTheta,plusVideo,sp07,Ti,Ge,2,2,3,flow/blocks/NoThetaInAudio_GlobalThetaInVideo_A.csv,,,,,,,,,0,2,2,2,0,25,25,1,,,,,,,,,-0.3416666666666667,-0.11898148148148148,1,0,0,4.631399599951692,call3,0.04722222222222222,0.09768518518518518,1,0,0,5.05000409996137,colour2,0.39444444444444443,0.11018518518518519,1,0,0,5.419043999980204,number2,True,False,True,30,5,2019_Nov_18_1309,MA_Theta_Exp,3.0.7,60.31592273020391,
video/Experiment/zh_sp01_Dr_Ro_4_NoThetaInAudio_GlobalThetaInVideo.avi,noTheta,plusVideo,sp01,Dr,Ro,4,2,3,flow/blocks/NoThetaInAudio_GlobalThetaInVideo_A.csv,,,,,,,,,0,2,2,2,0,26,26,27,,,,,,,,,-0.39444444444444443,0.10185185185185185,1,0,0,5.096818599966355,call2,0.002777777777777778,-0.11203703703703703,1,0,0,5.579819699982181,colour3,0.37777777777777777,-0.3175925925925926,1,0,0,6.046425099950284,number4,True,True,True,30,5,2019_Nov_18_1309,MA_Theta_Exp,3.0.7,60.31592273020391,
video/Experiment/zh_sp01_Un_Ro_3_NoThetaInAudio_GlobalThetaInVideo.avi,noTheta,plusVideo,sp01,Un,Ro,3,2,3,flow/blocks/NoThetaInAudio_GlobalThetaInVideo_A.csv,,,,,,,,,0,2,2,2,0,27,27,26,,,,,,,,,-0.35694444444444445,0.12824074074074074,1,0,0,4.970981299993582,call2,-0.006944444444444444,-0.11064814814814815,1,0,0,5.470333599951118,colour3,0.4305555555555556,-0.06620370370370371,1,0,0,5.902803299948573,number3,False,True,True,30,5,2019_Nov_18_1309,MA_Theta_Exp,3.0.7,60.31592273020391,
video/Experiment/zh_sp07_Dr_We_2_NoThetaInAudio_GlobalThetaInVideo.avi,noTheta,plusVideo,sp07,Dr,We,2,2,3,flow/blocks/NoThetaInAudio_GlobalThetaInVideo_A.csv,,,,,,,,,0,2,2,2,0,28,28,13,,,,,,,,,-0.4361111111111111,0.09212962962962963,1,0,0,4.6305699000367895,call2,-0.03194444444444444,-0.3148148148148148,1,0,0,5.148985799984075,colour4,0.3638888888888889,0.06574074074074074,1,0,0,5.669845299911685,number2,True,True,True,30,5,2019_Nov_18_1309,MA_Theta_Exp,3.0.7,60.31592273020391,
video/Experiment/zh_sp01_Ad_We_1_NoThetaInAudio_GlobalThetaInVideo.avi,noTheta,plusVideo,sp01,Ad,We,1,2,3,flow/blocks/NoThetaInAudio_GlobalThetaInVideo_A.csv,,,,,,,,,0,2,2,2,0,29,29,12,,,,,,,,,-0.3347222222222222,0.27546296296296297,1,0,0,5.0199573000427336,call1,0.005555555555555556,-0.3189814814814815,1,0,0,5.8048986999783665,colour4,0.35555555555555557,0.2657407407407407,1,0,0,6.469933900050819,number1,True,True,True,30,5,2019_Nov_18_1309,MA_Theta_Exp,3.0.7,60.31592273020391,
video/Experiment/zh_sp01_Dr_Gr_3_NoThetaInAudio_GlobalThetaInVideo.avi,noTheta,plusVideo,sp01,Dr,Gr,3,2,3,flow/blocks/NoThetaInAudio_GlobalThetaInVideo_A.csv,,,,,,,,,0,2,2,2,0,30,30,6,,,,,,,,,-0.3055555555555556,0.07824074074074074,1,0,0,4.985844900016673,call2,0.005555555555555556,0.07962962962962963,1,0,0,5.813705299980938,colour2,0.4083333333333333,-0.11898148148148148,1,0,0,6.2813590000150725,number3,True,True,True,30,5,2019_Nov_18_1309,MA_Theta_Exp,3.0.7,60.31592273020391,
video/Experiment/zh_sp01_Ti_Ge_4_NoThetaInAudio_GlobalThetaInVideo.avi,noTheta,plusVideo,sp01,Ti,Ge,4,2,3,flow/blocks/NoThetaInAudio_GlobalThetaInVideo_A.csv,,,,,,,,,0,2,2,2,0,31,31,3,,,,,,,,,-0.3625,-0.1398148148148148,1,0,0,4.908139000064693,call3,-0.02361111111111111,0.2949074074074074,1,0,0,5.456634399946779,colour1,0.37777777777777777,-0.32037037037037036,1,0,0,6.160313299973495,number4,True,True,True,30,5,2019_Nov_18_1309,MA_Theta_Exp,3.0.7,60.31592273020391,
video/Experiment/zh_sp01_Ad_Ge_4_GlobalTheta_NoVideo.avi,globalTheta,noVideo,sp01,Ad,Ge,4,3,5,flow/blocks/GlobalTheta_NoVideo_B.csv,,,,,,,,,0,3,3,3,0,0,0,3,,,,,,,,,-0.3888888888888889,0.24212962962962964,1,0,0,5.387483199941926,call1,-0.03333333333333333,0.3365740740740741,1,0,0,6.039557799929753,colour1,0.3888888888888889,-0.30648148148148147,1,0,0,6.971319200005382,number4,True,True,True,30,5,2019_Nov_18_1309,MA_Theta_Exp,3.0.7,60.31592273020391,
video/Experiment/zh_sp01_Ad_Ro_3_GlobalTheta_NoVideo.avi,globalTheta,noVideo,sp01,Ad,Ro,3,3,5,flow/blocks/GlobalTheta_NoVideo_B.csv,,,,,,,,,0,3,3,3,0,1,1,10,,,,,,,,,-0.38472222222222224,0.32407407407407407,1,0,0,4.8293061999138445,call1,0.03888888888888889,-0.11064814814814815,1,0,0,5.5442818000447005,colour3,0.4597222222222222,-0.12037037037037036,1,0,0,6.041500700055622,number3,True,True,True,30,5,2019_Nov_18_1309,MA_Theta_Exp,3.0.7,60.31592273020391,
video/Experiment/zh_sp01_Un_Gr_3_GlobalTheta_NoVideo.avi,globalTheta,noVideo,sp01,Un,Gr,3,3,5,flow/blocks/GlobalTheta_NoVideo_B.csv,,,,,,,,,0,3,3,3,0,2,2,6,,,,,,,,,-0.3902777777777778,-0.2800925925925926,1,0,0,4.9739208000246435,call4,0.029166666666666667,0.0962962962962963,1,0,0,5.527472999994643,colour2,0.4236111111111111,-0.13148148148148148,1,0,0,5.991441800026223,number3,True,True,True,30,5,2019_Nov_18_1309,MA_Theta_Exp,3.0.7,60.31592273020391,
video/Experiment/zh_sp07_Dr_We_4_GlobalTheta_NoVideo.avi,globalTheta,noVideo,sp07,Dr,We,4,3,5,flow/blocks/GlobalTheta_NoVideo_B.csv,,,,,,,,,0,3,3,3,0,3,3,15,,,,,,,,,-0.4041666666666667,0.1087962962962963,1,0,0,4.148877799976617,call2,0.059722222222222225,-0.30092592592592593,1,0,0,4.913489899947308,colour4,0.41388888888888886,-0.08981481481481482,1,0,0,5.363273299997672,number3,True,True,False,30,5,2019_Nov_18_1309,MA_Theta_Exp,3.0.7,60.31592273020391,
video/Experiment/zh_sp01_Dr_Gr_1_GlobalTheta_NoVideo.avi,globalTheta,noVideo,sp01,Dr,Gr,1,3,5,flow/blocks/GlobalTheta_NoVideo_B.csv,,,,,,,,,0,3,3,3,0,4,4,20,,,,,,,,,-0.43333333333333335,-0.1300925925925926,1,0,0,5.070218099979684,call3,-0.0375,0.07407407407407407,1,0,0,5.561151099973358,colour2,0.31666666666666665,0.2671296296296296,1,0,0,6.003925399971195,number1,False,True,True,30,5,2019_Nov_18_1309,MA_Theta_Exp,3.0.7,60.31592273020391,
video/Experiment/zh_sp07_Un_Gr_2_GlobalTheta_NoVideo.avi,globalTheta,noVideo,sp07,Un,Gr,2,3,5,flow/blocks/GlobalTheta_NoVideo_B.csv,,,,,,,,,0,3,3,3,0,5,5,5,,,,,,,,,-0.4375,-0.3175925925925926,1,0,0,4.264614699990489,call4,0.034722222222222224,0.09490740740740741,1,0,0,4.762056899955496,colour2,0.3611111111111111,0.10185185185185185,1,0,0,5.146253900020383,number2,True,True,True,30,5,2019_Nov_18_1309,MA_Theta_Exp,3.0.7,60.31592273020391,
video/Experiment/zh_sp07_Ti_Gr_1_GlobalTheta_NoVideo.avi,globalTheta,noVideo,sp07,Ti,Gr,1,3,5,flow/blocks/GlobalTheta_NoVideo_B.csv,,,,,,,,,0,3,3,3,0,6,6,4,,,,,,,,,-0.3680555555555556,-0.09814814814814815,1,0,0,4.116015199921094,call3,0.07361111111111111,0.11296296296296296,1,0,0,4.632306199986488,colour2,0.35138888888888886,0.29074074074074074,1,0,0,5.059439100092277,number1,True,True,True,30,5,2019_Nov_18_1309,MA_Theta_Exp,3.0.7,60.31592273020391,
video/Experiment/zh_sp07_Dr_Ro_1_GlobalTheta_NoVideo.avi,globalTheta,noVideo,sp07,Dr,Ro,1,3,5,flow/blocks/GlobalTheta_NoVideo_B.csv,,,,,,,,,0,3,3,3,0,7,7,24,,,,,,,,,-0.4125,-0.11342592592592593,1,0,0,4.995366299990565,call3,-0.04027777777777778,-0.11342592592592593,1,0,0,5.370358999934979,colour3,0.31527777777777777,0.2824074074074074,1,0,0,5.842779800062999,number1,False,True,True,30,5,2019_Nov_18_1309,MA_Theta_Exp,3.0.7,60.31592273020391,
video/Experiment/zh_sp07_Dr_Ge_3_GlobalTheta_NoVideo.avi,globalTheta,noVideo,sp07,Dr,Ge,3,3,5,flow/blocks/GlobalTheta_NoVideo_B.csv,,,,,,,,,0,3,3,3,0,8,8,2,,,,,,,,,-0.46944444444444444,-0.1175925925925926,1,0,0,4.510638199979439,call3,-0.015277777777777777,0.0699074074074074,1,0,0,5.004124799976125,colour2,0.4083333333333333,-0.08148148148148149,1,0,0,5.472120199934579,number3,False,False,True,30,5,2019_Nov_18_1309,MA_Theta_Exp,3.0.7,60.31592273020391,
video/Experiment/zh_sp01_Ad_Gr_4_GlobalTheta_NoVideo.avi,globalTheta,noVideo,sp01,Ad,Gr,4,3,5,flow/blocks/GlobalTheta_NoVideo_B.csv,,,,,,,,,0,3,3,3,0,9,9,7,,,,,,,,,-0.37777777777777777,0.287962962962963,1,0,0,4.829267300083302,call1,0.013888888888888888,0.08657407407407407,1,0,0,5.21163020003587,colour2,0.29305555555555557,-0.30925925925925923,1,0,0,5.631255300017074,number4,True,True,True,30,5,2019_Nov_18_1309,MA_Theta_Exp,3.0.7,60.31592273020391,
video/Experiment/zh_sp01_Un_Gr_4_GlobalTheta_NoVideo.avi,globalTheta,noVideo,sp01,Un,Gr,4,3,5,flow/blocks/GlobalTheta_NoVideo_B.csv,,,,,,,,,0,3,3,3,0,10,10,23,,,,,,,,,-0.37083333333333335,-0.30787037037037035,1,0,0,4.758898900006898,call4,0.001388888888888889,0.0837962962962963,1,0,0,5.258488600025885,colour2,0.4125,-0.34675925925925927,1,0,0,5.791594399954192,number4,True,True,True,30,5,2019_Nov_18_1309,MA_Theta_Exp,3.0.7,60.31592273020391,
video/Experiment/zh_sp01_Ad_Ge_3_GlobalTheta_NoVideo.avi,globalTheta,noVideo,sp01,Ad,Ge,3,3,5,flow/blocks/GlobalTheta_NoVideo_B.csv,,,,,,,,,0,3,3,3,0,11,11,18,,,,,,,,,-0.34444444444444444,0.25046296296296294,1,0,0,4.879825499956496,call1,0.07083333333333333,0.2587962962962963,1,0,0,5.427917400025763,colour1,0.43333333333333335,-0.10787037037037037,1,0,0,6.051213399972767,number3,True,True,True,30,5,2019_Nov_18_1309,MA_Theta_Exp,3.0.7,60.31592273020391,
video/Experiment/zh_sp07_Ad_Ro_2_GlobalTheta_NoVideo.avi,globalTheta,noVideo,sp07,Ad,Ro,2,3,5,flow/blocks/GlobalTheta_NoVideo_B.csv,,,,,,,,,0,3,3,3,0,12,12,25,,,,,,,,,-0.3972222222222222,0.3060185185185185,1,0,0,4.16939579998143,call1,0.059722222222222225,-0.1287037037037037,1,0,0,4.816083500045352,colour3,0.4375,0.14629629629629629,1,0,0,5.336609599995427,number2,True,True,True,30,5,2019_Nov_18_1309,MA_Theta_Exp,3.0.7,60.31592273020391,
video/Experiment/zh_sp07_Ti_Ro_4_GlobalTheta_NoVideo.avi,globalTheta,noVideo,sp07,Ti,Ro,4,3,5,flow/blocks/GlobalTheta_NoVideo_B.csv,,,,,,,,,0,3,3,3,0,13,13,11,,,,,,,,,-0.34444444444444444,-0.07175925925925926,1,0,0,4.267030099988915,call3,0.075,-0.1037037037037037,1,0,0,4.698975799954496,colour3,0.4013888888888889,-0.09953703703703703,1,0,0,5.070985900005326,number3,True,True,False,30,5,2019_Nov_18_1309,MA_Theta_Exp,3.0.7,60.31592273020391,
video/Experiment/zh_sp01_Un_Ge_1_GlobalTheta_NoVideo.avi,globalTheta,noVideo,sp01,Un,Ge,1,3,5,flow/blocks/GlobalTheta_NoVideo_B.csv,,,,,,,,,0,3,3,3,0,14,14,0,,,,,,,,,-0.3472222222222222,-0.29953703703703705,1,0,0,5.09777870005928,call4,0.041666666666666664,0.3101851851851852,1,0,0,5.795554199954495,colour1,0.4263888888888889,0.2824074074074074,1,0,0,6.295987599994987,number1,True,True,True,30,5,2019_Nov_18_1309,MA_Theta_Exp,3.0.7,60.31592273020391,
video/Experiment/zh_sp07_Dr_We_3_GlobalTheta_NoVideo.avi,globalTheta,noVideo,sp07,Dr,We,3,3,5,flow/blocks/GlobalTheta_NoVideo_B.csv,,,,,,,,,0,3,3,3,0,15,15,14,,,,,,,,,-0.35555555555555557,0.08657407407407407,1,0,0,4.478268899954855,call2,-0.04027777777777778,0.10740740740740741,1,0,0,6.3066805000416934,colour2,0.4166666666666667,-0.12037037037037036,1,0,0,6.954693300067447,number3,True,False,True,30,5,2019_Nov_18_1309,MA_Theta_Exp,3.0.7,60.31592273020391,
video/Experiment/zh_sp07_Dr_Ro_3_GlobalTheta_NoVideo.avi,globalTheta,noVideo,sp07,Dr,Ro,3,3,5,flow/blocks/GlobalTheta_NoVideo_B.csv,,,,,,,,,0,3,3,3,0,16,16,26,,,,,,,,,-0.40555555555555556,0.3143518518518518,1,0,0,4.306270999950357,call1,0.05555555555555555,-0.1175925925925926,1,0,0,4.901510700001381,colour3,0.41944444444444445,-0.11898148148148148,1,0,0,5.274313600035384,number3,False,True,True,30,5,2019_Nov_18_1309,MA_Theta_Exp,3.0.7,60.31592273020391,
video/Experiment/zh_sp07_Ti_Ro_1_GlobalTheta_NoVideo.avi,globalTheta,noVideo,sp07,Ti,Ro,1,3,5,flow/blocks/GlobalTheta_NoVideo_B.csv,,,,,,,,,0,3,3,3,0,17,17,8,,,,,,,,,-0.4236111111111111,-0.10092592592592593,1,0,0,4.5044517000205815,call3,0.0125,-0.09675925925925925,1,0,0,5.002758999937214,colour3,0.37222222222222223,0.31157407407407406,1,0,0,5.452831400092691,number1,True,True,True,30,5,2019_Nov_18_1309,MA_Theta_Exp,3.0.7,60.31592273020391,
video/Experiment/zh_sp01_Un_We_2_GlobalTheta_NoVideo.avi,globalTheta,noVideo,sp01,Un,We,2,3,5,flow/blocks/GlobalTheta_NoVideo_B.csv,,,,,,,,,0,3,3,3,0,18,18,13,,,,,,,,,-0.3625,-0.2884259259259259,1,0,0,5.036679400014691,call4,-0.04722222222222222,-0.31342592592592594,1,0,0,5.420111000072211,colour4,0.3611111111111111,0.06018518518518518,1,0,0,6.036679800017737,number2,True,True,True,30,5,2019_Nov_18_1309,MA_Theta_Exp,3.0.7,60.31592273020391,
video/Experiment/zh_sp07_Ad_Ge_2_GlobalTheta_NoVideo.avi,globalTheta,noVideo,sp07,Ad,Ge,2,3,5,flow/blocks/GlobalTheta_NoVideo_B.csv,,,,,,,,,0,3,3,3,0,19,19,1,,,,,,,,,-0.35833333333333334,0.2587962962962963,1,0,0,4.266980599961244,call1,0.04583333333333333,0.2601851851851852,1,0,0,4.871659399941564,colour1,0.37777777777777777,0.0837962962962963,1,0,0,5.371053599985316,number2,True,True,True,30,5,2019_Nov_18_1309,MA_Theta_Exp,3.0.7,60.31592273020391,
video/Experiment/zh_sp07_Dr_Ge_2_GlobalTheta_NoVideo.avi,globalTheta,noVideo,sp07,Dr,Ge,2,3,5,flow/blocks/GlobalTheta_NoVideo_B.csv,,,,,,,,,0,3,3,3,0,20,20,17,,,,,,,,,-0.3819444444444444,0.14212962962962963,1,0,0,4.794276600005105,call2,0.020833333333333332,0.29074074074074074,1,0,0,5.3773275999119505,colour1,0.4305555555555556,0.2810185185185185,1,0,0,5.86170119990129,number1,True,True,False,30,5,2019_Nov_18_1309,MA_Theta_Exp,3.0.7,60.31592273020391,
video/Experiment/zh_sp01_Dr_We_1_GlobalTheta_NoVideo.avi,globalTheta,noVideo,sp01,Dr,We,1,3,5,flow/blocks/GlobalTheta_NoVideo_B.csv,,,,,,,,,0,3,3,3,0,21,21,28,,,,,,,,,-0.3611111111111111,-0.31342592592592594,1,0,0,5.016771199996583,call4,-0.005555555555555556,-0.28703703703703703,1,0,0,5.384935599984601,colour4,0.34444444444444444,0.27546296296296297,1,0,0,5.916732499958016,number1,False,True,True,30,5,2019_Nov_18_1309,MA_Theta_Exp,3.0.7,60.31592273020391,
video/Experiment/zh_sp01_Ad_Ge_1_GlobalTheta_NoVideo.avi,globalTheta,noVideo,sp01,Ad,Ge,1,3,5,flow/blocks/GlobalTheta_NoVideo_B.csv,,,,,,,,,0,3,3,3,0,22,22,16,,,,,,,,,-0.3888888888888889,0.26851851851851855,1,0,0,4.997626000083983,call1,0.02638888888888889,0.2726851851851852,1,0,0,5.5272284999955446,colour1,0.42916666666666664,0.30462962962962964,1,0,0,6.057872600038536,number1,True,True,True,30,5,2019_Nov_18_1309,MA_Theta_Exp,3.0.7,60.31592273020391,
video/Experiment/zh_sp01_Un_Ro_4_GlobalTheta_NoVideo.avi,globalTheta,noVideo,sp01,Un,Ro,4,3,5,flow/blocks/GlobalTheta_NoVideo_B.csv,,,,,,,,,0,3,3,3,0,23,23,27,,,,,,,,,-0.4166666666666667,-0.28425925925925927,1,0,0,4.9639244000427425,call4,0.025,-0.07592592592592592,1,0,0,5.478736000019126,colour3,0.4097222222222222,-0.060648148148148145,1,0,0,5.944254899979569,number3,True,True,False,30,5,2019_Nov_18_1309,MA_Theta_Exp,3.0.7,60.31592273020391,
video/Experiment/zh_sp01_Un_Ro_2_GlobalTheta_NoVideo.avi,globalTheta,noVideo,sp01,Un,Ro,2,3,5,flow/blocks/GlobalTheta_NoVideo_B.csv,,,,,,,,,0,3,3,3,0,24,24,9,,,,,,,,,-0.3416666666666667,-0.274537037037037,1,0,0,4.918352800072171,call4,0.09166666666666666,-0.1550925925925926,1,0,0,5.327862699981779,colour3,0.4166666666666667,0.1087962962962963,1,0,0,6.944299999973737,number2,True,True,True,30,5,2019_Nov_18_1309,MA_Theta_Exp,3.0.7,60.31592273020391,
video/Experiment/zh_sp07_Ti_Gr_3_GlobalTheta_NoVideo.avi,globalTheta,noVideo,sp07,Ti,Gr,3,3,5,flow/blocks/GlobalTheta_NoVideo_B.csv,,,,,,,,,0,3,3,3,0,25,25,22,,,,,,,,,-0.3472222222222222,-0.12175925925925926,1,0,0,4.421501099946909,call3,0.02361111111111111,0.06712962962962964,1,0,0,4.871543199988082,colour2,0.40694444444444444,-0.06620370370370371,1,0,0,5.307051700074226,number3,True,True,True,30,5,2019_Nov_18_1309,MA_Theta_Exp,3.0.7,60.31592273020391,
video/Experiment/zh_sp07_Ti_We_3_GlobalTheta_NoVideo.avi,globalTheta,noVideo,sp07,Ti,We,3,3,5,flow/blocks/GlobalTheta_NoVideo_B.csv,,,,,,,,,0,3,3,3,0,26,26,30,,,,,,,,,-0.32916666666666666,-0.09675925925925925,1,0,0,4.273049199953675,call3,0.016666666666666666,0.09351851851851851,1,0,0,4.823361000046134,colour2,0.42916666666666664,-0.09814814814814815,1,0,0,5.325645599979907,number3,True,False,True,30,5,2019_Nov_18_1309,MA_Theta_Exp,3.0.7,60.31592273020391,
video/Experiment/zh_sp07_Ti_We_2_GlobalTheta_NoVideo.avi,globalTheta,noVideo,sp07,Ti,We,2,3,5,flow/blocks/GlobalTheta_NoVideo_B.csv,,,,,,,,,0,3,3,3,0,27,27,29,,,,,,,,,-0.35833333333333334,-0.1300925925925926,1,0,0,4.519800600013696,call3,0.044444444444444446,0.11712962962962963,1,0,0,5.649438399937935,colour2,0.43194444444444446,0.11296296296296296,1,0,0,6.037453400087543,number2,True,False,True,30,5,2019_Nov_18_1309,MA_Theta_Exp,3.0.7,60.31592273020391,
video/Experiment/zh_sp01_Ti_Gr_2_GlobalTheta_NoVideo.avi,globalTheta,noVideo,sp01,Ti,Gr,2,3,5,flow/blocks/GlobalTheta_NoVideo_B.csv,,,,,,,,,0,3,3,3,0,28,28,21,,,,,,,,,-0.3819444444444444,-0.10648148148148148,1,0,0,5.035392299992964,call3,0.0125,0.0587962962962963,1,0,0,5.684610600001179,colour2,0.3763888888888889,0.08935185185185185,1,0,0,6.082499500014819,number2,True,True,True,30,5,2019_Nov_18_1309,MA_Theta_Exp,3.0.7,60.31592273020391,
video/Experiment/zh_sp01_Ti_We_1_GlobalTheta_NoVideo.avi,globalTheta,noVideo,sp01,Ti,We,1,3,5,flow/blocks/GlobalTheta_NoVideo_B.csv,,,,,,,,,0,3,3,3,0,29,29,12,,,,,,,,,-0.33194444444444443,-0.08148148148148149,1,0,0,5.160677899955772,call3,0.009722222222222222,-0.32175925925925924,1,0,0,5.797016599914059,colour4,0.4097222222222222,0.30462962962962964,1,0,0,6.429862800054252,number1,True,True,True,30,5,2019_Nov_18_1309,MA_Theta_Exp,3.0.7,60.31592273020391,
video/Experiment/zh_sp01_Ad_We_4_GlobalTheta_NoVideo.avi,globalTheta,noVideo,sp01,Ad,We,4,3,5,flow/blocks/GlobalTheta_NoVideo_B.csv,,,,,,,,,0,3,3,3,0,30,30,31,,,,,,,,,-0.36666666666666664,0.3199074074074074,1,0,0,5.089719600044191,call1,0.009722222222222222,-0.337037037037037,1,0,0,5.77677280001808,colour4,0.4986111111111111,-0.3050925925925926,1,0,0,6.3111079999944195,number4,True,True,True,30,5,2019_Nov_18_1309,MA_Theta_Exp,3.0.7,60.31592273020391,
video/Experiment/zh_sp07_Un_Ge_4_GlobalTheta_NoVideo.avi,globalTheta,noVideo,sp07,Un,Ge,4,3,5,flow/blocks/GlobalTheta_NoVideo_B.csv,,,,,,,,,0,3,3,3,0,31,31,19,,,,,,,,,-0.38055555555555554,-0.32314814814814813,1,0,0,4.105024799937382,call4,-0.011111111111111112,-0.3287037037037037,1,0,0,4.584919199929573,colour4,0.3402777777777778,-0.15648148148148147,1,0,0,5.002351600094698,number3,True,False,False,30,5,2019_Nov_18_1309,MA_Theta_Exp,3.0.7,60.31592273020391,
video/Experiment/zh_sp01_Dr_We_2_NVocInAudio_GlobalThetaInVideo.avi,vocoded,plusVideo,sp01,Dr,We,2,4,1,flow/blocks/NVocInAudio_GlobalThetaInVideo_A.csv,,,,,,,,,0,4,4,4,0,0,0,13,,,,,,,,,-0.4097222222222222,0.056018518518518516,1,0,0,5.649054499925114,call2,-0.02638888888888889,-0.28425925925925927,1,0,0,6.14981080009602,colour4,0.3680555555555556,0.10601851851851851,1,0,0,6.611420099972747,number2,True,True,True,30,5,2019_Nov_18_1309,MA_Theta_Exp,3.0.7,60.31592273020391,
video/Experiment/zh_sp07_Ad_Ro_4_NVocInAudio_GlobalThetaInVideo.avi,vocoded,plusVideo,sp07,Ad,Ro,4,4,1,flow/blocks/NVocInAudio_GlobalThetaInVideo_A.csv,,,,,,,,,0,4,4,4,0,1,1,11,,,,,,,,,-0.3472222222222222,0.26157407407407407,1,0,0,5.468404900049791,call1,-0.0625,-0.09675925925925925,1,0,0,5.97917539998889,colour3,0.3541666666666667,-0.26342592592592595,1,0,0,6.429830799927004,number4,True,True,True,30,5,2019_Nov_18_1309,MA_Theta_Exp,3.0.7,60.31592273020391,
video/Experiment/zh_sp01_Ad_We_1_NVocInAudio_GlobalThetaInVideo.avi,vocoded,plusVideo,sp01,Ad,We,1,4,1,flow/blocks/NVocInAudio_GlobalThetaInVideo_A.csv,,,,,,,,,0,4,4,4,0,2,2,12,,,,,,,,,-0.32222222222222224,0.30694444444444446,1,0,0,5.0088418000377715,call1,-0.005555555555555556,-0.37083333333333335,1,0,0,5.692788299988024,colour4,0.46944444444444444,0.3013888888888889,1,0,0,6.390899399993941,number1,True,True,True,30,5,2019_Nov_18_1309,MA_Theta_Exp,3.0.7,60.31592273020391,
video/Experiment/zh_sp01_Ad_Gr_3_NVocInAudio_GlobalThetaInVideo.avi,vocoded,plusVideo,sp01,Ad,Gr,3,4,1,flow/blocks/NVocInAudio_GlobalThetaInVideo_A.csv,,,,,,,,,0,4,4,4,0,3,3,22,,,,,,,,,-0.3902777777777778,0.33055555555555555,1,0,0,5.33378129999619,call1,0.02638888888888889,0.08888888888888889,1,0,0,5.8974193999310955,colour2,0.38472222222222224,-0.11666666666666667,1,0,0,6.432172199944034,number3,True,True,True,30,5,2019_Nov_18_1309,MA_Theta_Exp,3.0.7,60.31592273020391,
video/Experiment/zh_sp01_Un_Ro_1_NVocInAudio_GlobalThetaInVideo.avi,vocoded,plusVideo,sp01,Un,Ro,1,4,1,flow/blocks/NVocInAudio_GlobalThetaInVideo_A.csv,,,,,,,,,0,4,4,4,0,4,4,24,,,,,,,,,-0.3472222222222222,-0.25833333333333336,1,0,0,5.750965400016867,call4,0.0375,-0.12916666666666668,1,0,0,7.134838199941441,colour3,0.4375,0.3472222222222222,1,0,0,7.7887171999318525,number1,True,True,True,30,5,2019_Nov_18_1309,MA_Theta_Exp,3.0.7,60.31592273020391,
video/Experiment/zh_sp07_Ti_Ge_1_NVocInAudio_GlobalThetaInVideo.avi,vocoded,plusVideo,sp07,Ti,Ge,1,4,1,flow/blocks/NVocInAudio_GlobalThetaInVideo_A.csv,,,,,,,,,0,4,4,4,0,5,5,16,,,,,,,,,-0.3958333333333333,-0.13194444444444445,1,0,0,4.769638000056148,call3,0.04722222222222222,0.32083333333333336,1,0,0,5.621415900066495,colour1,0.4013888888888889,0.2833333333333333,1,0,0,6.603815600043163,number1,True,True,True,30,5,2019_Nov_18_1309,MA_Theta_Exp,3.0.7,60.31592273020391,
video/Experiment/zh_sp01_Dr_Ro_2_NVocInAudio_GlobalThetaInVideo.avi,vocoded,plusVideo,sp01,Dr,Ro,2,4,1,flow/blocks/NVocInAudio_GlobalThetaInVideo_A.csv,,,,,,,,,0,4,4,4,0,6,6,9,,,,,,,,,-0.32222222222222224,0.1388888888888889,1,0,0,5.91127789998427,call2,0.005555555555555556,-0.12222222222222222,1,0,0,6.410900499904528,colour3,0.37916666666666665,0.08055555555555556,1,0,0,6.894497100031003,number2,True,True,True,30,5,2019_Nov_18_1309,MA_Theta_Exp,3.0.7,60.31592273020391,
video/Experiment/zh_sp01_Un_We_3_NVocInAudio_GlobalThetaInVideo.avi,vocoded,plusVideo,sp01,Un,We,3,4,1,flow/blocks/NVocInAudio_GlobalThetaInVideo_A.csv,,,,,,,,,0,4,4,4,0,7,7,14,,,,,,,,,-0.3388888888888889,-0.27361111111111114,1,0,0,5.730258000083268,call4,-0.006944444444444444,-0.30972222222222223,1,0,0,6.246942300000228,colour4,0.41805555555555557,-0.08194444444444444,1,0,0,6.647435300052166,number3,True,True,True,30,5,2019_Nov_18_1309,MA_Theta_Exp,3.0.7,60.31592273020391,
video/Experiment/zh_sp01_Ti_Gr_4_NVocInAudio_GlobalThetaInVideo.avi,vocoded,plusVideo,sp01,Ti,Gr,4,4,1,flow/blocks/NVocInAudio_GlobalThetaInVideo_A.csv,,,,,,,,,0,4,4,4,0,8,8,7,,,,,,,,,-0.40555555555555556,-0.08333333333333333,1,0,0,5.971689599915408,call3,0.001388888888888889,0.09444444444444444,1,0,0,6.804335299995728,colour2,0.44722222222222224,-0.2361111111111111,1,0,0,7.406564500066452,number4,True,True,True,30,5,2019_Nov_18_1309,MA_Theta_Exp,3.0.7,60.31592273020391,
video/Experiment/zh_sp07_Un_We_1_NVocInAudio_GlobalThetaInVideo.avi,vocoded,plusVideo,sp07,Un,We,1,4,1,flow/blocks/NVocInAudio_GlobalThetaInVideo_A.csv,,,,,,,,,0,4,4,4,0,9,9,28,,,,,,,,,-0.47638888888888886,-0.35694444444444445,1,0,0,4.6037979000248015,call4,0.0375,-0.30972222222222223,1,0,0,5.308066900004633,colour4,0.48055555555555557,0.34305555555555556,1,0,0,5.937777200015262,number1,True,True,True,30,5,2019_Nov_18_1309,MA_Theta_Exp,3.0.7,60.31592273020391,
video/Experiment/zh_sp01_Ad_We_3_NVocInAudio_GlobalThetaInVideo.avi,vocoded,plusVideo,sp01,Ad,We,3,4,1,flow/blocks/NVocInAudio_GlobalThetaInVideo_A.csv,,,,,,,,,0,4,4,4,0,10,10,30,,,,,,,,,-0.33194444444444443,0.2847222222222222,1,0,0,4.973135500098579,call1,-0.001388888888888889,-0.37083333333333335,1,0,0,5.590240000048652,colour4,0.4847222222222222,-0.1125,1,0,0,6.129157799994573,number3,True,True,True,30,5,2019_Nov_18_1309,MA_Theta_Exp,3.0.7,60.31592273020391,
video/Experiment/zh_sp01_Ad_Ro_1_NVocInAudio_GlobalThetaInVideo.avi,vocoded,plusVideo,sp01,Ad,Ro,1,4,1,flow/blocks/NVocInAudio_GlobalThetaInVideo_A.csv,,,,,,,,,0,4,4,4,0,11,11,8,,,,,,,,,-0.3611111111111111,0.2513888888888889,1,0,0,5.5456019000848755,call1,-0.03888888888888889,-0.06527777777777778,1,0,0,6.1827996000647545,colour3,0.33611111111111114,0.2902777777777778,1,0,0,6.740169900003821,number1,True,True,True,30,5,2019_Nov_18_1309,MA_Theta_Exp,3.0.7,60.31592273020391,
video/Experiment/zh_sp07_Un_Ge_2_NVocInAudio_GlobalThetaInVideo.avi,vocoded,plusVideo,sp07,Un,Ge,2,4,1,flow/blocks/NVocInAudio_GlobalThetaInVideo_A.csv,,,,,,,,,0,4,4,4,0,12,12,17,,,,,,,,,-0.3416666666666667,-0.25277777777777777,1,0,0,6.8023559000575915,call4,0.04027777777777778,0.24305555555555555,1,0,0,7.590276299975812,colour1,0.36527777777777776,0.1,1,0,0,8.035794699913822,number2,True,True,True,30,5,2019_Nov_18_1309,MA_Theta_Exp,3.0.7,60.31592273020391,
video/Experiment/zh_sp01_Ti_Ro_2_NVocInAudio_GlobalThetaInVideo.avi,vocoded,plusVideo,sp01,Ti,Ro,2,4,1,flow/blocks/NVocInAudio_GlobalThetaInVideo_A.csv,,,,,,,,,0,4,4,4,0,13,13,25,,,,,,,,,-0.4263888888888889,-0.11666666666666667,1,0,0,5.2056707999436185,call3,-0.05277777777777778,-0.11666666666666667,1,0,0,5.588460099999793,colour3,0.3611111111111111,0.125,1,0,0,6.0874951999867335,number2,True,True,True,30,5,2019_Nov_18_1309,MA_Theta_Exp,3.0.7,60.31592273020391,
video/Experiment/zh_sp07_Ti_We_4_NVocInAudio_GlobalThetaInVideo.avi,vocoded,plusVideo,sp07,Ti,We,4,4,1,flow/blocks/NVocInAudio_GlobalThetaInVideo_A.csv,,,,,,,,,0,4,4,4,0,14,14,31,,,,,,,,,-0.39861111111111114,-0.09027777777777778,1,0,0,4.592770399991423,call3,-0.05694444444444444,-0.31666666666666665,1,0,0,5.193753699888475,colour4,0.39861111111111114,-0.3333333333333333,1,0,0,5.875678300042637,number4,True,True,True,30,5,2019_Nov_18_1309,MA_Theta_Exp,3.0.7,60.31592273020391,
video/Experiment/zh_sp07_Dr_Gr_4_NVocInAudio_GlobalThetaInVideo.avi,vocoded,plusVideo,sp07,Dr,Gr,4,4,1,flow/blocks/NVocInAudio_GlobalThetaInVideo_A.csv,,,,,,,,,0,4,4,4,0,15,15,23,,,,,,,,,-0.3736111111111111,0.08194444444444444,1,0,0,4.58065430005081,call2,0.005555555555555556,0.07777777777777778,1,0,0,4.974065299960785,colour2,0.3680555555555556,-0.3111111111111111,1,0,0,5.507661300012842,number4,True,True,True,30,5,2019_Nov_18_1309,MA_Theta_Exp,3.0.7,60.31592273020391,
video/Experiment/zh_sp07_Ti_Ge_3_NVocInAudio_GlobalThetaInVideo.avi,vocoded,plusVideo,sp07,Ti,Ge,3,4,1,flow/blocks/NVocInAudio_GlobalThetaInVideo_A.csv,,,,,,,,,0,4,4,4,0,16,16,18,,,,,,,,,-0.35694444444444445,-0.11805555555555555,1,0,0,4.5450042999582365,call3,0.011111111111111112,0.2972222222222222,1,0,0,5.26548920001369,colour1,0.37916666666666665,-0.14166666666666666,1,0,0,5.830997699988075,number3,True,True,True,30,5,2019_Nov_18_1309,MA_Theta_Exp,3.0.7,60.31592273020391,
video/Experiment/zh_sp01_Un_Gr_1_NVocInAudio_GlobalThetaInVideo.avi,vocoded,plusVideo,sp01,Un,Gr,1,4,1,flow/blocks/NVocInAudio_GlobalThetaInVideo_A.csv,,,,,,,,,0,4,4,4,0,17,17,20,,,,,,,,,-0.35,-0.2791666666666667,1,0,0,5.284075900097378,call4,0.016666666666666666,0.10555555555555556,1,0,0,5.951186800026335,colour2,0.4111111111111111,0.3486111111111111,1,0,0,6.6381158999865875,number1,True,True,True,30,5,2019_Nov_18_1309,MA_Theta_Exp,3.0.7,60.31592273020391,
video/Experiment/zh_sp07_Ad_We_2_NVocInAudio_GlobalThetaInVideo.avi,vocoded,plusVideo,sp07,Ad,We,2,4,1,flow/blocks/NVocInAudio_GlobalThetaInVideo_A.csv,,,,,,,,,0,4,4,4,0,18,18,29,,,,,,,,,-0.3958333333333333,0.29583333333333334,1,0,0,4.578645900008269,call1,0.001388888888888889,-0.32083333333333336,1,0,0,5.195610000053421,colour4,0.3819444444444444,0.10138888888888889,1,0,0,5.746253799996339,number2,True,True,True,30,5,2019_Nov_18_1309,MA_Theta_Exp,3.0.7,60.31592273020391,
video/Experiment/zh_sp07_Un_Ge_3_NVocInAudio_GlobalThetaInVideo.avi,vocoded,plusVideo,sp07,Un,Ge,3,4,1,flow/blocks/NVocInAudio_GlobalThetaInVideo_A.csv,,,,,,,,,0,4,4,4,0,19,19,2,,,,,,,,,-0.3680555555555556,-0.2875,1,0,0,4.383498599985614,call4,0.011111111111111112,0.24166666666666667,1,0,0,5.065761899924837,colour1,0.37083333333333335,-0.0875,1,0,0,5.582506299950182,number3,True,True,True,30,5,2019_Nov_18_1309,MA_Theta_Exp,3.0.7,60.31592273020391,
video/Experiment/zh_sp01_Ti_Ro_3_NVocInAudio_GlobalThetaInVideo.avi,vocoded,plusVideo,sp01,Ti,Ro,3,4,1,flow/blocks/NVocInAudio_GlobalThetaInVideo_A.csv,,,,,,,,,0,4,4,4,0,20,20,10,,,,,,,,,-0.40555555555555556,-0.1125,1,0,0,5.270630800048821,call3,0.0,-0.13194444444444445,1,0,0,5.719788099988364,colour3,0.3819444444444444,-0.13333333333333333,1,0,0,6.180695699993521,number3,True,True,True,30,5,2019_Nov_18_1309,MA_Theta_Exp,3.0.7,60.31592273020391,
video/Experiment/zh_sp01_Ti_Ge_2_NVocInAudio_GlobalThetaInVideo.avi,vocoded,plusVideo,sp01,Ti,Ge,2,4,1,flow/blocks/NVocInAudio_GlobalThetaInVideo_A.csv,,,,,,,,,0,4,4,4,0,21,21,1,,,,,,,,,-0.3972222222222222,-0.08333333333333333,1,0,0,5.323738700011745,call3,0.016666666666666666,0.32083333333333336,1,0,0,5.891191800008528,colour1,0.42916666666666664,0.07916666666666666,1,0,0,6.39069719996769,number2,True,True,True,30,5,2019_Nov_18_1309,MA_Theta_Exp,3.0.7,60.31592273020391,
video/Experiment/zh_sp01_Un_We_4_NVocInAudio_GlobalThetaInVideo.avi,vocoded,plusVideo,sp01,Un,We,4,4,1,flow/blocks/NVocInAudio_GlobalThetaInVideo_A.csv,,,,,,,,,0,4,4,4,0,22,22,15,,,,,,,,,-0.33055555555555555,-0.33194444444444443,1,0,0,5.231776000000536,call4,0.05416666666666667,-0.33055555555555555,1,0,0,5.717614999972284,colour4,0.39444444444444443,-0.32083333333333336,1,0,0,6.131445599952713,number4,True,True,True,30,5,2019_Nov_18_1309,MA_Theta_Exp,3.0.7,60.31592273020391,
video/Experiment/zh_sp07_Dr_Ge_4_NVocInAudio_GlobalThetaInVideo.avi,vocoded,plusVideo,sp07,Dr,Ge,4,4,1,flow/blocks/NVocInAudio_GlobalThetaInVideo_A.csv,,,,,,,,,0,4,4,4,0,23,23,19,,,,,,,,,-0.3958333333333333,0.13055555555555556,1,0,0,4.893758799997158,call2,0.02361111111111111,0.30694444444444446,1,0,0,5.379018500098027,colour1,0.44305555555555554,-0.31527777777777777,1,0,0,5.927134400000796,number4,True,True,True,30,5,2019_Nov_18_1309,MA_Theta_Exp,3.0.7,60.31592273020391,
video/Experiment/zh_sp01_Ad_Gr_2_NVocInAudio_GlobalThetaInVideo.avi,vocoded,plusVideo,sp01,Ad,Gr,2,4,1,flow/blocks/NVocInAudio_GlobalThetaInVideo_A.csv,,,,,,,,,0,4,4,4,0,24,24,21,,,,,,,,,-0.36944444444444446,0.3013888888888889,1,0,0,6.098520800005645,call1,0.044444444444444446,0.09444444444444444,1,0,0,6.848605000064708,colour2,0.4125,0.12083333333333333,1,0,0,7.297919400036335,number2,True,True,True,30,5,2019_Nov_18_1309,MA_Theta_Exp,3.0.7,60.31592273020391,
video/Experiment/zh_sp07_Dr_Gr_3_NVocInAudio_GlobalThetaInVideo.avi,vocoded,plusVideo,sp07,Dr,Gr,3,4,1,flow/blocks/NVocInAudio_GlobalThetaInVideo_A.csv,,,,,,,,,0,4,4,4,0,25,25,6,,,,,,,,,-0.3902777777777778,0.16944444444444445,1,0,0,4.59587650001049,call2,-0.02361111111111111,0.12638888888888888,1,0,0,5.062302600010298,colour2,0.3972222222222222,-0.11805555555555555,1,0,0,5.5974399000406265,number3,True,True,True,30,5,2019_Nov_18_1309,MA_Theta_Exp,3.0.7,60.31592273020391,
video/Experiment/zh_sp01_Un_Ro_3_NVocInAudio_GlobalThetaInVideo.avi,vocoded,plusVideo,sp01,Un,Ro,3,4,1,flow/blocks/NVocInAudio_GlobalThetaInVideo_A.csv,,,,,,,,,0,4,4,4,0,26,26,26,,,,,,,,,-0.32222222222222224,-0.33611111111111114,1,0,0,5.847794499946758,call4,0.06111111111111111,-0.125,1,0,0,6.365569100016728,colour3,0.37777777777777777,-0.1361111111111111,1,0,0,6.74928279989399,number3,True,True,True,30,5,2019_Nov_18_1309,MA_Theta_Exp,3.0.7,60.31592273020391,
video/Experiment/zh_sp07_Dr_Ro_4_NVocInAudio_GlobalThetaInVideo.avi,vocoded,plusVideo,sp07,Dr,Ro,4,4,1,flow/blocks/NVocInAudio_GlobalThetaInVideo_A.csv,,,,,,,,,0,4,4,4,0,27,27,27,,,,,,,,,-0.3861111111111111,0.10972222222222222,1,0,0,4.9195253000361845,call2,0.019444444444444445,-0.06805555555555555,1,0,0,5.326409499975853,colour3,0.4041666666666667,-0.31527777777777777,1,0,0,5.876116700004786,number4,True,True,True,30,5,2019_Nov_18_1309,MA_Theta_Exp,3.0.7,60.31592273020391,
video/Experiment/zh_sp07_Dr_Ge_1_NVocInAudio_GlobalThetaInVideo.avi,vocoded,plusVideo,sp07,Dr,Ge,1,4,1,flow/blocks/NVocInAudio_GlobalThetaInVideo_A.csv,,,,,,,,,0,4,4,4,0,28,28,0,,,,,,,,,-0.44305555555555554,0.07222222222222222,1,0,0,4.604088300024159,call2,-0.015277777777777777,0.25833333333333336,1,0,0,5.07003750000149,colour1,0.3680555555555556,0.24722222222222223,1,0,0,5.542416200041771,number1,True,True,True,30,5,2019_Nov_18_1309,MA_Theta_Exp,3.0.7,60.31592273020391,
video/Experiment/zh_sp07_Ti_Ge_4_NVocInAudio_GlobalThetaInVideo.avi,vocoded,plusVideo,sp07,Ti,Ge,4,4,1,flow/blocks/NVocInAudio_GlobalThetaInVideo_A.csv,,,,,,,,,0,4,4,4,0,29,29,3,,,,,,,,,-0.3958333333333333,-0.1,1,0,0,4.550537499948405,call3,-0.009722222222222222,0.2763888888888889,1,0,0,5.101373299956322,colour1,0.3388888888888889,-0.35,1,0,0,5.717221800005063,number4,True,True,True,30,5,2019_Nov_18_1309,MA_Theta_Exp,3.0.7,60.31592273020391,
video/Experiment/zh_sp07_Dr_Gr_2_NVocInAudio_GlobalThetaInVideo.avi,vocoded,plusVideo,sp07,Dr,Gr,2,4,1,flow/blocks/NVocInAudio_GlobalThetaInVideo_A.csv,,,,,,,,,0,4,4,4,0,30,30,5,,,,,,,,,-0.3888888888888889,0.11527777777777778,1,0,0,4.88551729999017,call2,-0.030555555555555555,0.08888888888888889,1,0,0,5.449055899982341,colour2,0.3638888888888889,0.15833333333333333,1,0,0,5.851316399988718,number2,True,True,True,30,5,2019_Nov_18_1309,MA_Theta_Exp,3.0.7,60.31592273020391,
video/Experiment/zh_sp07_Ad_Gr_1_NVocInAudio_GlobalThetaInVideo.avi,vocoded,plusVideo,sp07,Ad,Gr,1,4,1,flow/blocks/NVocInAudio_GlobalThetaInVideo_A.csv,,,,,,,,,0,4,4,4,0,31,31,4,,,,,,,,,-0.4263888888888889,0.32222222222222224,1,0,0,4.626724599977024,call1,-0.06111111111111111,0.08194444444444444,1,0,0,5.078064800007269,colour2,0.37222222222222223,0.2763888888888889,1,0,0,5.644240199937485,number1,True,True,True,30,5,2019_Nov_18_1309,MA_Theta_Exp,3.0.7,60.31592273020391,
video/Experiment/zh_sp07_Ad_Ro_2_NoThetaInAudio_NoVideo.avi,noTheta,noVideo,sp07,Ad,Ro,2,0,4,flow/blocks/NoThetaInAudio_NoVideo_B.csv,,,,,,,,,,,,,,,,,0,0,0,0,0,0,0,25,-0.35833333333333334,0.3597222222222222,1,0,0,5.407502799993381,call1,0.02361111111111111,-0.0875,1,0,0,5.954201399930753,colour3,0.39166666666666666,0.10694444444444444,1,0,0,6.473310999921523,number2,True,True,True,30,5,2019_Nov_18_1309,MA_Theta_Exp,3.0.7,60.31592273020391,
video/Experiment/zh_sp01_Un_Gr_2_NoThetaInAudio_NoVideo.avi,noTheta,noVideo,sp01,Un,Gr,2,0,4,flow/blocks/NoThetaInAudio_NoVideo_B.csv,,,,,,,,,,,,,,,,,0,0,0,0,0,1,1,5,-0.39166666666666666,-0.30833333333333335,1,0,0,5.1589420000091195,call4,0.043055555555555555,0.14027777777777778,1,0,0,5.745068799937144,colour2,0.49166666666666664,0.07777777777777778,1,0,0,6.128071300103329,number2,True,True,True,30,5,2019_Nov_18_1309,MA_Theta_Exp,3.0.7,60.31592273020391,
video/Experiment/zh_sp01_Ti_Gr_3_NoThetaInAudio_NoVideo.avi,noTheta,noVideo,sp01,Ti,Gr,3,0,4,flow/blocks/NoThetaInAudio_NoVideo_B.csv,,,,,,,,,,,,,,,,,0,0,0,0,0,2,2,22,-0.3472222222222222,-0.10138888888888889,1,0,0,5.3977272000629455,call3,-0.022222222222222223,0.14722222222222223,1,0,0,5.815532600041479,colour2,0.43472222222222223,-0.08472222222222223,1,0,0,6.524395799962804,number3,True,True,True,30,5,2019_Nov_18_1309,MA_Theta_Exp,3.0.7,60.31592273020391,
video/Experiment/zh_sp01_Dr_Ge_3_NoThetaInAudio_NoVideo.avi,noTheta,noVideo,sp01,Dr,Ge,3,0,4,flow/blocks/NoThetaInAudio_NoVideo_B.csv,,,,,,,,,,,,,,,,,0,0,0,0,0,3,3,2,-0.3972222222222222,-0.32222222222222224,1,0,0,5.1598583000013605,call4,-0.027777777777777776,0.33055555555555555,1,0,0,5.795509599964134,colour1,0.42083333333333334,-0.13194444444444445,1,0,0,6.443574099917896,number3,False,True,True,30,5,2019_Nov_18_1309,MA_Theta_Exp,3.0.7,60.31592273020391,
video/Experiment/zh_sp01_Dr_Ge_2_NoThetaInAudio_NoVideo.avi,noTheta,noVideo,sp01,Dr,Ge,2,0,4,flow/blocks/NoThetaInAudio_NoVideo_B.csv,,,,,,,,,,,,,,,,,0,0,0,0,0,4,4,17,-0.38055555555555554,-0.30694444444444446,1,0,0,4.99695070006419,call4,0.013888888888888888,0.2847222222222222,1,0,0,5.527299999957904,colour1,0.39305555555555555,0.11944444444444445,1,0,0,6.130567099899054,number2,False,True,True,30,5,2019_Nov_18_1309,MA_Theta_Exp,3.0.7,60.31592273020391,
video/Experiment/zh_sp07_Ad_Gr_4_NoThetaInAudio_NoVideo.avi,noTheta,noVideo,sp07,Ad,Gr,4,0,4,flow/blocks/NoThetaInAudio_NoVideo_B.csv,,,,,,,,,,,,,,,,,0,0,0,0,0,5,5,7,-0.4722222222222222,-0.31805555555555554,1,0,0,4.403811799944378,call4,0.06111111111111111,0.06805555555555555,1,0,0,6.236555299954489,colour2,0.4625,-0.30833333333333335,1,0,0,7.136652100016363,number4,False,True,True,30,5,2019_Nov_18_1309,MA_Theta_Exp,3.0.7,60.31592273020391,
video/Experiment/zh_sp07_Un_Ro_4_NoThetaInAudio_NoVideo.avi,noTheta,noVideo,sp07,Un,Ro,4,0,4,flow/blocks/NoThetaInAudio_NoVideo_B.csv,,,,,,,,,,,,,,,,,0,0,0,0,0,6,6,27,-0.3736111111111111,-0.32916666666666666,1,0,0,4.560862799989991,call4,0.044444444444444446,-0.10833333333333334,1,0,0,5.194705699919723,colour3,0.4513888888888889,-0.2833333333333333,1,0,0,5.744653199915774,number4,True,True,True,30,5,2019_Nov_18_1309,MA_Theta_Exp,3.0.7,60.31592273020391,
video/Experiment/zh_sp01_Dr_Ro_1_NoThetaInAudio_NoVideo.avi,noTheta,noVideo,sp01,Dr,Ro,1,0,4,flow/blocks/NoThetaInAudio_NoVideo_B.csv,,,,,,,,,,,,,,,,,0,0,0,0,0,7,7,24,-0.4083333333333333,0.06805555555555555,1,0,0,5.459353700047359,call2,0.008333333333333333,-0.12083333333333333,1,0,0,5.963539500022307,colour3,0.44027777777777777,0.3055555555555556,1,0,0,6.720006700023077,number1,True,True,True,30,5,2019_Nov_18_1309,MA_Theta_Exp,3.0.7,60.31592273020391,
video/Experiment/zh_sp01_Dr_We_1_NoThetaInAudio_NoVideo.avi,noTheta,noVideo,sp01,Dr,We,1,0,4,flow/blocks/NoThetaInAudio_NoVideo_B.csv,,,,,,,,,,,,,,,,,0,0,0,0,0,8,8,28,-0.40555555555555556,0.13194444444444445,1,0,0,5.211443100008182,call2,-0.008333333333333333,-0.3347222222222222,1,0,0,5.991805199999362,colour4,0.34305555555555556,0.23055555555555557,1,0,0,6.576358699938282,number1,True,True,True,30,5,2019_Nov_18_1309,MA_Theta_Exp,3.0.7,60.31592273020391,
video/Experiment/zh_sp07_Dr_Ro_3_NoThetaInAudio_NoVideo.avi,noTheta,noVideo,sp07,Dr,Ro,3,0,4,flow/blocks/NoThetaInAudio_NoVideo_B.csv,,,,,,,,,,,,,,,,,0,0,0,0,0,9,9,26,-0.4263888888888889,0.12083333333333333,1,0,0,4.335097500006668,call2,0.009722222222222222,-0.08611111111111111,1,0,0,4.900677100056782,colour3,0.3902777777777778,-0.10277777777777777,1,0,0,5.385614700033329,number3,True,True,True,30,5,2019_Nov_18_1309,MA_Theta_Exp,3.0.7,60.31592273020391,
video/Experiment/zh_sp07_Ti_Gr_2_NoThetaInAudio_NoVideo.avi,noTheta,noVideo,sp07,Ti,Gr,2,0,4,flow/blocks/NoThetaInAudio_NoVideo_B.csv,,,,,,,,,,,,,,,,,0,0,0,0,0,10,10,21,-0.4236111111111111,-0.13055555555555556,1,0,0,4.499607100035064,call3,0.06388888888888888,0.11805555555555555,1,0,0,5.056552299996838,colour2,0.4444444444444444,0.11527777777777778,1,0,0,5.639929899945855,number2,True,True,True,30,5,2019_Nov_18_1309,MA_Theta_Exp,3.0.7,60.31592273020391,
video/Experiment/zh_sp01_Dr_Gr_1_NoThetaInAudio_NoVideo.avi,noTheta,noVideo,sp01,Dr,Gr,1,0,4,flow/blocks/NoThetaInAudio_NoVideo_B.csv,,,,,,,,,,,,,,,,,0,0,0,0,0,11,11,20,-0.4222222222222222,0.11527777777777778,1,0,0,5.465522199985571,call2,-0.016666666666666666,0.09166666666666666,1,0,0,5.934966399916448,colour2,0.45694444444444443,0.30694444444444446,1,0,0,6.407377299969085,number1,True,True,True,30,5,2019_Nov_18_1309,MA_Theta_Exp,3.0.7,60.31592273020391,
video/Experiment/zh_sp07_Un_Ro_2_NoThetaInAudio_NoVideo.avi,noTheta,noVideo,sp07,Un,Ro,2,0,4,flow/blocks/NoThetaInAudio_NoVideo_B.csv,,,,,,,,,,,,,,,,,0,0,0,0,0,12,12,9,-0.4041666666666667,-0.34444444444444444,1,0,0,4.3778840999584645,call4,-0.030555555555555555,-0.09861111111111111,1,0,0,4.843721500015818,colour3,0.40694444444444444,-0.08333333333333333,1,0,0,5.296047999989241,number3,True,True,False,30,5,2019_Nov_18_1309,MA_Theta_Exp,3.0.7,60.31592273020391,
video/Experiment/zh_sp07_Dr_We_3_NoThetaInAudio_NoVideo.avi,noTheta,noVideo,sp07,Dr,We,3,0,4,flow/blocks/NoThetaInAudio_NoVideo_B.csv,,,,,,,,,,,,,,,,,0,0,0,0,0,13,13,14,-0.4388888888888889,0.0875,1,0,0,4.475769200013019,call2,-0.011111111111111112,-0.3597222222222222,1,0,0,5.118087899987586,colour4,0.39166666666666666,-0.09027777777777778,1,0,0,5.695175400003791,number3,True,True,True,30,5,2019_Nov_18_1309,MA_Theta_Exp,3.0.7,60.31592273020391,
video/Experiment/zh_sp01_Un_Ge_4_NoThetaInAudio_NoVideo.avi,noTheta,noVideo,sp01,Un,Ge,4,0,4,flow/blocks/NoThetaInAudio_NoVideo_B.csv,,,,,,,,,,,,,,,,,0,0,0,0,0,14,14,19,-0.4152777777777778,-0.3458333333333333,1,0,0,5.095416399999522,call4,-0.0125,0.3138888888888889,1,0,0,5.892180999973789,colour1,0.425,-0.3680555555555556,1,0,0,6.590600099996664,number4,True,True,True,30,5,2019_Nov_18_1309,MA_Theta_Exp,3.0.7,60.31592273020391,
video/Experiment/zh_sp01_Un_We_2_NoThetaInAudio_NoVideo.avi,noTheta,noVideo,sp01,Un,We,2,0,4,flow/blocks/NoThetaInAudio_NoVideo_B.csv,,,,,,,,,,,,,,,,,0,0,0,0,0,15,15,13,-0.3875,-0.2972222222222222,1,0,0,4.96722089999821,call4,-0.05138888888888889,-0.2916666666666667,1,0,0,5.498899800004438,colour4,0.3736111111111111,0.04861111111111111,1,0,0,6.0498701999895275,number2,True,True,True,30,5,2019_Nov_18_1309,MA_Theta_Exp,3.0.7,60.31592273020391,
video/Experiment/zh_sp07_Ti_Ro_4_NoThetaInAudio_NoVideo.avi,noTheta,noVideo,sp07,Ti,Ro,4,0,4,flow/blocks/NoThetaInAudio_NoVideo_B.csv,,,,,,,,,,,,,,,,,0,0,0,0,0,16,16,11,-0.3736111111111111,-0.11527777777777778,1,0,0,4.3342990999808535,call3,0.030555555555555555,-0.08888888888888889,1,0,0,4.86751050001476,colour3,0.40694444444444444,-0.2611111111111111,1,0,0,5.388925699982792,number4,True,True,True,30,5,2019_Nov_18_1309,MA_Theta_Exp,3.0.7,60.31592273020391,
video/Experiment/zh_sp07_Un_Gr_3_NoThetaInAudio_NoVideo.avi,noTheta,noVideo,sp07,Un,Gr,3,0,4,flow/blocks/NoThetaInAudio_NoVideo_B.csv,,,,,,,,,,,,,,,,,0,0,0,0,0,17,17,6,-0.4236111111111111,-0.3138888888888889,1,0,0,4.264928200049326,call4,0.04583333333333333,0.09444444444444444,1,0,0,4.796303799957968,colour2,0.4666666666666667,-0.1527777777777778,1,0,0,5.331326700048521,number3,True,True,True,30,5,2019_Nov_18_1309,MA_Theta_Exp,3.0.7,60.31592273020391,
video/Experiment/zh_sp01_Ad_We_4_NoThetaInAudio_NoVideo.avi,noTheta,noVideo,sp01,Ad,We,4,0,4,flow/blocks/NoThetaInAudio_NoVideo_B.csv,,,,,,,,,,,,,,,,,0,0,0,0,0,18,18,31,-0.4236111111111111,0.2763888888888889,1,0,0,4.96015910001006,call1,0.08055555555555556,-0.2875,1,0,0,5.642860799911432,colour4,0.4486111111111111,-0.29305555555555557,1,0,0,6.082356000086293,number4,True,True,True,30,5,2019_Nov_18_1309,MA_Theta_Exp,3.0.7,60.31592273020391,
video/Experiment/zh_sp01_Ad_Ge_2_NoThetaInAudio_NoVideo.avi,noTheta,noVideo,sp01,Ad,Ge,2,0,4,flow/blocks/NoThetaInAudio_NoVideo_B.csv,,,,,,,,,,,,,,,,,0,0,0,0,0,19,19,1,-0.3194444444444444,0.2833333333333333,1,0,0,5.149353600107133,call1,0.0625,0.30277777777777776,1,0,0,5.837770299986005,colour1,0.3638888888888889,0.07916666666666666,1,0,0,6.235219900030643,number2,True,True,True,30,5,2019_Nov_18_1309,MA_Theta_Exp,3.0.7,60.31592273020391,
video/Experiment/zh_sp07_Ti_We_2_NoThetaInAudio_NoVideo.avi,noTheta,noVideo,sp07,Ti,We,2,0,4,flow/blocks/NoThetaInAudio_NoVideo_B.csv,,,,,,,,,,,,,,,,,0,0,0,0,0,20,20,29,-0.37777777777777777,-0.10138888888888889,1,0,0,4.635360599961132,call3,0.0125,0.06944444444444445,1,0,0,5.035145599977113,colour2,0.37777777777777777,0.07916666666666666,1,0,0,5.470498799928464,number2,True,False,True,30,5,2019_Nov_18_1309,MA_Theta_Exp,3.0.7,60.31592273020391,
video/Experiment/zh_sp01_Ti_We_1_NoThetaInAudio_NoVideo.avi,noTheta,noVideo,sp01,Ti,We,1,0,4,flow/blocks/NoThetaInAudio_NoVideo_B.csv,,,,,,,,,,,,,,,,,0,0,0,0,0,21,21,12,-0.3527777777777778,-0.09305555555555556,1,0,0,5.182644200045615,call3,-0.04722222222222222,-0.30833333333333335,1,0,0,5.717642899951898,colour4,0.38055555555555554,0.28194444444444444,1,0,0,6.3215278999414295,number1,True,True,True,30,5,2019_Nov_18_1309,MA_Theta_Exp,3.0.7,60.31592273020391,
video/Experiment/zh_sp07_Dr_We_4_NoThetaInAudio_NoVideo.avi,noTheta,noVideo,sp07,Dr,We,4,0,4,flow/blocks/NoThetaInAudio_NoVideo_B.csv,,,,,,,,,,,,,,,,,0,0,0,0,0,22,22,15,-0.36666666666666664,0.14166666666666666,1,0,0,4.439044300001115,call2,0.0,-0.3416666666666667,1,0,0,5.093599300016649,colour4,0.4083333333333333,-0.15,1,0,0,5.688166199950501,number3,True,True,False,30,5,2019_Nov_18_1309,MA_Theta_Exp,3.0.7,60.31592273020391,
video/Experiment/zh_sp07_Ti_Gr_1_NoThetaInAudio_NoVideo.avi,noTheta,noVideo,sp07,Ti,Gr,1,0,4,flow/blocks/NoThetaInAudio_NoVideo_B.csv,,,,,,,,,,,,,,,,,0,0,0,0,0,23,23,4,-0.32083333333333336,-0.14027777777777778,1,0,0,4.701420099940151,call3,0.044444444444444446,0.12361111111111112,1,0,0,5.147940800059587,colour2,0.3402777777777778,0.2625,1,0,0,5.548513900022954,number1,True,True,True,30,5,2019_Nov_18_1309,MA_Theta_Exp,3.0.7,60.31592273020391,
video/Experiment/zh_sp01_Ad_Ge_3_NoThetaInAudio_NoVideo.avi,noTheta,noVideo,sp01,Ad,Ge,3,0,4,flow/blocks/NoThetaInAudio_NoVideo_B.csv,,,,,,,,,,,,,,,,,0,0,0,0,0,24,24,18,-0.39305555555555555,0.29583333333333334,1,0,0,5.070784499985166,call1,0.019444444444444445,0.11805555555555555,1,0,0,5.487073700060137,colour2,0.43333333333333335,-0.08194444444444444,1,0,0,6.104657900054008,number3,True,False,True,30,5,2019_Nov_18_1309,MA_Theta_Exp,3.0.7,60.31592273020391,
video/Experiment/zh_sp01_Ad_Ge_1_NoThetaInAudio_NoVideo.avi,noTheta,noVideo,sp01,Ad,Ge,1,0,4,flow/blocks/NoThetaInAudio_NoVideo_B.csv,,,,,,,,,,,,,,,,,0,0,0,0,0,25,25,16,-0.3875,0.32916666666666666,1,0,0,5.266645300085656,call1,-0.041666666666666664,0.2875,1,0,0,5.782151899999008,colour1,0.4444444444444444,0.28055555555555556,1,0,0,6.251786199980415,number1,True,True,True,30,5,2019_Nov_18_1309,MA_Theta_Exp,3.0.7,60.31592273020391,
video/Experiment/zh_sp01_Ti_Ro_1_NoThetaInAudio_NoVideo.avi,noTheta,noVideo,sp01,Ti,Ro,1,0,4,flow/blocks/NoThetaInAudio_NoVideo_B.csv,,,,,,,,,,,,,,,,,0,0,0,0,0,26,26,8,-0.38333333333333336,-0.13333333333333333,1,0,0,5.138834399986081,call3,0.015277777777777777,-0.13333333333333333,1,0,0,5.540388199966401,colour3,0.35555555555555557,-0.14305555555555555,1,0,0,5.924938199925236,number3,True,True,False,30,5,2019_Nov_18_1309,MA_Theta_Exp,3.0.7,60.31592273020391,
video/Experiment/zh_sp07_Ad_Ro_3_NoThetaInAudio_NoVideo.avi,noTheta,noVideo,sp07,Ad,Ro,3,0,4,flow/blocks/NoThetaInAudio_NoVideo_B.csv,,,,,,,,,,,,,,,,,0,0,0,0,0,27,27,10,-0.39444444444444443,0.2861111111111111,1,0,0,4.727786600007676,call1,0.001388888888888889,-0.15555555555555556,1,0,0,5.228386600036174,colour3,0.35555555555555557,-0.14305555555555555,1,0,0,5.627185599994846,number3,True,True,True,30,5,2019_Nov_18_1309,MA_Theta_Exp,3.0.7,60.31592273020391,
video/Experiment/zh_sp07_Ad_Ge_4_NoThetaInAudio_NoVideo.avi,noTheta,noVideo,sp07,Ad,Ge,4,0,4,flow/blocks/NoThetaInAudio_NoVideo_B.csv,,,,,,,,,,,,,,,,,0,0,0,0,0,28,28,3,-0.4013888888888889,0.3277777777777778,1,0,0,4.618795300018974,call1,0.011111111111111112,0.28194444444444444,1,0,0,5.183605999918655,colour1,0.42083333333333334,-0.2847222222222222,1,0,0,5.798343200003728,number4,True,True,True,30,5,2019_Nov_18_1309,MA_Theta_Exp,3.0.7,60.31592273020391,
video/Experiment/zh_sp01_Un_Gr_4_NoThetaInAudio_NoVideo.avi,noTheta,noVideo,sp01,Un,Gr,4,0,4,flow/blocks/NoThetaInAudio_NoVideo_B.csv,,,,,,,,,,,,,,,,,0,0,0,0,0,29,29,23,-0.3902777777777778,-0.3625,1,0,0,4.800574199995026,call4,-0.001388888888888889,0.075,1,0,0,5.315110899973661,colour2,0.31805555555555554,-0.3277777777777778,1,0,0,5.8148163999430835,number4,True,True,True,30,5,2019_Nov_18_1309,MA_Theta_Exp,3.0.7,60.31592273020391,
video/Experiment/zh_sp07_Un_Ge_1_NoThetaInAudio_NoVideo.avi,noTheta,noVideo,sp07,Un,Ge,1,0,4,flow/blocks/NoThetaInAudio_NoVideo_B.csv,,,,,,,,,,,,,,,,,0,0,0,0,0,30,30,0,-0.3055555555555556,-0.3388888888888889,1,0,0,4.29119969997555,call4,-0.006944444444444444,0.3347222222222222,1,0,0,5.323318300070241,colour1,0.38055555555555554,0.3194444444444444,1,0,0,5.857136300066486,number1,True,True,True,30,5,2019_Nov_18_1309,MA_Theta_Exp,3.0.7,60.31592273020391,
video/Experiment/zh_sp07_Ti_We_3_NoThetaInAudio_NoVideo.avi,noTheta,noVideo,sp07,Ti,We,3,0,4,flow/blocks/NoThetaInAudio_NoVideo_B.csv,,,,,,,,,,,,,,,,,0,0,0,0,0,31,31,30,-0.38055555555555554,-0.15555555555555556,1,0,0,4.8983991999411955,call3,-0.05416666666666667,-0.275,1,0,0,5.32871850009542,colour4,0.475,-0.1375,1,0,0,5.980585600016639,number3,True,True,True,30,5,2019_Nov_18_1309,MA_Theta_Exp,3.0.7,60.31592273020391,
