videoFile,condition,video,speaker,callSign,colour,number,seq,id,block,exp.thisRepN,exp.thisTrialN,exp.thisN,exp.thisIndex,training.thisRepN,training.thisTrialN,training.thisN,training.thisIndex,firstHalf.thisRepN,firstHalf.thisTrialN,firstHalf.thisN,firstHalf.thisIndex,blocksA.thisRepN,blocksA.thisTrialN,blocksA.thisN,blocksA.thisIndex,secondHalf.thisRepN,secondHalf.thisTrialN,secondHalf.thisN,secondHalf.thisIndex,blocksB.thisRepN,blocksB.thisTrialN,blocksB.thisN,blocksB.thisIndex,mouseClickOnCall.x,mouseClickOnCall.y,mouseClickOnCall.leftButton,mouseClickOnCall.midButton,mouseClickOnCall.rightButton,mouseClickOnCall.time,mouseClickOnCall.clicked_name,mouseClickOnColour.x,mouseClickOnColour.y,mouseClickOnColour.leftButton,mouseClickOnColour.midButton,mouseClickOnColour.rightButton,mouseClickOnColour.time,mouseClickOnColour.clicked_name,mouseClickOnNumber.x,mouseClickOnNumber.y,mouseClickOnNumber.leftButton,mouseClickOnNumber.midButton,mouseClickOnNumber.rightButton,mouseClickOnNumber.time,mouseClickOnNumber.clicked_name,callSignCorrect,colourCorrect,numberCorrect,participant,order,date,expName,psychopyVersion,frameRate,
video/Training/zh_sp01_Ad_We_4_NVocInAudio_NoVideo.avi,vocoded,noVideo,sp01,Ad,We,4,,,,,,,,0,0,0,0,,,,,,,,,,,,,,,,,-0.37453703703703706,0.26666666666666666,1,0,0,6.719423200003803,call1,-0.032407407407407406,-0.2935185185185185,1,0,0,8.210549999959767,colour4,0.4449074074074074,-0.3143518518518518,1,0,0,9.319675500039011,number4,True,True,True,31,1,2019_Nov_18_1457,MA_Theta_Exp,3.0.7,60.02447798682847,
video/Training/zh_sp07_Ad_Ge_3_NVocInAudio_NoVideo.avi,vocoded,noVideo,sp07,Ad,Ge,3,,,,,,,,0,1,1,1,,,,,,,,,,,,,,,,,-0.44166666666666665,0.35833333333333334,1,0,0,5.024546300061047,call1,0.034722222222222224,0.2851851851851852,1,0,0,6.556361100054346,colour1,0.41574074074074074,-0.12407407407407407,1,0,0,7.640322500024922,number3,True,True,True,31,1,2019_Nov_18_1457,MA_Theta_Exp,3.0.7,60.02447798682847,
video/Training/zh_sp01_Dr_Ro_3_NVocInAudio_GlobalThetaInVideo.avi,vocoded,plusVideo,sp01,Dr,Ro,3,,,,,,,,0,2,2,2,,,,,,,,,,,,,,,,,-0.35694444444444445,0.08935185185185185,1,0,0,5.909443599986844,call2,0.03611111111111111,-0.06898148148148148,1,0,0,6.795029600034468,colour3,0.4393518518518518,-0.09722222222222222,1,0,0,7.761961300042458,number3,True,True,True,31,1,2019_Nov_18_1457,MA_Theta_Exp,3.0.7,60.02447798682847,
video/Training/zh_sp07_Dr_Gr_4_NVocInAudio_GlobalThetaInVideo.avi,vocoded,plusVideo,sp07,Dr,Gr,4,,,,,,,,0,3,3,3,,,,,,,,,,,,,,,,,-0.43333333333333335,0.1050925925925926,1,0,0,4.954126000055112,call2,-0.014351851851851852,0.09907407407407408,1,0,0,5.932214800035581,colour2,0.412962962962963,-0.32175925925925924,1,0,0,6.981889699934982,number4,True,True,True,31,1,2019_Nov_18_1457,MA_Theta_Exp,3.0.7,60.02447798682847,
video/Training/zh_sp01_Ti_Gr_2_NoThetaInAudio_NoVideo.avi,noTheta,noVideo,sp01,Ti,Gr,2,,,,,,,,0,4,4,4,,,,,,,,,,,,,,,,,0.00787037037037037,0.1300925925925926,1,0,0,6.255719600012526,,,,,,,,,,,,,,,,NO_ANSW,NO_ANSW,NO_ANSW,31,1,2019_Nov_18_1457,MA_Theta_Exp,3.0.7,60.02447798682847,
video/Training/zh_sp07_Ti_Ro_1_NoThetaInAudio_NoVideo.avi,noTheta,noVideo,sp07,Ti,Ro,1,,,,,,,,0,5,5,5,,,,,,,,,,,,,,,,,-0.3675925925925926,0.10972222222222222,1,0,0,6.897363300085999,call2,-0.0375,0.10740740740740741,1,0,0,8.108794200001284,colour2,0.40185185185185185,-0.060648148148148145,1,0,0,8.91867819998879,number3,False,False,False,31,1,2019_Nov_18_1457,MA_Theta_Exp,3.0.7,60.02447798682847,
video/Training/zh_sp01_Un_Ge_1_NoThetaInAudio_GlobalThetaInVideo.avi,noTheta,plusVideo,sp01,Un,Ge,1,,,,,,,,0,6,6,6,,,,,,,,,,,,,,,,,-0.4513888888888889,0.32175925925925924,1,0,0,6.129319600062445,call1,0.004629629629629629,0.2962962962962963,1,0,0,7.0707387999864295,colour1,0.3925925925925926,0.3296296296296296,1,0,0,7.924763299990445,number1,False,True,True,31,1,2019_Nov_18_1457,MA_Theta_Exp,3.0.7,60.02447798682847,
video/Training/zh_sp07_Un_We_2_NoThetaInAudio_GlobalThetaInVideo.avi,noTheta,plusVideo,sp07,Un,We,2,,,,,,,,0,7,7,7,,,,,,,,,,,,,,,,,-0.3768518518518518,0.30185185185185187,1,0,0,5.293653100030497,call1,-0.007407407407407408,-0.27361111111111114,1,0,0,6.272534899995662,colour4,0.4703703703703704,0.10740740740740741,1,0,0,7.32291540002916,number2,False,True,True,31,1,2019_Nov_18_1457,MA_Theta_Exp,3.0.7,60.02447798682847,
video/Training/zh_sp01_Ad_Ge_1_GlobalTheta_NoVideo.avi,globalTheta,noVideo,sp01,Ad,Ge,1,,,,,,,,0,8,8,8,,,,,,,,,,,,,,,,,-0.3888888888888889,0.3060185185185185,1,0,0,5.55857700004708,call1,0.026851851851851852,0.37407407407407406,1,0,0,6.653657300048508,colour1,0.42592592592592593,0.33564814814814814,1,0,0,7.509647300001234,number1,True,True,True,31,1,2019_Nov_18_1457,MA_Theta_Exp,3.0.7,60.02447798682847,
video/Training/zh_sp07_Ad_Ro_3_GlobalTheta_NoVideo.avi,globalTheta,noVideo,sp07,Ad,Ro,3,,,,,,,,0,9,9,9,,,,,,,,,,,,,,,,,-0.36157407407407405,0.3296296296296296,1,0,0,4.612041900050826,call1,-0.0060185185185185185,0.028703703703703703,1,0,0,6.8278047000057995,colour2,0.3365740740740741,-0.04490740740740741,1,0,0,7.895419799955562,number3,True,False,True,31,1,2019_Nov_18_1457,MA_Theta_Exp,3.0.7,60.02447798682847,
video/Experiment/zh_sp07_Ti_Ge_4_NVocInAudio_NoVideo.avi,vocoded,noVideo,sp07,Ti,Ge,4,0,2,flow/blocks/NVocInAudio_NoVideo_A.csv,,,,,,,,,0,0,0,0,0,0,0,3,,,,,,,,,-0.42314814814814816,-0.16111111111111112,1,0,0,4.993512799963355,call3,0.06481481481481481,0.3287037037037037,1,0,0,5.985387000022456,colour1,0.41712962962962963,-0.2712962962962963,1,0,0,7.089166899910197,number4,True,True,True,31,1,2019_Nov_18_1457,MA_Theta_Exp,3.0.7,60.02447798682847,
video/Experiment/zh_sp07_Ad_We_3_NVocInAudio_NoVideo.avi,vocoded,noVideo,sp07,Ad,We,3,0,2,flow/blocks/NVocInAudio_NoVideo_A.csv,,,,,,,,,0,0,0,0,0,1,1,30,,,,,,,,,-0.350462962962963,0.30416666666666664,1,0,0,5.810107099940069,call1,0.06898148148148148,-0.2902777777777778,1,0,0,6.80386870005168,colour4,0.41203703703703703,-0.1300925925925926,1,0,0,7.74297000002116,number3,True,True,True,31,1,2019_Nov_18_1457,MA_Theta_Exp,3.0.7,60.02447798682847,
video/Experiment/zh_sp01_Ti_Ge_1_NVocInAudio_NoVideo.avi,vocoded,noVideo,sp01,Ti,Ge,1,0,2,flow/blocks/NVocInAudio_NoVideo_A.csv,,,,,,,,,0,0,0,0,0,2,2,16,,,,,,,,,-0.40555555555555556,-0.07314814814814814,1,0,0,5.610670999973081,call3,0.043055555555555555,0.30925925925925923,1,0,0,7.010921499924734,colour1,0.41203703703703703,0.3189814814814815,1,0,0,7.864853499922901,number1,True,True,True,31,1,2019_Nov_18_1457,MA_Theta_Exp,3.0.7,60.02447798682847,
video/Experiment/zh_sp01_Dr_Ro_2_NVocInAudio_NoVideo.avi,vocoded,noVideo,sp01,Dr,Ro,2,0,2,flow/blocks/NVocInAudio_NoVideo_A.csv,,,,,,,,,0,0,0,0,0,3,3,9,,,,,,,,,-0.3587962962962963,0.13194444444444445,1,0,0,5.480592599953525,call2,0.023148148148148147,0.31157407407407406,1,0,0,6.856214400031604,colour1,0.38981481481481484,0.11527777777777778,1,0,0,7.8580880999797955,number2,True,False,True,31,1,2019_Nov_18_1457,MA_Theta_Exp,3.0.7,60.02447798682847,
video/Experiment/zh_sp01_Ad_Gr_1_NVocInAudio_NoVideo.avi,vocoded,noVideo,sp01,Ad,Gr,1,0,2,flow/blocks/NVocInAudio_NoVideo_A.csv,,,,,,,,,0,0,0,0,0,4,4,4,,,,,,,,,-0.3435185185185185,0.34444444444444444,1,0,0,5.844672400038689,call1,-0.013425925925925926,0.13564814814814816,1,0,0,6.726242000004277,colour2,0.3972222222222222,0.3384259259259259,1,0,0,7.578934699995443,number1,True,True,True,31,1,2019_Nov_18_1457,MA_Theta_Exp,3.0.7,60.02447798682847,
video/Experiment/zh_sp01_Dr_Ge_1_NVocInAudio_NoVideo.avi,vocoded,noVideo,sp01,Dr,Ge,1,0,2,flow/blocks/NVocInAudio_NoVideo_A.csv,,,,,,,,,0,0,0,0,0,5,5,0,,,,,,,,,-0.3888888888888889,0.10462962962962963,1,0,0,5.135302499984391,call2,0.023148148148148147,0.2810185185185185,1,0,0,5.963667599949986,colour1,0.40370370370370373,0.3296296296296296,1,0,0,6.79342669993639,number1,True,True,True,31,1,2019_Nov_18_1457,MA_Theta_Exp,3.0.7,60.02447798682847,
video/Experiment/zh_sp07_Dr_Ro_4_NVocInAudio_NoVideo.avi,vocoded,noVideo,sp07,Dr,Ro,4,0,2,flow/blocks/NVocInAudio_NoVideo_A.csv,,,,,,,,,0,0,0,0,0,6,6,27,,,,,,,,,-0.3347222222222222,0.09398148148148149,1,0,0,6.099319300032221,call2,-0.027777777777777776,-0.08148148148148149,1,0,0,7.089348900015466,colour3,0.337037037037037,-0.24953703703703703,1,0,0,7.922615400049835,number4,True,True,True,31,1,2019_Nov_18_1457,MA_Theta_Exp,3.0.7,60.02447798682847,
video/Experiment/zh_sp07_Un_Ro_1_NVocInAudio_NoVideo.avi,vocoded,noVideo,sp07,Un,Ro,1,0,2,flow/blocks/NVocInAudio_NoVideo_A.csv,,,,,,,,,0,0,0,0,0,7,7,24,,,,,,,,,-0.3902777777777778,0.11712962962962963,1,0,0,4.989233599975705,call2,-0.008333333333333333,-0.11435185185185186,1,0,0,5.917123300023377,colour3,0.3787037037037037,0.25972222222222224,1,0,0,6.864338300074451,number1,False,True,True,31,1,2019_Nov_18_1457,MA_Theta_Exp,3.0.7,60.02447798682847,
video/Experiment/zh_sp07_Ad_Ro_1_NVocInAudio_NoVideo.avi,vocoded,noVideo,sp07,Ad,Ro,1,0,2,flow/blocks/NVocInAudio_NoVideo_A.csv,,,,,,,,,0,0,0,0,0,8,8,8,,,,,,,,,-0.3990740740740741,0.3337962962962963,1,0,0,5.056914099957794,call1,0.0,-0.09907407407407408,1,0,0,5.891046799952164,colour3,0.40925925925925927,0.2657407407407407,1,0,0,6.817214000038803,number1,True,True,True,31,1,2019_Nov_18_1457,MA_Theta_Exp,3.0.7,60.02447798682847,
video/Experiment/zh_sp01_Dr_Ge_4_NVocInAudio_NoVideo.avi,vocoded,noVideo,sp01,Dr,Ge,4,0,2,flow/blocks/NVocInAudio_NoVideo_A.csv,,,,,,,,,0,0,0,0,0,9,9,19,,,,,,,,,-0.3726851851851852,0.11527777777777778,1,0,0,5.375417300034314,call2,-0.006944444444444444,0.2898148148148148,1,0,0,6.230048400000669,colour1,0.34629629629629627,-0.2898148148148148,1,0,0,7.30355640000198,number4,True,True,True,31,1,2019_Nov_18_1457,MA_Theta_Exp,3.0.7,60.02447798682847,
video/Experiment/zh_sp01_Ad_Gr_2_NVocInAudio_NoVideo.avi,vocoded,noVideo,sp01,Ad,Gr,2,0,2,flow/blocks/NVocInAudio_NoVideo_A.csv,,,,,,,,,0,0,0,0,0,10,10,21,,,,,,,,,-0.37916666666666665,0.34675925925925927,1,0,0,5.4067874000174925,call1,0.02361111111111111,0.0787037037037037,1,0,0,6.333945499965921,colour2,0.38287037037037036,0.09490740740740741,1,0,0,7.155859899939969,number2,True,True,True,31,1,2019_Nov_18_1457,MA_Theta_Exp,3.0.7,60.02447798682847,
video/Experiment/zh_sp01_Ad_Ro_4_NVocInAudio_NoVideo.avi,vocoded,noVideo,sp01,Ad,Ro,4,0,2,flow/blocks/NVocInAudio_NoVideo_A.csv,,,,,,,,,0,0,0,0,0,11,11,11,,,,,,,,,-0.3314814814814815,0.3226851851851852,1,0,0,5.257317100069486,call1,0.02361111111111111,-0.1310185185185185,1,0,0,6.237444299971685,colour3,0.43287037037037035,-0.3162037037037037,1,0,0,7.1420384999364614,number4,True,True,True,31,1,2019_Nov_18_1457,MA_Theta_Exp,3.0.7,60.02447798682847,
video/Experiment/zh_sp07_Ad_Gr_3_NVocInAudio_NoVideo.avi,vocoded,noVideo,sp07,Ad,Gr,3,0,2,flow/blocks/NVocInAudio_NoVideo_A.csv,,,,,,,,,0,0,0,0,0,12,12,22,,,,,,,,,-0.4134259259259259,0.2675925925925926,1,0,0,5.49398090003524,call1,0.012962962962962963,0.1375,1,0,0,6.31795559998136,colour2,0.4212962962962963,-0.13055555555555556,1,0,0,7.197443200042471,number3,True,True,True,31,1,2019_Nov_18_1457,MA_Theta_Exp,3.0.7,60.02447798682847,
video/Experiment/zh_sp01_Un_Ro_3_NVocInAudio_NoVideo.avi,vocoded,noVideo,sp01,Un,Ro,3,0,2,flow/blocks/NVocInAudio_NoVideo_A.csv,,,,,,,,,0,0,0,0,0,13,13,26,,,,,,,,,-0.38564814814814813,-0.29953703703703705,1,0,0,5.227375000016764,call4,0.009259259259259259,-0.12037037037037036,1,0,0,6.253724399954081,colour3,0.4287037037037037,-0.07916666666666666,1,0,0,7.422552999923937,number3,True,True,True,31,1,2019_Nov_18_1457,MA_Theta_Exp,3.0.7,60.02447798682847,
video/Experiment/zh_sp01_Ti_Ge_3_NVocInAudio_NoVideo.avi,vocoded,noVideo,sp01,Ti,Ge,3,0,2,flow/blocks/NVocInAudio_NoVideo_A.csv,,,,,,,,,0,0,0,0,0,14,14,18,,,,,,,,,-0.3638888888888889,-0.07361111111111111,1,0,0,5.401166200055741,call3,-0.005555555555555556,0.3453703703703704,1,0,0,6.842825600062497,colour1,0.41435185185185186,-0.11481481481481481,1,0,0,7.88162330002524,number3,True,True,True,31,1,2019_Nov_18_1457,MA_Theta_Exp,3.0.7,60.02447798682847,
video/Experiment/zh_sp07_Ti_Ge_2_NVocInAudio_NoVideo.avi,vocoded,noVideo,sp07,Ti,Ge,2,0,2,flow/blocks/NVocInAudio_NoVideo_A.csv,,,,,,,,,0,0,0,0,0,15,15,1,,,,,,,,,-0.3800925925925926,-0.11898148148148148,1,0,0,4.801779599976726,call3,-0.023148148148148147,0.27824074074074073,1,0,0,5.700990099925548,colour1,0.4097222222222222,0.1050925925925926,1,0,0,6.682827099924907,number2,True,True,True,31,1,2019_Nov_18_1457,MA_Theta_Exp,3.0.7,60.02447798682847,
video/Experiment/zh_sp07_Dr_We_2_NVocInAudio_NoVideo.avi,vocoded,noVideo,sp07,Dr,We,2,0,2,flow/blocks/NVocInAudio_NoVideo_A.csv,,,,,,,,,0,0,0,0,0,16,16,13,,,,,,,,,-0.387037037037037,0.07731481481481481,1,0,0,4.829779700026847,call2,0.014814814814814815,-0.26851851851851855,1,0,0,5.928572200005874,colour4,0.4111111111111111,0.06388888888888888,1,0,0,6.8312192999292165,number2,True,True,True,31,1,2019_Nov_18_1457,MA_Theta_Exp,3.0.7,60.02447798682847,
video/Experiment/zh_sp07_Dr_Gr_4_NVocInAudio_NoVideo.avi,vocoded,noVideo,sp07,Dr,Gr,4,0,2,flow/blocks/NVocInAudio_NoVideo_A.csv,,,,,,,,,0,0,0,0,0,17,17,23,,,,,,,,,-0.4199074074074074,0.09027777777777778,1,0,0,4.611675700056367,call2,0.03935185185185185,0.07175925925925926,1,0,0,5.5549306999892,colour2,0.3925925925925926,-0.30925925925925923,1,0,0,6.462038800003938,number4,True,True,True,31,1,2019_Nov_18_1457,MA_Theta_Exp,3.0.7,60.02447798682847,
video/Experiment/zh_sp01_Dr_Gr_3_NVocInAudio_NoVideo.avi,vocoded,noVideo,sp01,Dr,Gr,3,0,2,flow/blocks/NVocInAudio_NoVideo_A.csv,,,,,,,,,0,0,0,0,0,18,18,6,,,,,,,,,-0.37962962962962965,0.12175925925925926,1,0,0,5.631149300024845,call2,-0.05555555555555555,0.08425925925925926,1,0,0,6.467300800024532,colour2,0.3875,-0.09675925925925925,1,0,0,7.3187883999198675,number3,True,True,True,31,1,2019_Nov_18_1457,MA_Theta_Exp,3.0.7,60.02447798682847,
video/Experiment/zh_sp07_Un_We_1_NVocInAudio_NoVideo.avi,vocoded,noVideo,sp07,Un,We,1,0,2,flow/blocks/NVocInAudio_NoVideo_A.csv,,,,,,,,,0,0,0,0,0,19,19,28,,,,,,,,,-0.3574074074074074,-0.29907407407407405,1,0,0,4.521646499983035,call4,0.0023148148148148147,-0.2851851851851852,1,0,0,5.244257700047456,colour4,0.37962962962962965,0.2722222222222222,1,0,0,6.0872083000140265,number1,True,True,True,31,1,2019_Nov_18_1457,MA_Theta_Exp,3.0.7,60.02447798682847,
video/Experiment/zh_sp07_Un_We_3_NVocInAudio_NoVideo.avi,vocoded,noVideo,sp07,Un,We,3,0,2,flow/blocks/NVocInAudio_NoVideo_A.csv,,,,,,,,,0,0,0,0,0,20,20,14,,,,,,,,,-0.41574074074074074,-0.34629629629629627,1,0,0,4.435989600024186,call4,0.024537037037037038,-0.3,1,0,0,5.345568599994294,colour4,0.37546296296296294,-0.1337962962962963,1,0,0,6.223072599968873,number3,True,True,True,31,1,2019_Nov_18_1457,MA_Theta_Exp,3.0.7,60.02447798682847,
video/Experiment/zh_sp07_Un_Ge_3_NVocInAudio_NoVideo.avi,vocoded,noVideo,sp07,Un,Ge,3,0,2,flow/blocks/NVocInAudio_NoVideo_A.csv,,,,,,,,,0,0,0,0,0,21,21,2,,,,,,,,,-0.4023148148148148,-0.34305555555555556,1,0,0,4.691562199965119,call4,0.001388888888888889,0.3148148148148148,1,0,0,5.535721399937756,colour1,0.3541666666666667,-0.05416666666666667,1,0,0,6.459849899983965,number3,True,True,True,31,1,2019_Nov_18_1457,MA_Theta_Exp,3.0.7,60.02447798682847,
video/Experiment/zh_sp01_Ti_Ro_3_NVocInAudio_NoVideo.avi,vocoded,noVideo,sp01,Ti,Ro,3,0,2,flow/blocks/NVocInAudio_NoVideo_A.csv,,,,,,,,,0,0,0,0,0,22,22,10,,,,,,,,,-0.449537037037037,-0.14953703703703702,1,0,0,4.923118500038981,call3,0.012037037037037037,-0.10324074074074074,1,0,0,5.816078100004233,colour3,0.37453703703703706,-0.0587962962962963,1,0,0,6.615904199890792,number3,True,True,True,31,1,2019_Nov_18_1457,MA_Theta_Exp,3.0.7,60.02447798682847,
video/Experiment/zh_sp07_Un_We_4_NVocInAudio_NoVideo.avi,vocoded,noVideo,sp07,Un,We,4,0,2,flow/blocks/NVocInAudio_NoVideo_A.csv,,,,,,,,,0,0,0,0,0,23,23,15,,,,,,,,,-0.36527777777777776,-0.3263888888888889,1,0,0,4.892623699968681,call4,-0.07546296296296297,-0.2898148148148148,1,0,0,5.633580399909988,colour4,0.3888888888888889,-0.31666666666666665,1,0,0,6.511920099961571,number4,True,True,True,31,1,2019_Nov_18_1457,MA_Theta_Exp,3.0.7,60.02447798682847,
video/Experiment/zh_sp07_Ti_Ro_2_NVocInAudio_NoVideo.avi,vocoded,noVideo,sp07,Ti,Ro,2,0,2,flow/blocks/NVocInAudio_NoVideo_A.csv,,,,,,,,,0,0,0,0,0,24,24,25,,,,,,,,,-0.4,-0.08009259259259259,1,0,0,4.6801672000437975,call3,-0.007407407407407408,-0.13657407407407407,1,0,0,5.714909799979068,colour3,0.4013888888888889,0.09861111111111111,1,0,0,6.54846910003107,number2,True,True,True,31,1,2019_Nov_18_1457,MA_Theta_Exp,3.0.7,60.02447798682847,
video/Experiment/zh_sp07_Un_Gr_1_NVocInAudio_NoVideo.avi,vocoded,noVideo,sp07,Un,Gr,1,0,2,flow/blocks/NVocInAudio_NoVideo_A.csv,,,,,,,,,0,0,0,0,0,25,25,20,,,,,,,,,-0.37962962962962965,-0.30185185185185187,1,0,0,4.7318466999568045,call4,-0.012962962962962963,0.09537037037037037,1,0,0,5.5886831999523565,colour2,0.40370370370370373,0.2972222222222222,1,0,0,6.385992700001225,number1,True,True,True,31,1,2019_Nov_18_1457,MA_Theta_Exp,3.0.7,60.02447798682847,
video/Experiment/zh_sp01_Ti_We_4_NVocInAudio_NoVideo.avi,vocoded,noVideo,sp01,Ti,We,4,0,2,flow/blocks/NVocInAudio_NoVideo_A.csv,,,,,,,,,0,0,0,0,0,26,26,31,,,,,,,,,-0.39305555555555555,-0.06898148148148148,1,0,0,5.23350400000345,call3,-0.009722222222222222,-0.24444444444444444,1,0,0,6.098429400008172,colour4,0.40185185185185185,-0.32314814814814813,1,0,0,6.898557199980132,number4,True,True,True,31,1,2019_Nov_18_1457,MA_Theta_Exp,3.0.7,60.02447798682847,
video/Experiment/zh_sp01_Un_Ge_2_NVocInAudio_NoVideo.avi,vocoded,noVideo,sp01,Un,Ge,2,0,2,flow/blocks/NVocInAudio_NoVideo_A.csv,,,,,,,,,0,0,0,0,0,27,27,17,,,,,,,,,-0.43148148148148147,-0.3763888888888889,1,0,0,5.367628899984993,call4,0.07685185185185185,0.35648148148148145,1,0,0,6.295454899896868,colour1,0.37175925925925923,0.12962962962962962,1,0,0,7.0818370000924915,number2,True,True,True,31,1,2019_Nov_18_1457,MA_Theta_Exp,3.0.7,60.02447798682847,
video/Experiment/zh_sp01_Ad_We_1_NVocInAudio_NoVideo.avi,vocoded,noVideo,sp01,Ad,We,1,0,2,flow/blocks/NVocInAudio_NoVideo_A.csv,,,,,,,,,0,0,0,0,0,28,28,12,,,,,,,,,-0.36527777777777776,0.37546296296296294,1,0,0,5.912277800031006,call1,-0.02824074074074074,-0.23703703703703705,1,0,0,7.624451900017448,colour4,0.4203703703703704,0.3111111111111111,1,0,0,8.562893099966459,number1,True,True,True,31,1,2019_Nov_18_1457,MA_Theta_Exp,3.0.7,60.02447798682847,
video/Experiment/zh_sp07_Ad_We_2_NVocInAudio_NoVideo.avi,vocoded,noVideo,sp07,Ad,We,2,0,2,flow/blocks/NVocInAudio_NoVideo_A.csv,,,,,,,,,0,0,0,0,0,29,29,29,,,,,,,,,-0.4398148148148148,0.3175925925925926,1,0,0,4.860667899949476,call1,0.004629629629629629,-0.29583333333333334,1,0,0,5.72460840002168,colour4,0.4101851851851852,0.09722222222222222,1,0,0,6.582237800001167,number2,True,True,True,31,1,2019_Nov_18_1457,MA_Theta_Exp,3.0.7,60.02447798682847,
video/Experiment/zh_sp01_Dr_Gr_2_NVocInAudio_NoVideo.avi,vocoded,noVideo,sp01,Dr,Gr,2,0,2,flow/blocks/NVocInAudio_NoVideo_A.csv,,,,,,,,,0,0,0,0,0,30,30,5,,,,,,,,,-0.36944444444444446,0.08148148148148149,1,0,0,5.600901999976486,call2,0.016666666666666666,0.05694444444444444,1,0,0,6.360923600033857,colour2,0.36435185185185187,0.0912037037037037,1,0,0,7.2143506000284106,number2,True,True,True,31,1,2019_Nov_18_1457,MA_Theta_Exp,3.0.7,60.02447798682847,
video/Experiment/zh_sp01_Ti_Gr_4_NVocInAudio_NoVideo.avi,vocoded,noVideo,sp01,Ti,Gr,4,0,2,flow/blocks/NVocInAudio_NoVideo_A.csv,,,,,,,,,0,0,0,0,0,31,31,7,,,,,,,,,-0.3814814814814815,-0.1388888888888889,1,0,0,5.482346800039522,call3,-0.022685185185185187,0.05462962962962963,1,0,0,6.344438500003889,colour2,0.41712962962962963,-0.26064814814814813,1,0,0,7.29182500008028,number4,True,True,True,31,1,2019_Nov_18_1457,MA_Theta_Exp,3.0.7,60.02447798682847,
video/Experiment/zh_sp01_Ad_Ge_4_NoThetaInAudio_GlobalThetaInVideo.avi,noTheta,plusVideo,sp01,Ad,Ge,4,1,3,flow/blocks/NoThetaInAudio_GlobalThetaInVideo_B.csv,,,,,,,,,0,1,1,1,0,0,0,3,,,,,,,,,-0.33055555555555555,0.25972222222222224,1,0,0,6.401108300080523,call1,0.027777777777777776,0.28935185185185186,1,0,0,7.046568099991418,colour1,0.38657407407407407,-0.3138888888888889,1,0,0,8.015867099980824,number4,True,True,True,31,1,2019_Nov_18_1457,MA_Theta_Exp,3.0.7,60.02447798682847,
video/Experiment/zh_sp01_Dr_Ro_3_NoThetaInAudio_GlobalThetaInVideo.avi,noTheta,plusVideo,sp01,Dr,Ro,3,1,3,flow/blocks/NoThetaInAudio_GlobalThetaInVideo_B.csv,,,,,,,,,0,1,1,1,0,1,1,26,,,,,,,,,-0.3597222222222222,0.037037037037037035,1,0,0,5.354826100054197,call2,0.028703703703703703,-0.11018518518518519,1,0,0,6.084472500020638,colour3,0.3851851851851852,-0.0875,1,0,0,6.879906799993478,number3,True,True,True,31,1,2019_Nov_18_1457,MA_Theta_Exp,3.0.7,60.02447798682847,
video/Experiment/zh_sp01_Ad_Ge_2_NoThetaInAudio_GlobalThetaInVideo.avi,noTheta,plusVideo,sp01,Ad,Ge,2,1,3,flow/blocks/NoThetaInAudio_GlobalThetaInVideo_B.csv,,,,,,,,,0,1,1,1,0,2,2,1,,,,,,,,,-0.32685185185185184,0.2796296296296296,1,0,0,5.364777099923231,call1,0.08842592592592592,0.29212962962962963,1,0,0,6.113934500026517,colour1,0.4273148148148148,0.11342592592592593,1,0,0,7.067360399989411,number2,True,True,True,31,1,2019_Nov_18_1457,MA_Theta_Exp,3.0.7,60.02447798682847,
video/Experiment/zh_sp01_Un_We_2_NoThetaInAudio_GlobalThetaInVideo.avi,noTheta,plusVideo,sp01,Un,We,2,1,3,flow/blocks/NoThetaInAudio_GlobalThetaInVideo_B.csv,,,,,,,,,0,1,1,1,0,3,3,13,,,,,,,,,-0.46111111111111114,-0.30277777777777776,1,0,0,5.264118400053121,call4,0.03611111111111111,-0.2740740740740741,1,0,0,6.0875239999732,colour4,0.4199074074074074,0.08425925925925926,1,0,0,7.030033099930733,number2,True,True,True,31,1,2019_Nov_18_1457,MA_Theta_Exp,3.0.7,60.02447798682847,
video/Experiment/zh_sp07_Ad_Ro_2_NoThetaInAudio_GlobalThetaInVideo.avi,noTheta,plusVideo,sp07,Ad,Ro,2,1,3,flow/blocks/NoThetaInAudio_GlobalThetaInVideo_B.csv,,,,,,,,,0,1,1,1,0,4,4,25,,,,,,,,,-0.3972222222222222,0.31666666666666665,1,0,0,4.785181499901228,call1,-0.044444444444444446,-0.047685185185185185,1,0,0,5.675466499989852,colour3,0.3819444444444444,0.059722222222222225,1,0,0,6.492875700001605,number2,True,True,True,31,1,2019_Nov_18_1457,MA_Theta_Exp,3.0.7,60.02447798682847,
video/Experiment/zh_sp01_Un_Gr_4_NoThetaInAudio_GlobalThetaInVideo.avi,noTheta,plusVideo,sp01,Un,Gr,4,1,3,flow/blocks/NoThetaInAudio_GlobalThetaInVideo_B.csv,,,,,,,,,0,1,1,1,0,5,5,23,,,,,,,,,-0.39444444444444443,-0.2986111111111111,1,0,0,5.173309599980712,call4,0.0060185185185185185,0.10833333333333334,1,0,0,6.070969599997625,colour2,0.4212962962962963,-0.26805555555555555,1,0,0,7.872801499906927,number4,True,True,True,31,1,2019_Nov_18_1457,MA_Theta_Exp,3.0.7,60.02447798682847,
video/Experiment/zh_sp01_Ti_Ro_4_NoThetaInAudio_GlobalThetaInVideo.avi,noTheta,plusVideo,sp01,Ti,Ro,4,1,3,flow/blocks/NoThetaInAudio_GlobalThetaInVideo_B.csv,,,,,,,,,0,1,1,1,0,6,6,11,,,,,,,,,-0.3416666666666667,-0.09814814814814815,1,0,0,6.238595400005579,call3,-0.037037037037037035,-0.11296296296296296,1,0,0,7.086750299902633,colour3,0.40694444444444444,-0.287962962962963,1,0,0,7.864877999993041,number4,True,True,True,31,1,2019_Nov_18_1457,MA_Theta_Exp,3.0.7,60.02447798682847,
video/Experiment/zh_sp01_Ti_We_1_NoThetaInAudio_GlobalThetaInVideo.avi,noTheta,plusVideo,sp01,Ti,We,1,1,3,flow/blocks/NoThetaInAudio_GlobalThetaInVideo_B.csv,,,,,,,,,0,1,1,1,0,7,7,12,,,,,,,,,-0.40694444444444444,-0.11944444444444445,1,0,0,5.833346199942753,call3,0.0032407407407407406,-0.3023148148148148,1,0,0,6.669019600027241,colour4,0.4564814814814815,0.31712962962962965,1,0,0,7.58219760004431,number1,True,True,True,31,1,2019_Nov_18_1457,MA_Theta_Exp,3.0.7,60.02447798682847,
video/Experiment/zh_sp07_Ad_Gr_4_NoThetaInAudio_GlobalThetaInVideo.avi,noTheta,plusVideo,sp07,Ad,Gr,4,1,3,flow/blocks/NoThetaInAudio_GlobalThetaInVideo_B.csv,,,,,,,,,0,1,1,1,0,8,8,7,,,,,,,,,-0.37916666666666665,0.2791666666666667,1,0,0,5.432978400029242,call1,0.024537037037037038,0.12638888888888888,1,0,0,6.380771899945103,colour2,0.37222222222222223,-0.287962962962963,1,0,0,7.264560300041921,number4,True,True,True,31,1,2019_Nov_18_1457,MA_Theta_Exp,3.0.7,60.02447798682847,
video/Experiment/zh_sp01_Dr_Ge_2_NoThetaInAudio_GlobalThetaInVideo.avi,noTheta,plusVideo,sp01,Dr,Ge,2,1,3,flow/blocks/NoThetaInAudio_GlobalThetaInVideo_B.csv,,,,,,,,,0,1,1,1,0,9,9,17,,,,,,,,,-0.35648148148148145,0.0837962962962963,1,0,0,5.9784779999172315,call2,0.02361111111111111,0.2916666666666667,1,0,0,6.797607999993488,colour1,0.38564814814814813,0.1425925925925926,1,0,0,7.550180900027044,number2,True,True,True,31,1,2019_Nov_18_1457,MA_Theta_Exp,3.0.7,60.02447798682847,
video/Experiment/zh_sp01_Dr_We_1_NoThetaInAudio_GlobalThetaInVideo.avi,noTheta,plusVideo,sp01,Dr,We,1,1,3,flow/blocks/NoThetaInAudio_GlobalThetaInVideo_B.csv,,,,,,,,,0,1,1,1,0,10,10,28,,,,,,,,,-0.3712962962962963,0.12824074074074074,1,0,0,5.305558199994266,call2,0.05324074074074074,-0.2800925925925926,1,0,0,6.158127799979411,colour4,0.42824074074074076,0.35324074074074074,1,0,0,7.007407899945974,number1,True,True,True,31,1,2019_Nov_18_1457,MA_Theta_Exp,3.0.7,60.02447798682847,
video/Experiment/zh_sp07_Ad_We_4_NoThetaInAudio_GlobalThetaInVideo.avi,noTheta,plusVideo,sp07,Ad,We,4,1,3,flow/blocks/NoThetaInAudio_GlobalThetaInVideo_B.csv,,,,,,,,,0,1,1,1,0,11,11,31,,,,,,,,,-0.39490740740740743,0.10648148148148148,1,0,0,5.152552400017157,call2,-0.04537037037037037,-0.2611111111111111,1,0,0,5.969506300054491,colour4,0.37175925925925923,-0.3194444444444444,1,0,0,7.25532880006358,number4,False,True,True,31,1,2019_Nov_18_1457,MA_Theta_Exp,3.0.7,60.02447798682847,
video/Experiment/zh_sp01_Ti_We_3_NoThetaInAudio_GlobalThetaInVideo.avi,noTheta,plusVideo,sp01,Ti,We,3,1,3,flow/blocks/NoThetaInAudio_GlobalThetaInVideo_B.csv,,,,,,,,,0,1,1,1,0,12,12,30,,,,,,,,,-0.3675925925925926,-0.1439814814814815,1,0,0,5.4071606999496,call3,-0.012962962962962963,-0.31296296296296294,1,0,0,6.267334799980745,colour4,0.4097222222222222,-0.14166666666666666,1,0,0,7.22761379997246,number3,True,True,True,31,1,2019_Nov_18_1457,MA_Theta_Exp,3.0.7,60.02447798682847,
video/Experiment/zh_sp01_Dr_Ge_3_NoThetaInAudio_GlobalThetaInVideo.avi,noTheta,plusVideo,sp01,Dr,Ge,3,1,3,flow/blocks/NoThetaInAudio_GlobalThetaInVideo_B.csv,,,,,,,,,0,1,1,1,0,13,13,2,,,,,,,,,-0.38842592592592595,0.06620370370370371,1,0,0,5.515039799967781,call2,0.004629629629629629,0.275,1,0,0,6.3929089000448585,colour1,0.37083333333333335,-0.056018518518518516,1,0,0,7.312814499950036,number3,True,True,True,31,1,2019_Nov_18_1457,MA_Theta_Exp,3.0.7,60.02447798682847,
video/Experiment/zh_sp07_Dr_Gr_1_NoThetaInAudio_GlobalThetaInVideo.avi,noTheta,plusVideo,sp07,Dr,Gr,1,1,3,flow/blocks/NoThetaInAudio_GlobalThetaInVideo_B.csv,,,,,,,,,0,1,1,1,0,14,14,20,,,,,,,,,-0.35,0.07314814814814814,1,0,0,4.909174399916083,call2,0.012037037037037037,0.08055555555555556,1,0,0,5.606929399888031,colour2,0.38425925925925924,0.3050925925925926,1,0,0,6.440107100061141,number1,True,True,True,31,1,2019_Nov_18_1457,MA_Theta_Exp,3.0.7,60.02447798682847,
video/Experiment/zh_sp01_Ad_Ge_3_NoThetaInAudio_GlobalThetaInVideo.avi,noTheta,plusVideo,sp01,Ad,Ge,3,1,3,flow/blocks/NoThetaInAudio_GlobalThetaInVideo_B.csv,,,,,,,,,0,1,1,1,0,15,15,18,,,,,,,,,-0.375,0.3263888888888889,1,0,0,5.679612100007944,call1,0.011574074074074073,0.34074074074074073,1,0,0,7.0536995000438765,colour1,0.42824074074074076,-0.16666666666666666,1,0,0,8.140641000005417,number3,True,True,True,31,1,2019_Nov_18_1457,MA_Theta_Exp,3.0.7,60.02447798682847,
video/Experiment/zh_sp07_Ad_Ro_3_NoThetaInAudio_GlobalThetaInVideo.avi,noTheta,plusVideo,sp07,Ad,Ro,3,1,3,flow/blocks/NoThetaInAudio_GlobalThetaInVideo_B.csv,,,,,,,,,0,1,1,1,0,16,16,10,,,,,,,,,-0.375,0.23472222222222222,1,0,0,5.241078999941237,call1,-0.010185185185185186,0.28703703703703703,1,0,0,6.651226899935864,colour1,0.38657407407407407,-0.0712962962962963,1,0,0,7.599612099933438,number3,True,False,True,31,1,2019_Nov_18_1457,MA_Theta_Exp,3.0.7,60.02447798682847,
video/Experiment/zh_sp07_Ad_Ge_1_NoThetaInAudio_GlobalThetaInVideo.avi,noTheta,plusVideo,sp07,Ad,Ge,1,1,3,flow/blocks/NoThetaInAudio_GlobalThetaInVideo_B.csv,,,,,,,,,0,1,1,1,0,17,17,16,,,,,,,,,-0.3958333333333333,0.31296296296296294,1,0,0,4.6330648000584915,call1,0.000925925925925926,0.3050925925925926,1,0,0,6.617654399946332,colour1,0.4046296296296296,0.3143518518518518,1,0,0,7.317351799923927,number1,True,True,True,31,1,2019_Nov_18_1457,MA_Theta_Exp,3.0.7,60.02447798682847,
video/Experiment/zh_sp07_Ti_We_2_NoThetaInAudio_GlobalThetaInVideo.avi,noTheta,plusVideo,sp07,Ti,We,2,1,3,flow/blocks/NoThetaInAudio_GlobalThetaInVideo_B.csv,,,,,,,,,0,1,1,1,0,18,18,29,,,,,,,,,-0.41064814814814815,-0.10601851851851851,1,0,0,4.782122499891557,call3,-0.00787037037037037,0.10277777777777777,1,0,0,5.622467100038193,colour2,0.33287037037037037,0.11851851851851852,1,0,0,6.415476300055161,number2,True,False,True,31,1,2019_Nov_18_1457,MA_Theta_Exp,3.0.7,60.02447798682847,
video/Experiment/zh_sp07_Dr_We_3_NoThetaInAudio_GlobalThetaInVideo.avi,noTheta,plusVideo,sp07,Dr,We,3,1,3,flow/blocks/NoThetaInAudio_GlobalThetaInVideo_B.csv,,,,,,,,,0,1,1,1,0,19,19,14,,,,,,,,,-0.37175925925925923,0.31203703703703706,1,0,0,4.664159799925983,call1,0.059722222222222225,-0.2861111111111111,1,0,0,5.663485800032504,colour4,0.39675925925925926,-0.10416666666666667,1,0,0,6.530282500083558,number3,False,True,True,31,1,2019_Nov_18_1457,MA_Theta_Exp,3.0.7,60.02447798682847,
video/Experiment/zh_sp07_Un_Ge_4_NoThetaInAudio_GlobalThetaInVideo.avi,noTheta,plusVideo,sp07,Un,Ge,4,1,3,flow/blocks/NoThetaInAudio_GlobalThetaInVideo_B.csv,,,,,,,,,0,1,1,1,0,20,20,19,,,,,,,,,-0.4,-0.29444444444444445,1,0,0,4.795825500041246,call4,-0.014351851851851852,0.24027777777777778,1,0,0,5.773107899934985,colour1,0.3699074074074074,-0.07314814814814814,1,0,0,6.721837699995376,number3,True,True,False,31,1,2019_Nov_18_1457,MA_Theta_Exp,3.0.7,60.02447798682847,
video/Experiment/zh_sp07_Ti_Gr_1_NoThetaInAudio_GlobalThetaInVideo.avi,noTheta,plusVideo,sp07,Ti,Gr,1,1,3,flow/blocks/NoThetaInAudio_GlobalThetaInVideo_B.csv,,,,,,,,,0,1,1,1,0,21,21,4,,,,,,,,,-0.42685185185185187,-0.12824074074074074,1,0,0,4.879731300054118,call3,-0.03657407407407407,0.08842592592592592,1,0,0,5.825564400060102,colour2,0.38425925925925924,0.2916666666666667,1,0,0,6.714774199994281,number1,True,True,True,31,1,2019_Nov_18_1457,MA_Theta_Exp,3.0.7,60.02447798682847,
video/Experiment/zh_sp01_Un_Ge_1_NoThetaInAudio_GlobalThetaInVideo.avi,noTheta,plusVideo,sp01,Un,Ge,1,1,3,flow/blocks/NoThetaInAudio_GlobalThetaInVideo_B.csv,,,,,,,,,0,1,1,1,0,22,22,0,,,,,,,,,-0.33055555555555555,-0.2523148148148148,1,0,0,5.729602699982934,call4,0.05324074074074074,0.32037037037037036,1,0,0,6.782191600068472,colour1,0.3685185185185185,0.3037037037037037,1,0,0,7.6959773999406025,number1,True,True,True,31,1,2019_Nov_18_1457,MA_Theta_Exp,3.0.7,60.02447798682847,
video/Experiment/zh_sp01_Ti_Ro_1_NoThetaInAudio_GlobalThetaInVideo.avi,noTheta,plusVideo,sp01,Ti,Ro,1,1,3,flow/blocks/NoThetaInAudio_GlobalThetaInVideo_B.csv,,,,,,,,,0,1,1,1,0,23,23,8,,,,,,,,,-0.36666666666666664,-0.10046296296296296,1,0,0,5.408499100012705,call3,-0.021296296296296296,-0.062037037037037036,1,0,0,6.1590593999717385,colour3,0.40324074074074073,0.30833333333333335,1,0,0,7.095350899966434,number1,True,True,True,31,1,2019_Nov_18_1457,MA_Theta_Exp,3.0.7,60.02447798682847,
video/Experiment/zh_sp07_Ti_Gr_3_NoThetaInAudio_GlobalThetaInVideo.avi,noTheta,plusVideo,sp07,Ti,Gr,3,1,3,flow/blocks/NoThetaInAudio_GlobalThetaInVideo_B.csv,,,,,,,,,0,1,1,1,0,24,24,22,,,,,,,,,-0.3662037037037037,-0.09907407407407408,1,0,0,4.82886020001024,call3,0.000462962962962963,0.09212962962962963,1,0,0,5.699192700092681,colour2,0.399537037037037,-0.07731481481481481,1,0,0,6.632953200023621,number3,True,True,True,31,1,2019_Nov_18_1457,MA_Theta_Exp,3.0.7,60.02447798682847,
video/Experiment/zh_sp07_Dr_We_4_NoThetaInAudio_GlobalThetaInVideo.avi,noTheta,plusVideo,sp07,Dr,We,4,1,3,flow/blocks/NoThetaInAudio_GlobalThetaInVideo_B.csv,,,,,,,,,0,1,1,1,0,25,25,15,,,,,,,,,-0.35185185185185186,0.2833333333333333,1,0,0,5.3893137000268325,call1,-0.023148148148148147,-0.30185185185185187,1,0,0,6.320102000026964,colour4,0.3731481481481482,-0.3365740740740741,1,0,0,7.23389029991813,number4,False,True,True,31,1,2019_Nov_18_1457,MA_Theta_Exp,3.0.7,60.02447798682847,
video/Experiment/zh_sp07_Dr_Ro_1_NoThetaInAudio_GlobalThetaInVideo.avi,noTheta,plusVideo,sp07,Dr,Ro,1,1,3,flow/blocks/NoThetaInAudio_GlobalThetaInVideo_B.csv,,,,,,,,,0,1,1,1,0,26,26,24,,,,,,,,,-0.37546296296296294,0.33611111111111114,1,0,0,5.608871400007047,call1,0.01990740740740741,-0.08101851851851852,1,0,0,6.427226400002837,colour3,0.3912037037037037,0.27314814814814814,1,0,0,7.319286999991164,number1,False,True,True,31,1,2019_Nov_18_1457,MA_Theta_Exp,3.0.7,60.02447798682847,
video/Experiment/zh_sp07_Ti_Gr_2_NoThetaInAudio_GlobalThetaInVideo.avi,noTheta,plusVideo,sp07,Ti,Gr,2,1,3,flow/blocks/NoThetaInAudio_GlobalThetaInVideo_B.csv,,,,,,,,,0,1,1,1,0,27,27,21,,,,,,,,,-0.4134259259259259,-0.1412037037037037,1,0,0,5.116944600013085,call3,-0.043055555555555555,0.08935185185185185,1,0,0,6.087563799927011,colour2,0.32731481481481484,0.09953703703703703,1,0,0,6.914084299933165,number2,True,True,True,31,1,2019_Nov_18_1457,MA_Theta_Exp,3.0.7,60.02447798682847,
video/Experiment/zh_sp07_Un_Ro_2_NoThetaInAudio_GlobalThetaInVideo.avi,noTheta,plusVideo,sp07,Un,Ro,2,1,3,flow/blocks/NoThetaInAudio_GlobalThetaInVideo_B.csv,,,,,,,,,0,1,1,1,0,28,28,9,,,,,,,,,-0.41759259259259257,-0.3,1,0,0,4.7998024999396876,call4,-0.024074074074074074,-0.10231481481481482,1,0,0,5.860763599979691,colour3,0.35648148148148145,0.05462962962962963,1,0,0,6.850666800048202,number2,True,True,True,31,1,2019_Nov_18_1457,MA_Theta_Exp,3.0.7,60.02447798682847,
video/Experiment/zh_sp07_Un_Gr_3_NoThetaInAudio_GlobalThetaInVideo.avi,noTheta,plusVideo,sp07,Un,Gr,3,1,3,flow/blocks/NoThetaInAudio_GlobalThetaInVideo_B.csv,,,,,,,,,0,1,1,1,0,29,29,6,,,,,,,,,-0.38472222222222224,-0.3106481481481482,1,0,0,4.953126100008376,call4,0.02824074074074074,0.10648148148148148,1,0,0,5.93543120007962,colour2,0.3976851851851852,-0.1037037037037037,1,0,0,6.918049000087194,number3,True,True,True,31,1,2019_Nov_18_1457,MA_Theta_Exp,3.0.7,60.02447798682847,
video/Experiment/zh_sp01_Un_Ro_4_NoThetaInAudio_GlobalThetaInVideo.avi,noTheta,plusVideo,sp01,Un,Ro,4,1,3,flow/blocks/NoThetaInAudio_GlobalThetaInVideo_B.csv,,,,,,,,,0,1,1,1,0,30,30,27,,,,,,,,,-0.3490740740740741,-0.28425925925925927,1,0,0,5.47696709993761,call4,0.003703703703703704,-0.13055555555555556,1,0,0,6.3267481999937445,colour3,0.4185185185185185,-0.29583333333333334,1,0,0,7.161143900011666,number4,True,True,True,31,1,2019_Nov_18_1457,MA_Theta_Exp,3.0.7,60.02447798682847,
video/Experiment/zh_sp01_Un_Gr_2_NoThetaInAudio_GlobalThetaInVideo.avi,noTheta,plusVideo,sp01,Un,Gr,2,1,3,flow/blocks/NoThetaInAudio_GlobalThetaInVideo_B.csv,,,,,,,,,0,1,1,1,0,31,31,5,,,,,,,,,-0.3560185185185185,-0.3,1,0,0,5.4080239000031725,call4,0.02962962962962963,0.14351851851851852,1,0,0,6.347391000017524,colour2,0.39490740740740743,0.12083333333333333,1,0,0,7.091292299912311,number2,True,True,True,31,1,2019_Nov_18_1457,MA_Theta_Exp,3.0.7,60.02447798682847,
video/Experiment/zh_sp01_Dr_Ro_4_GlobalTheta_NoVideo.avi,globalTheta,noVideo,sp01,Dr,Ro,4,2,5,flow/blocks/GlobalTheta_NoVideo_A.csv,,,,,,,,,0,2,2,2,0,0,0,27,,,,,,,,,-0.3625,-0.2722222222222222,1,0,0,5.408655700040981,call4,-0.0412037037037037,-0.12129629629629629,1,0,0,6.262124500004575,colour3,0.4337962962962963,-0.3148148148148148,1,0,0,7.144465400022455,number4,False,True,True,31,1,2019_Nov_18_1457,MA_Theta_Exp,3.0.7,60.02447798682847,
video/Experiment/zh_sp07_Un_Ge_3_GlobalTheta_NoVideo.avi,globalTheta,noVideo,sp07,Un,Ge,3,2,5,flow/blocks/GlobalTheta_NoVideo_A.csv,,,,,,,,,0,2,2,2,0,1,1,2,,,,,,,,,-0.3814814814814815,-0.12037037037037036,1,0,0,5.183392699924298,call3,0.019444444444444445,-0.09490740740740741,1,0,0,6.195192200015299,colour3,0.3990740740740741,-0.04953703703703704,1,0,0,7.078149700071663,number3,False,False,True,31,1,2019_Nov_18_1457,MA_Theta_Exp,3.0.7,60.02447798682847,
video/Experiment/zh_sp01_Ad_Ro_4_GlobalTheta_NoVideo.avi,globalTheta,noVideo,sp01,Ad,Ro,4,2,5,flow/blocks/GlobalTheta_NoVideo_A.csv,,,,,,,,,0,2,2,2,0,2,2,11,,,,,,,,,-0.3675925925925926,0.28888888888888886,1,0,0,5.754583799978718,call1,0.020833333333333332,-0.044444444444444446,1,0,0,6.628545999992639,colour3,0.35694444444444445,-0.2828703703703704,1,0,0,7.802417500060983,number4,True,True,True,31,1,2019_Nov_18_1457,MA_Theta_Exp,3.0.7,60.02447798682847,
video/Experiment/zh_sp01_Dr_Ge_4_GlobalTheta_NoVideo.avi,globalTheta,noVideo,sp01,Dr,Ge,4,2,5,flow/blocks/GlobalTheta_NoVideo_A.csv,,,,,,,,,0,2,2,2,0,3,3,19,,,,,,,,,-0.36203703703703705,-0.3486111111111111,1,0,0,5.081905899918638,call4,0.000925925925925926,0.26990740740740743,1,0,0,5.961252200067975,colour1,0.44583333333333336,-0.2412037037037037,1,0,0,7.075178400031291,number4,False,True,True,31,1,2019_Nov_18_1457,MA_Theta_Exp,3.0.7,60.02447798682847,
video/Experiment/zh_sp07_Ti_Ro_2_GlobalTheta_NoVideo.avi,globalTheta,noVideo,sp07,Ti,Ro,2,2,5,flow/blocks/GlobalTheta_NoVideo_A.csv,,,,,,,,,0,2,2,2,0,4,4,25,,,,,,,,,-0.38935185185185184,-0.1175925925925926,1,0,0,4.6118601999478415,call3,-0.020370370370370372,0.09675925925925925,1,0,0,5.424668699968606,colour2,0.3875,0.10138888888888889,1,0,0,6.243060500011779,number2,True,False,True,31,1,2019_Nov_18_1457,MA_Theta_Exp,3.0.7,60.02447798682847,
video/Experiment/zh_sp01_Ti_Ge_1_GlobalTheta_NoVideo.avi,globalTheta,noVideo,sp01,Ti,Ge,1,2,5,flow/blocks/GlobalTheta_NoVideo_A.csv,,,,,,,,,0,2,2,2,0,5,5,16,,,,,,,,,-0.4050925925925926,-0.15787037037037038,1,0,0,5.607334999949671,call3,-0.014814814814814815,0.27685185185185185,1,0,0,6.658085300005041,colour1,0.3712962962962963,0.3148148148148148,1,0,0,7.510571800055914,number1,True,True,True,31,1,2019_Nov_18_1457,MA_Theta_Exp,3.0.7,60.02447798682847,
video/Experiment/zh_sp07_Dr_Ro_2_GlobalTheta_NoVideo.avi,globalTheta,noVideo,sp07,Dr,Ro,2,2,5,flow/blocks/GlobalTheta_NoVideo_A.csv,,,,,,,,,0,2,2,2,0,6,6,9,,,,,,,,,-0.3537037037037037,0.30694444444444446,1,0,0,4.681709900032729,call1,-0.04212962962962963,-0.1125,1,0,0,8.333900599973276,colour3,0.3861111111111111,0.25555555555555554,1,0,0,9.177880299976096,number1,False,True,False,31,1,2019_Nov_18_1457,MA_Theta_Exp,3.0.7,60.02447798682847,
video/Experiment/zh_sp07_Ad_Gr_1_GlobalTheta_NoVideo.avi,globalTheta,noVideo,sp07,Ad,Gr,1,2,5,flow/blocks/GlobalTheta_NoVideo_A.csv,,,,,,,,,0,2,2,2,0,7,7,4,,,,,,,,,-0.34074074074074073,0.2671296296296296,1,0,0,4.885764400009066,call1,-0.020370370370370372,0.11805555555555555,1,0,0,5.681797099998221,colour2,0.3902777777777778,0.30972222222222223,1,0,0,6.578338699997403,number1,True,True,True,31,1,2019_Nov_18_1457,MA_Theta_Exp,3.0.7,60.02447798682847,
video/Experiment/zh_sp07_Un_Ro_1_GlobalTheta_NoVideo.avi,globalTheta,noVideo,sp07,Un,Ro,1,2,5,flow/blocks/GlobalTheta_NoVideo_A.csv,,,,,,,,,0,2,2,2,0,8,8,24,,,,,,,,,-0.3837962962962963,-0.2935185185185185,1,0,0,4.530059800017625,call4,0.008333333333333333,-0.08472222222222223,1,0,0,5.90107459994033,colour3,0.4273148148148148,0.337037037037037,1,0,0,6.858673800015822,number1,True,True,True,31,1,2019_Nov_18_1457,MA_Theta_Exp,3.0.7,60.02447798682847,
video/Experiment/zh_sp01_Un_We_3_GlobalTheta_NoVideo.avi,globalTheta,noVideo,sp01,Un,We,3,2,5,flow/blocks/GlobalTheta_NoVideo_A.csv,,,,,,,,,0,2,2,2,0,9,9,14,,,,,,,,,-0.41759259259259257,-0.28425925925925927,1,0,0,5.109159599989653,call4,0.0023148148148148147,-0.2972222222222222,1,0,0,6.0720680999802426,colour4,0.3768518518518518,-0.08703703703703704,1,0,0,7.137363899964839,number3,True,True,True,31,1,2019_Nov_18_1457,MA_Theta_Exp,3.0.7,60.02447798682847,
video/Experiment/zh_sp01_Ti_Ge_3_GlobalTheta_NoVideo.avi,globalTheta,noVideo,sp01,Ti,Ge,3,2,5,flow/blocks/GlobalTheta_NoVideo_A.csv,,,,,,,,,0,2,2,2,0,10,10,18,,,,,,,,,-0.34814814814814815,-0.16574074074074074,1,0,0,5.852009799913503,call3,0.06388888888888888,0.2902777777777778,1,0,0,6.9079579000826925,colour1,0.36574074074074076,-0.07592592592592592,1,0,0,7.927120000007562,number3,True,True,True,31,1,2019_Nov_18_1457,MA_Theta_Exp,3.0.7,60.02447798682847,
video/Experiment/zh_sp01_Dr_Gr_2_GlobalTheta_NoVideo.avi,globalTheta,noVideo,sp01,Dr,Gr,2,2,5,flow/blocks/GlobalTheta_NoVideo_A.csv,,,,,,,,,0,2,2,2,0,11,11,5,,,,,,,,,-0.3625,-0.11296296296296296,1,0,0,5.594893299974501,call3,-0.008333333333333333,0.0837962962962963,1,0,0,6.538458400056697,colour2,0.3509259259259259,0.08611111111111111,1,0,0,7.53713259997312,number2,False,True,True,31,1,2019_Nov_18_1457,MA_Theta_Exp,3.0.7,60.02447798682847,
video/Experiment/zh_sp01_Un_We_1_GlobalTheta_NoVideo.avi,globalTheta,noVideo,sp01,Un,We,1,2,5,flow/blocks/GlobalTheta_NoVideo_A.csv,,,,,,,,,0,2,2,2,0,12,12,28,,,,,,,,,-0.40324074074074073,-0.3013888888888889,1,0,0,5.493631900055334,call4,0.008333333333333333,0.06388888888888888,1,0,0,6.970363099942915,colour2,0.3976851851851852,0.27037037037037037,1,0,0,7.822597699938342,number1,True,False,True,31,1,2019_Nov_18_1457,MA_Theta_Exp,3.0.7,60.02447798682847,
video/Experiment/zh_sp07_Dr_Gr_4_GlobalTheta_NoVideo.avi,globalTheta,noVideo,sp07,Dr,Gr,4,2,5,flow/blocks/GlobalTheta_NoVideo_A.csv,,,,,,,,,0,2,2,2,0,13,13,23,,,,,,,,,-0.3763888888888889,-0.10555555555555556,1,0,0,5.457566200057045,call3,-0.050462962962962966,0.07175925925925926,1,0,0,6.3261684000026435,colour2,0.4046296296296296,-0.031018518518518518,1,0,0,7.583958699950017,number3,False,True,False,31,1,2019_Nov_18_1457,MA_Theta_Exp,3.0.7,60.02447798682847,
video/Experiment/zh_sp07_Ad_Ro_1_GlobalTheta_NoVideo.avi,globalTheta,noVideo,sp07,Ad,Ro,1,2,5,flow/blocks/GlobalTheta_NoVideo_A.csv,,,,,,,,,0,2,2,2,0,14,14,8,,,,,,,,,-0.37175925925925923,0.33935185185185185,1,0,0,4.5101691000163555,call1,0.005092592592592593,0.1287037037037037,1,0,0,5.289682999951765,colour2,0.40555555555555556,0.25324074074074077,1,0,0,6.0743371999124065,number1,True,False,True,31,1,2019_Nov_18_1457,MA_Theta_Exp,3.0.7,60.02447798682847,
video/Experiment/zh_sp07_Ad_Gr_3_GlobalTheta_NoVideo.avi,globalTheta,noVideo,sp07,Ad,Gr,3,2,5,flow/blocks/GlobalTheta_NoVideo_A.csv,,,,,,,,,0,2,2,2,0,15,15,22,,,,,,,,,-0.3189814814814815,0.3226851851851852,1,0,0,4.604623600025661,call1,0.008796296296296297,0.10092592592592593,1,0,0,5.416278599994257,colour2,0.3402777777777778,-0.08055555555555556,1,0,0,6.1402047000592574,number3,True,True,True,31,1,2019_Nov_18_1457,MA_Theta_Exp,3.0.7,60.02447798682847,
video/Experiment/zh_sp01_Ad_We_1_GlobalTheta_NoVideo.avi,globalTheta,noVideo,sp01,Ad,We,1,2,5,flow/blocks/GlobalTheta_NoVideo_A.csv,,,,,,,,,0,2,2,2,0,16,16,12,,,,,,,,,-0.41435185185185186,0.30324074074074076,1,0,0,5.277646199916489,call1,-0.04537037037037037,-0.28564814814814815,1,0,0,6.381629699957557,colour4,0.4060185185185185,0.32685185185185184,1,0,0,7.851163699990138,number1,True,True,True,31,1,2019_Nov_18_1457,MA_Theta_Exp,3.0.7,60.02447798682847,
video/Experiment/zh_sp07_Ti_Ge_2_GlobalTheta_NoVideo.avi,globalTheta,noVideo,sp07,Ti,Ge,2,2,5,flow/blocks/GlobalTheta_NoVideo_A.csv,,,,,,,,,0,2,2,2,0,17,17,1,,,,,,,,,-0.32731481481481484,-0.1050925925925926,1,0,0,4.897750100004487,call3,0.005555555555555556,0.25555555555555554,1,0,0,5.845130600035191,colour1,0.3388888888888889,0.17777777777777778,1,0,0,6.879944700049236,number2,True,True,True,31,1,2019_Nov_18_1457,MA_Theta_Exp,3.0.7,60.02447798682847,
video/Experiment/zh_sp01_Ad_We_2_GlobalTheta_NoVideo.avi,globalTheta,noVideo,sp01,Ad,We,2,2,5,flow/blocks/GlobalTheta_NoVideo_A.csv,,,,,,,,,0,2,2,2,0,18,18,29,,,,,,,,,-0.31666666666666665,0.25787037037037036,1,0,0,5.298269300023094,call1,-0.02638888888888889,-0.2898148148148148,1,0,0,6.3147141999797896,colour4,0.3875,0.07685185185185185,1,0,0,7.307678899960592,number2,True,True,True,31,1,2019_Nov_18_1457,MA_Theta_Exp,3.0.7,60.02447798682847,
video/Experiment/zh_sp07_Un_Gr_1_GlobalTheta_NoVideo.avi,globalTheta,noVideo,sp07,Un,Gr,1,2,5,flow/blocks/GlobalTheta_NoVideo_A.csv,,,,,,,,,0,2,2,2,0,19,19,20,,,,,,,,,-0.3402777777777778,-0.1412037037037037,1,0,0,4.782050200039521,call3,0.025,0.11203703703703703,1,0,0,5.581992999999784,colour2,0.42268518518518516,0.32083333333333336,1,0,0,6.398284700000659,number1,False,True,True,31,1,2019_Nov_18_1457,MA_Theta_Exp,3.0.7,60.02447798682847,
video/Experiment/zh_sp07_Ti_Gr_4_GlobalTheta_NoVideo.avi,globalTheta,noVideo,sp07,Ti,Gr,4,2,5,flow/blocks/GlobalTheta_NoVideo_A.csv,,,,,,,,,0,2,2,2,0,20,20,7,,,,,,,,,-0.3587962962962963,-0.15231481481481482,1,0,0,4.92055319994688,call3,-0.015277777777777777,0.05277777777777778,1,0,0,5.7033552000066265,colour2,0.3990740740740741,-0.09953703703703703,1,0,0,6.531928400043398,number3,True,True,False,31,1,2019_Nov_18_1457,MA_Theta_Exp,3.0.7,60.02447798682847,
video/Experiment/zh_sp07_Ti_We_4_GlobalTheta_NoVideo.avi,globalTheta,noVideo,sp07,Ti,We,4,2,5,flow/blocks/GlobalTheta_NoVideo_A.csv,,,,,,,,,0,2,2,2,0,21,21,31,,,,,,,,,-0.3611111111111111,-0.13287037037037036,1,0,0,5.31692740006838,call3,0.038425925925925926,-0.3449074074074074,1,0,0,5.985658599995077,colour4,0.4060185185185185,-0.11574074074074074,1,0,0,6.754533999948762,number3,True,True,False,31,1,2019_Nov_18_1457,MA_Theta_Exp,3.0.7,60.02447798682847,
video/Experiment/zh_sp01_Un_Ro_3_GlobalTheta_NoVideo.avi,globalTheta,noVideo,sp01,Un,Ro,3,2,5,flow/blocks/GlobalTheta_NoVideo_A.csv,,,,,,,,,0,2,2,2,0,22,22,26,,,,,,,,,-0.39305555555555555,-0.12314814814814815,1,0,0,5.446276600006968,call3,0.06851851851851852,-0.14212962962962963,1,0,0,6.114087000023574,colour3,0.362962962962963,-0.11481481481481481,1,0,0,6.96523710002657,number3,False,True,True,31,1,2019_Nov_18_1457,MA_Theta_Exp,3.0.7,60.02447798682847,
video/Experiment/zh_sp01_Ad_We_3_GlobalTheta_NoVideo.avi,globalTheta,noVideo,sp01,Ad,We,3,2,5,flow/blocks/GlobalTheta_NoVideo_A.csv,,,,,,,,,0,2,2,2,0,23,23,30,,,,,,,,,-0.3337962962962963,0.26157407407407407,1,0,0,5.2212754000211135,call1,0.06435185185185185,-0.35648148148148145,1,0,0,6.507595999981277,colour4,0.42962962962962964,-0.11203703703703703,1,0,0,7.371307499939576,number3,True,True,True,31,1,2019_Nov_18_1457,MA_Theta_Exp,3.0.7,60.02447798682847,
video/Experiment/zh_sp07_Ti_Ge_4_GlobalTheta_NoVideo.avi,globalTheta,noVideo,sp07,Ti,Ge,4,2,5,flow/blocks/GlobalTheta_NoVideo_A.csv,,,,,,,,,0,2,2,2,0,24,24,3,,,,,,,,,-0.4263888888888889,-0.08055555555555556,1,0,0,4.613428800017573,call3,0.059722222222222225,0.24722222222222223,1,0,0,6.569399500032887,colour1,0.3787037037037037,-0.09953703703703703,1,0,0,7.5164895000634715,number3,True,True,False,31,1,2019_Nov_18_1457,MA_Theta_Exp,3.0.7,60.02447798682847,
video/Experiment/zh_sp07_Dr_Ge_1_GlobalTheta_NoVideo.avi,globalTheta,noVideo,sp07,Dr,Ge,1,2,5,flow/blocks/GlobalTheta_NoVideo_A.csv,,,,,,,,,0,2,2,2,0,25,25,0,,,,,,,,,-0.36342592592592593,0.2833333333333333,1,0,0,4.809992099995725,call1,-0.05787037037037037,0.2523148148148148,1,0,0,5.593460599891841,colour1,0.3976851851851852,0.30833333333333335,1,0,0,6.554433400044218,number1,False,True,True,31,1,2019_Nov_18_1457,MA_Theta_Exp,3.0.7,60.02447798682847,
video/Experiment/zh_sp01_Dr_We_2_GlobalTheta_NoVideo.avi,globalTheta,noVideo,sp01,Dr,We,2,2,5,flow/blocks/GlobalTheta_NoVideo_A.csv,,,,,,,,,0,2,2,2,0,26,26,13,,,,,,,,,-0.4041666666666667,-0.06388888888888888,1,0,0,5.315170300076716,call3,-0.053703703703703705,-0.2638888888888889,1,0,0,6.182606799993664,colour4,0.38935185185185184,0.10462962962962963,1,0,0,7.240306899999268,number2,False,True,True,31,1,2019_Nov_18_1457,MA_Theta_Exp,3.0.7,60.02447798682847,
video/Experiment/zh_sp01_Un_Ge_2_GlobalTheta_NoVideo.avi,globalTheta,noVideo,sp01,Un,Ge,2,2,5,flow/blocks/GlobalTheta_NoVideo_A.csv,,,,,,,,,0,2,2,2,0,27,27,17,,,,,,,,,-0.40046296296296297,-0.075,1,0,0,5.843379699974321,call3,-0.007407407407407408,0.25972222222222224,1,0,0,6.983833099948242,colour1,0.362962962962963,0.10694444444444444,1,0,0,7.947922999970615,number2,False,True,True,31,1,2019_Nov_18_1457,MA_Theta_Exp,3.0.7,60.02447798682847,
video/Experiment/zh_sp01_Dr_Gr_3_GlobalTheta_NoVideo.avi,globalTheta,noVideo,sp01,Dr,Gr,3,2,5,flow/blocks/GlobalTheta_NoVideo_A.csv,,,,,,,,,0,2,2,2,0,28,28,6,,,,,,,,,-0.42824074074074076,-0.06111111111111111,1,0,0,6.059239699970931,call3,-0.0625,0.09305555555555556,1,0,0,7.023717899923213,colour2,0.375,-0.06620370370370371,1,0,0,7.850646800012328,number3,False,True,True,31,1,2019_Nov_18_1457,MA_Theta_Exp,3.0.7,60.02447798682847,
video/Experiment/zh_sp07_Un_We_4_GlobalTheta_NoVideo.avi,globalTheta,noVideo,sp07,Un,We,4,2,5,flow/blocks/GlobalTheta_NoVideo_A.csv,,,,,,,,,0,2,2,2,0,29,29,15,,,,,,,,,-0.4074074074074074,-0.07453703703703704,1,0,0,5.361977800028399,call3,-0.014351851851851852,0.08935185185185185,1,0,0,6.282965699909255,colour2,0.39861111111111114,-0.28055555555555556,1,0,0,7.2006590000819415,number4,False,False,True,31,1,2019_Nov_18_1457,MA_Theta_Exp,3.0.7,60.02447798682847,
video/Experiment/zh_sp01_Ti_Ro_3_GlobalTheta_NoVideo.avi,globalTheta,noVideo,sp01,Ti,Ro,3,2,5,flow/blocks/GlobalTheta_NoVideo_A.csv,,,,,,,,,0,2,2,2,0,30,30,10,,,,,,,,,-0.4064814814814815,-0.1412037037037037,1,0,0,5.281268900027499,call3,-0.006944444444444444,0.3125,1,0,0,6.1960276999743655,colour1,0.40555555555555556,-0.09398148148148149,1,0,0,7.029796999995597,number3,True,False,True,31,1,2019_Nov_18_1457,MA_Theta_Exp,3.0.7,60.02447798682847,
video/Experiment/zh_sp07_Ad_Gr_2_GlobalTheta_NoVideo.avi,globalTheta,noVideo,sp07,Ad,Gr,2,2,5,flow/blocks/GlobalTheta_NoVideo_A.csv,,,,,,,,,0,2,2,2,0,31,31,21,,,,,,,,,-0.38842592592592595,0.2587962962962963,1,0,0,4.580313200014643,call1,-0.0125,0.12361111111111112,1,0,0,5.263488700031303,colour2,0.43472222222222223,0.08564814814814815,1,0,0,6.02388350002002,number2,True,True,True,31,1,2019_Nov_18_1457,MA_Theta_Exp,3.0.7,60.02447798682847,
video/Experiment/zh_sp01_Dr_Ge_3_NVocInAudio_GlobalThetaInVideo.avi,vocoded,plusVideo,sp01,Dr,Ge,3,3,1,flow/blocks/NVocInAudio_GlobalThetaInVideo_B.csv,,,,,,,,,0,3,3,3,0,0,0,2,,,,,,,,,-0.41574074074074074,0.11851851851851852,1,0,0,5.287995400023647,call2,-0.025,0.2814814814814815,1,0,0,6.078322899993509,colour1,0.3875,-0.11064814814814815,1,0,0,6.97306720004417,number3,True,True,True,31,1,2019_Nov_18_1457,MA_Theta_Exp,3.0.7,60.02447798682847,
video/Experiment/zh_sp01_Dr_Ro_1_NVocInAudio_GlobalThetaInVideo.avi,vocoded,plusVideo,sp01,Dr,Ro,1,3,1,flow/blocks/NVocInAudio_GlobalThetaInVideo_B.csv,,,,,,,,,0,3,3,3,0,1,1,24,,,,,,,,,-0.4083333333333333,0.1476851851851852,1,0,0,5.247140499996021,call2,-0.03888888888888889,-0.08657407407407407,1,0,0,6.129547300050035,colour3,0.4162037037037037,0.28564814814814815,1,0,0,7.231764100026339,number1,True,True,True,31,1,2019_Nov_18_1457,MA_Theta_Exp,3.0.7,60.02447798682847,
video/Experiment/zh_sp07_Dr_Gr_1_NVocInAudio_GlobalThetaInVideo.avi,vocoded,plusVideo,sp07,Dr,Gr,1,3,1,flow/blocks/NVocInAudio_GlobalThetaInVideo_B.csv,,,,,,,,,0,3,3,3,0,2,2,20,,,,,,,,,-0.3472222222222222,0.11203703703703703,1,0,0,4.792653099982999,call2,-0.006944444444444444,0.0962962962962963,1,0,0,5.445240800036117,colour2,0.37037037037037035,0.3175925925925926,1,0,0,6.250680900062434,number1,True,True,True,31,1,2019_Nov_18_1457,MA_Theta_Exp,3.0.7,60.02447798682847,
video/Experiment/zh_sp01_Ti_Gr_1_NVocInAudio_GlobalThetaInVideo.avi,vocoded,plusVideo,sp01,Ti,Gr,1,3,1,flow/blocks/NVocInAudio_GlobalThetaInVideo_B.csv,,,,,,,,,0,3,3,3,0,3,3,4,,,,,,,,,-0.36898148148148147,-0.09398148148148149,1,0,0,5.350326999905519,call3,0.027777777777777776,0.13148148148148148,1,0,0,6.268965100054629,colour2,0.35138888888888886,0.2773148148148148,1,0,0,7.003903500037268,number1,True,True,True,31,1,2019_Nov_18_1457,MA_Theta_Exp,3.0.7,60.02447798682847,
video/Experiment/zh_sp07_Ad_Ro_2_NVocInAudio_GlobalThetaInVideo.avi,vocoded,plusVideo,sp07,Ad,Ro,2,3,1,flow/blocks/NVocInAudio_GlobalThetaInVideo_B.csv,,,,,,,,,0,3,3,3,0,4,4,25,,,,,,,,,-0.4078703703703704,0.27870370370370373,1,0,0,4.910392899997532,call1,0.011574074074074073,-0.08425925925925926,1,0,0,5.80813409993425,colour3,0.3902777777777778,0.0837962962962963,1,0,0,6.633063099929132,number2,True,True,True,31,1,2019_Nov_18_1457,MA_Theta_Exp,3.0.7,60.02447798682847,
video/Experiment/zh_sp01_Ti_Gr_2_NVocInAudio_GlobalThetaInVideo.avi,vocoded,plusVideo,sp01,Ti,Gr,2,3,1,flow/blocks/NVocInAudio_GlobalThetaInVideo_B.csv,,,,,,,,,0,3,3,3,0,5,5,21,,,,,,,,,-0.36435185185185187,-0.10972222222222222,1,0,0,5.581991100101732,call3,0.017592592592592594,0.0587962962962963,1,0,0,6.498534000013024,colour2,0.38842592592592595,0.10138888888888889,1,0,0,7.364986700005829,number2,True,True,True,31,1,2019_Nov_18_1457,MA_Theta_Exp,3.0.7,60.02447798682847,
video/Experiment/zh_sp01_Un_Ro_4_NVocInAudio_GlobalThetaInVideo.avi,vocoded,plusVideo,sp01,Un,Ro,4,3,1,flow/blocks/NVocInAudio_GlobalThetaInVideo_B.csv,,,,,,,,,0,3,3,3,0,6,6,27,,,,,,,,,-0.43842592592592594,-0.3347222222222222,1,0,0,6.014171799994074,call4,-0.05,-0.10555555555555556,1,0,0,6.9143463999498636,colour3,0.3527777777777778,-0.2796296296296296,1,0,0,7.760857700021006,number4,True,True,True,31,1,2019_Nov_18_1457,MA_Theta_Exp,3.0.7,60.02447798682847,
video/Experiment/zh_sp07_Un_Gr_2_NVocInAudio_GlobalThetaInVideo.avi,vocoded,plusVideo,sp07,Un,Gr,2,3,1,flow/blocks/NVocInAudio_GlobalThetaInVideo_B.csv,,,,,,,,,0,3,3,3,0,7,7,5,,,,,,,,,-0.39814814814814814,-0.27685185185185185,1,0,0,5.123153900029138,call4,0.022222222222222223,0.09953703703703703,1,0,0,6.666819099918939,colour2,0.38796296296296295,0.08981481481481482,1,0,0,7.4154847000027075,number2,True,True,True,31,1,2019_Nov_18_1457,MA_Theta_Exp,3.0.7,60.02447798682847,
video/Experiment/zh_sp07_Ti_We_2_NVocInAudio_GlobalThetaInVideo.avi,vocoded,plusVideo,sp07,Ti,We,2,3,1,flow/blocks/NVocInAudio_GlobalThetaInVideo_B.csv,,,,,,,,,0,3,3,3,0,8,8,29,,,,,,,,,-0.4074074074074074,-0.08101851851851852,1,0,0,4.838084099930711,call3,0.020833333333333332,-0.3125,1,0,0,5.793948800070211,colour4,0.3907407407407407,0.0712962962962963,1,0,0,6.809877300052904,number2,True,True,True,31,1,2019_Nov_18_1457,MA_Theta_Exp,3.0.7,60.02447798682847,
video/Experiment/zh_sp07_Dr_Ge_2_NVocInAudio_GlobalThetaInVideo.avi,vocoded,plusVideo,sp07,Dr,Ge,2,3,1,flow/blocks/NVocInAudio_GlobalThetaInVideo_B.csv,,,,,,,,,0,3,3,3,0,9,9,17,,,,,,,,,-0.39305555555555555,0.0824074074074074,1,0,0,5.174174800049514,call2,0.013425925925925926,0.29398148148148145,1,0,0,5.935520599945448,colour1,0.4185185185185185,0.12685185185185185,1,0,0,6.742006600019522,number2,True,True,True,31,1,2019_Nov_18_1457,MA_Theta_Exp,3.0.7,60.02447798682847,
video/Experiment/zh_sp01_Ad_Ro_3_NVocInAudio_GlobalThetaInVideo.avi,vocoded,plusVideo,sp01,Ad,Ro,3,3,1,flow/blocks/NVocInAudio_GlobalThetaInVideo_B.csv,,,,,,,,,0,3,3,3,0,10,10,10,,,,,,,,,-0.37777777777777777,0.29444444444444445,1,0,0,5.715072500053793,call1,0.016203703703703703,-0.0824074074074074,1,0,0,6.606738100061193,colour3,0.37546296296296294,-0.08935185185185185,1,0,0,7.451809099991806,number3,True,True,True,31,1,2019_Nov_18_1457,MA_Theta_Exp,3.0.7,60.02447798682847,
video/Experiment/zh_sp01_Ti_We_3_NVocInAudio_GlobalThetaInVideo.avi,vocoded,plusVideo,sp01,Ti,We,3,3,1,flow/blocks/NVocInAudio_GlobalThetaInVideo_B.csv,,,,,,,,,0,3,3,3,0,11,11,30,,,,,,,,,-0.44675925925925924,-0.08101851851851852,1,0,0,5.543262000079267,call3,0.004166666666666667,-0.2865740740740741,1,0,0,6.3836853000102565,colour4,0.3907407407407407,-0.08611111111111111,1,0,0,7.392371300025843,number3,True,True,True,31,1,2019_Nov_18_1457,MA_Theta_Exp,3.0.7,60.02447798682847,
video/Experiment/zh_sp07_Ad_We_4_NVocInAudio_GlobalThetaInVideo.avi,vocoded,plusVideo,sp07,Ad,We,4,3,1,flow/blocks/NVocInAudio_GlobalThetaInVideo_B.csv,,,,,,,,,0,3,3,3,0,12,12,31,,,,,,,,,-0.3597222222222222,0.35185185185185186,1,0,0,5.889951300108805,call1,0.05925925925925926,-0.31851851851851853,1,0,0,6.711495400057174,colour4,0.3476851851851852,-0.324537037037037,1,0,0,7.9675692999735475,number4,True,True,True,31,1,2019_Nov_18_1457,MA_Theta_Exp,3.0.7,60.02447798682847,
video/Experiment/zh_sp01_Ad_Ge_2_NVocInAudio_GlobalThetaInVideo.avi,vocoded,plusVideo,sp01,Ad,Ge,2,3,1,flow/blocks/NVocInAudio_GlobalThetaInVideo_B.csv,,,,,,,,,0,3,3,3,0,13,13,1,,,,,,,,,-0.3768518518518518,0.28379629629629627,1,0,0,5.544509900035337,call1,-0.03935185185185185,0.28888888888888886,1,0,0,6.277539300033823,colour1,0.35833333333333334,0.13564814814814816,1,0,0,7.139300799928606,number2,True,True,True,31,1,2019_Nov_18_1457,MA_Theta_Exp,3.0.7,60.02447798682847,
video/Experiment/zh_sp01_Un_Gr_4_NVocInAudio_GlobalThetaInVideo.avi,vocoded,plusVideo,sp01,Un,Gr,4,3,1,flow/blocks/NVocInAudio_GlobalThetaInVideo_B.csv,,,,,,,,,0,3,3,3,0,14,14,23,,,,,,,,,-0.34814814814814815,-0.3143518518518518,1,0,0,5.700052800006233,call4,0.04814814814814815,0.08842592592592592,1,0,0,6.6797106000594795,colour2,0.3490740740740741,-0.29444444444444445,1,0,0,7.907200700021349,number4,True,True,True,31,1,2019_Nov_18_1457,MA_Theta_Exp,3.0.7,60.02447798682847,
video/Experiment/zh_sp01_Ad_Gr_4_NVocInAudio_GlobalThetaInVideo.avi,vocoded,plusVideo,sp01,Ad,Gr,4,3,1,flow/blocks/NVocInAudio_GlobalThetaInVideo_B.csv,,,,,,,,,0,3,3,3,0,15,15,7,,,,,,,,,-0.3680555555555556,0.2847222222222222,1,0,0,6.235933399992064,call1,-0.023148148148148147,0.1087962962962963,1,0,0,7.0851807000581175,colour2,0.4634259259259259,-0.31805555555555554,1,0,0,7.900563600007445,number4,True,True,True,31,1,2019_Nov_18_1457,MA_Theta_Exp,3.0.7,60.02447798682847,
video/Experiment/zh_sp01_Ad_Ge_4_NVocInAudio_GlobalThetaInVideo.avi,vocoded,plusVideo,sp01,Ad,Ge,4,3,1,flow/blocks/NVocInAudio_GlobalThetaInVideo_B.csv,,,,,,,,,0,3,3,3,0,16,16,3,,,,,,,,,-0.3824074074074074,0.2518518518518518,1,0,0,6.490858700009994,call1,-0.06481481481481481,0.2935185185185185,1,0,0,7.234307099948637,colour1,0.4351851851851852,-0.26805555555555555,1,0,0,8.370452099945396,number4,True,True,True,31,1,2019_Nov_18_1457,MA_Theta_Exp,3.0.7,60.02447798682847,
video/Experiment/zh_sp07_Dr_We_3_NVocInAudio_GlobalThetaInVideo.avi,vocoded,plusVideo,sp07,Dr,We,3,3,1,flow/blocks/NVocInAudio_GlobalThetaInVideo_B.csv,,,,,,,,,0,3,3,3,0,17,17,14,,,,,,,,,-0.37592592592592594,0.07962962962962963,1,0,0,4.968715700088069,call2,-0.024537037037037038,-0.24814814814814815,1,0,0,6.486136900028214,colour4,0.38287037037037036,-0.11481481481481481,1,0,0,7.59464379993733,number3,True,True,True,31,1,2019_Nov_18_1457,MA_Theta_Exp,3.0.7,60.02447798682847,
video/Experiment/zh_sp07_Un_Ge_4_NVocInAudio_GlobalThetaInVideo.avi,vocoded,plusVideo,sp07,Un,Ge,4,3,1,flow/blocks/NVocInAudio_GlobalThetaInVideo_B.csv,,,,,,,,,0,3,3,3,0,18,18,19,,,,,,,,,-0.3726851851851852,-0.26851851851851855,1,0,0,4.511274699936621,call4,0.020370370370370372,0.25925925925925924,1,0,0,5.536428299965337,colour1,0.3592592592592593,-0.3148148148148148,1,0,0,6.584916299907491,number4,True,True,True,31,1,2019_Nov_18_1457,MA_Theta_Exp,3.0.7,60.02447798682847,
video/Experiment/zh_sp01_Ti_Ro_4_NVocInAudio_GlobalThetaInVideo.avi,vocoded,plusVideo,sp01,Ti,Ro,4,3,1,flow/blocks/NVocInAudio_GlobalThetaInVideo_B.csv,,,,,,,,,0,3,3,3,0,19,19,11,,,,,,,,,-0.3958333333333333,-0.18009259259259258,1,0,0,5.8444226999999955,call3,0.001851851851851852,-0.14629629629629629,1,0,0,6.546407500049099,colour3,0.4217592592592593,-0.3101851851851852,1,0,0,7.250323500018567,number4,True,True,True,31,1,2019_Nov_18_1457,MA_Theta_Exp,3.0.7,60.02447798682847,
video/Experiment/zh_sp01_Ti_Gr_3_NVocInAudio_GlobalThetaInVideo.avi,vocoded,plusVideo,sp01,Ti,Gr,3,3,1,flow/blocks/NVocInAudio_GlobalThetaInVideo_B.csv,,,,,,,,,0,3,3,3,0,20,20,22,,,,,,,,,-0.3902777777777778,-0.05648148148148148,1,0,0,5.871585000073537,call3,0.020370370370370372,0.08287037037037037,1,0,0,6.808236300013959,colour2,0.46111111111111114,-0.18009259259259258,1,0,0,7.656945299939252,number3,True,True,True,31,1,2019_Nov_18_1457,MA_Theta_Exp,3.0.7,60.02447798682847,
video/Experiment/zh_sp07_Dr_Ro_3_NVocInAudio_GlobalThetaInVideo.avi,vocoded,plusVideo,sp07,Dr,Ro,3,3,1,flow/blocks/NVocInAudio_GlobalThetaInVideo_B.csv,,,,,,,,,0,3,3,3,0,21,21,26,,,,,,,,,-0.3490740740740741,0.0587962962962963,1,0,0,5.124135399935767,call2,0.04259259259259259,-0.14027777777777778,1,0,0,6.24591979989782,colour3,0.42824074074074076,-0.13333333333333333,1,0,0,6.978982600034215,number3,True,True,True,31,1,2019_Nov_18_1457,MA_Theta_Exp,3.0.7,60.02447798682847,
video/Experiment/zh_sp07_Ti_We_1_NVocInAudio_GlobalThetaInVideo.avi,vocoded,plusVideo,sp07,Ti,We,1,3,1,flow/blocks/NVocInAudio_GlobalThetaInVideo_B.csv,,,,,,,,,0,3,3,3,0,22,22,12,,,,,,,,,-0.4324074074074074,-0.0625,1,0,0,4.653290600050241,call3,0.040740740740740744,-0.36435185185185187,1,0,0,5.357064199983142,colour4,0.41435185185185186,0.31805555555555554,1,0,0,6.306866299943067,number1,True,True,True,31,1,2019_Nov_18_1457,MA_Theta_Exp,3.0.7,60.02447798682847,
video/Experiment/zh_sp07_Ad_Ge_1_NVocInAudio_GlobalThetaInVideo.avi,vocoded,plusVideo,sp07,Ad,Ge,1,3,1,flow/blocks/NVocInAudio_GlobalThetaInVideo_B.csv,,,,,,,,,0,3,3,3,0,23,23,16,,,,,,,,,-0.38333333333333336,0.1162037037037037,1,0,0,4.446688299998641,call2,0.05416666666666667,0.2935185185185185,1,0,0,5.141202799975872,colour1,0.3861111111111111,0.2949074074074074,1,0,0,5.91805839992594,number1,False,True,True,31,1,2019_Nov_18_1457,MA_Theta_Exp,3.0.7,60.02447798682847,
video/Experiment/zh_sp07_Un_We_2_NVocInAudio_GlobalThetaInVideo.avi,vocoded,plusVideo,sp07,Un,We,2,3,1,flow/blocks/NVocInAudio_GlobalThetaInVideo_B.csv,,,,,,,,,0,3,3,3,0,24,24,13,,,,,,,,,-0.33935185185185185,-0.2828703703703704,1,0,0,4.525679300073534,call4,0.026851851851851852,-0.2763888888888889,1,0,0,5.254690799978562,colour4,0.39537037037037037,0.07268518518518519,1,0,0,6.078266700031236,number2,True,True,True,31,1,2019_Nov_18_1457,MA_Theta_Exp,3.0.7,60.02447798682847,
video/Experiment/zh_sp01_Un_Ge_1_NVocInAudio_GlobalThetaInVideo.avi,vocoded,plusVideo,sp01,Un,Ge,1,3,1,flow/blocks/NVocInAudio_GlobalThetaInVideo_B.csv,,,,,,,,,0,3,3,3,0,25,25,0,,,,,,,,,-0.4097222222222222,-0.27685185185185185,1,0,0,5.335255200043321,call4,-0.015277777777777777,0.28935185185185186,1,0,0,6.251375199994072,colour1,0.37777777777777777,0.2712962962962963,1,0,0,7.060896200011484,number1,True,True,True,31,1,2019_Nov_18_1457,MA_Theta_Exp,3.0.7,60.02447798682847,
video/Experiment/zh_sp07_Dr_We_4_NVocInAudio_GlobalThetaInVideo.avi,vocoded,plusVideo,sp07,Dr,We,4,3,1,flow/blocks/NVocInAudio_GlobalThetaInVideo_B.csv,,,,,,,,,0,3,3,3,0,26,26,15,,,,,,,,,-0.3611111111111111,0.14305555555555555,1,0,0,5.028954999987036,call2,0.010648148148148148,-0.23472222222222222,1,0,0,6.386849100003019,colour4,0.35694444444444445,-0.2953703703703704,1,0,0,7.260281900060363,number4,True,True,True,31,1,2019_Nov_18_1457,MA_Theta_Exp,3.0.7,60.02447798682847,
video/Experiment/zh_sp07_Ti_Ro_1_NVocInAudio_GlobalThetaInVideo.avi,vocoded,plusVideo,sp07,Ti,Ro,1,3,1,flow/blocks/NVocInAudio_GlobalThetaInVideo_B.csv,,,,,,,,,0,3,3,3,0,27,27,8,,,,,,,,,-0.35185185185185186,-0.12037037037037036,1,0,0,5.020944399992004,call3,0.05277777777777778,-0.08009259259259259,1,0,0,8.20866149989888,colour3,0.44212962962962965,0.30277777777777776,1,0,0,9.133281200076453,number1,True,True,True,31,1,2019_Nov_18_1457,MA_Theta_Exp,3.0.7,60.02447798682847,
video/Experiment/zh_sp01_Dr_We_1_NVocInAudio_GlobalThetaInVideo.avi,vocoded,plusVideo,sp01,Dr,We,1,3,1,flow/blocks/NVocInAudio_GlobalThetaInVideo_B.csv,,,,,,,,,0,3,3,3,0,28,28,28,,,,,,,,,-0.3578703703703704,0.07824074074074074,1,0,0,6.066748399985954,call2,-0.05138888888888889,-0.2953703703703704,1,0,0,6.94680499995593,colour4,0.42916666666666664,0.2791666666666667,1,0,0,7.741143899969757,number1,True,True,True,31,1,2019_Nov_18_1457,MA_Theta_Exp,3.0.7,60.02447798682847,
video/Experiment/zh_sp01_Ad_Ge_3_NVocInAudio_GlobalThetaInVideo.avi,vocoded,plusVideo,sp01,Ad,Ge,3,3,1,flow/blocks/NVocInAudio_GlobalThetaInVideo_B.csv,,,,,,,,,0,3,3,3,0,29,29,18,,,,,,,,,-0.36666666666666664,0.29814814814814816,1,0,0,5.514868399943225,call1,-0.034722222222222224,0.3148148148148148,1,0,0,6.309879699954763,colour1,0.3611111111111111,-0.052314814814814814,1,0,0,7.415250499965623,number3,True,True,True,31,1,2019_Nov_18_1457,MA_Theta_Exp,3.0.7,60.02447798682847,
video/Experiment/zh_sp07_Un_Ro_2_NVocInAudio_GlobalThetaInVideo.avi,vocoded,plusVideo,sp07,Un,Ro,2,3,1,flow/blocks/NVocInAudio_GlobalThetaInVideo_B.csv,,,,,,,,,0,3,3,3,0,30,30,9,,,,,,,,,-0.3763888888888889,-0.33611111111111114,1,0,0,4.6480684000998735,call4,-0.04675925925925926,-0.11990740740740741,1,0,0,5.447424600017257,colour3,0.3597222222222222,0.08333333333333333,1,0,0,6.2780338999582455,number2,True,True,True,31,1,2019_Nov_18_1457,MA_Theta_Exp,3.0.7,60.02447798682847,
video/Experiment/zh_sp07_Un_Gr_3_NVocInAudio_GlobalThetaInVideo.avi,vocoded,plusVideo,sp07,Un,Gr,3,3,1,flow/blocks/NVocInAudio_GlobalThetaInVideo_B.csv,,,,,,,,,0,3,3,3,0,31,31,6,,,,,,,,,-0.3814814814814815,-0.3148148148148148,1,0,0,4.534261499997228,call4,0.004166666666666667,0.08611111111111111,1,0,0,5.299872600007802,colour2,0.38564814814814813,-0.0824074074074074,1,0,0,6.055368899949826,number3,True,True,True,31,1,2019_Nov_18_1457,MA_Theta_Exp,3.0.7,60.02447798682847,
video/Experiment/zh_sp07_Dr_Ge_1_NoThetaInAudio_NoVideo.avi,noTheta,noVideo,sp07,Dr,Ge,1,4,4,flow/blocks/NoThetaInAudio_NoVideo_A.csv,,,,,,,,,0,4,4,4,0,0,0,0,,,,,,,,,-0.35555555555555557,0.2898148148148148,1,0,0,5.105623900075443,call1,0.026851851851851852,0.2986111111111111,1,0,0,5.759913600049913,colour1,0.34675925925925927,0.32083333333333336,1,0,0,6.453498599934392,number1,False,True,True,31,1,2019_Nov_18_1457,MA_Theta_Exp,3.0.7,60.02447798682847,
video/Experiment/zh_sp07_Un_Ge_2_NoThetaInAudio_NoVideo.avi,noTheta,noVideo,sp07,Un,Ge,2,4,4,flow/blocks/NoThetaInAudio_NoVideo_A.csv,,,,,,,,,0,4,4,4,0,1,1,17,,,,,,,,,-0.4050925925925926,-0.25601851851851853,1,0,0,4.601059700013138,call4,0.040740740740740744,0.3509259259259259,1,0,0,5.443763200077228,colour1,0.3800925925925926,0.13194444444444445,1,0,0,6.179078500019386,number2,True,True,True,31,1,2019_Nov_18_1457,MA_Theta_Exp,3.0.7,60.02447798682847,
video/Experiment/zh_sp07_Ti_Ge_3_NoThetaInAudio_NoVideo.avi,noTheta,noVideo,sp07,Ti,Ge,3,4,4,flow/blocks/NoThetaInAudio_NoVideo_A.csv,,,,,,,,,0,4,4,4,0,2,2,18,,,,,,,,,-0.35462962962962963,0.25787037037037036,1,0,0,5.427326399949379,call1,-0.008333333333333333,0.26805555555555555,1,0,0,6.066343600046821,colour1,0.41898148148148145,-0.14583333333333334,1,0,0,7.063755000010133,number3,False,True,True,31,1,2019_Nov_18_1457,MA_Theta_Exp,3.0.7,60.02447798682847,
video/Experiment/zh_sp07_Ad_Ro_4_NoThetaInAudio_NoVideo.avi,noTheta,noVideo,sp07,Ad,Ro,4,4,4,flow/blocks/NoThetaInAudio_NoVideo_A.csv,,,,,,,,,0,4,4,4,0,3,3,11,,,,,,,,,-0.3578703703703704,0.2337962962962963,1,0,0,5.093889600015245,call1,-0.04212962962962963,-0.07407407407407407,1,0,0,5.972318100044504,colour3,0.44722222222222224,-0.2763888888888889,1,0,0,6.871468400000595,number4,True,True,True,31,1,2019_Nov_18_1457,MA_Theta_Exp,3.0.7,60.02447798682847,
video/Experiment/zh_sp01_Ad_Gr_1_NoThetaInAudio_NoVideo.avi,noTheta,noVideo,sp01,Ad,Gr,1,4,4,flow/blocks/NoThetaInAudio_NoVideo_A.csv,,,,,,,,,0,4,4,4,0,4,4,4,,,,,,,,,-0.4064814814814815,0.3388888888888889,1,0,0,5.714660000056028,call1,-0.015277777777777777,0.10046296296296296,1,0,0,6.937478299951181,colour2,0.3902777777777778,0.26064814814814813,1,0,0,7.819969299947843,number1,True,True,True,31,1,2019_Nov_18_1457,MA_Theta_Exp,3.0.7,60.02447798682847,
video/Experiment/zh_sp01_Un_Ro_1_NoThetaInAudio_NoVideo.avi,noTheta,noVideo,sp01,Un,Ro,1,4,4,flow/blocks/NoThetaInAudio_NoVideo_A.csv,,,,,,,,,0,4,4,4,0,5,5,24,,,,,,,,,-0.38333333333333336,-0.32314814814814813,1,0,0,5.436856399988756,call4,-0.0375,-0.1087962962962963,1,0,0,6.349009600002319,colour3,0.38101851851851853,0.28935185185185186,1,0,0,7.21701529994607,number1,True,True,True,31,1,2019_Nov_18_1457,MA_Theta_Exp,3.0.7,60.02447798682847,
video/Experiment/zh_sp01_Dr_Gr_4_NoThetaInAudio_NoVideo.avi,noTheta,noVideo,sp01,Dr,Gr,4,4,4,flow/blocks/NoThetaInAudio_NoVideo_A.csv,,,,,,,,,0,4,4,4,0,6,6,23,,,,,,,,,-0.39444444444444443,0.3106481481481482,1,0,0,5.961153900017962,call1,0.011111111111111112,0.14444444444444443,1,0,0,7.171146300039254,colour2,0.3851851851851852,-0.31527777777777777,1,0,0,8.238344800076447,number4,False,True,True,31,1,2019_Nov_18_1457,MA_Theta_Exp,3.0.7,60.02447798682847,
video/Experiment/zh_sp01_Ti_Ge_1_NoThetaInAudio_NoVideo.avi,noTheta,noVideo,sp01,Ti,Ge,1,4,4,flow/blocks/NoThetaInAudio_NoVideo_A.csv,,,,,,,,,0,4,4,4,0,7,7,16,,,,,,,,,0.3851851851851852,-0.31527777777777777,1,0,0,4.909269799944013,call1,-0.05925925925925926,0.3,1,0,0,7.237396199954674,colour1,0.35833333333333334,0.32037037037037036,1,0,0,8.011835199897178,number1,False,True,True,31,1,2019_Nov_18_1457,MA_Theta_Exp,3.0.7,60.02447798682847,
video/Experiment/zh_sp01_Dr_We_2_NoThetaInAudio_NoVideo.avi,noTheta,noVideo,sp01,Dr,We,2,4,4,flow/blocks/NoThetaInAudio_NoVideo_A.csv,,,,,,,,,0,4,4,4,0,8,8,13,,,,,,,,,-0.3398148148148148,0.29444444444444445,1,0,0,5.2421851000981405,call1,0.062037037037037036,-0.3287037037037037,1,0,0,6.2681513000279665,colour4,0.39166666666666666,0.0625,1,0,0,7.260228700004518,number2,False,True,True,31,1,2019_Nov_18_1457,MA_Theta_Exp,3.0.7,60.02447798682847,
video/Experiment/zh_sp01_Un_Ro_3_NoThetaInAudio_NoVideo.avi,noTheta,noVideo,sp01,Un,Ro,3,4,4,flow/blocks/NoThetaInAudio_NoVideo_A.csv,,,,,,,,,0,4,4,4,0,9,9,26,,,,,,,,,-0.387037037037037,-0.27037037037037037,1,0,0,5.492926500039175,call4,-0.03194444444444444,-0.13148148148148148,1,0,0,6.3138182000257075,colour3,0.3578703703703704,-0.10277777777777777,1,0,0,7.147764199995436,number3,True,True,True,31,1,2019_Nov_18_1457,MA_Theta_Exp,3.0.7,60.02447798682847,
video/Experiment/zh_sp07_Dr_Gr_2_NoThetaInAudio_NoVideo.avi,noTheta,noVideo,sp07,Dr,Gr,2,4,4,flow/blocks/NoThetaInAudio_NoVideo_A.csv,,,,,,,,,0,4,4,4,0,10,10,5,,,,,,,,,-0.36666666666666664,-0.2740740740740741,1,0,0,4.687533800024539,call4,-0.02546296296296296,0.1259259259259259,1,0,0,5.573486999957822,colour2,0.3875,0.11944444444444445,1,0,0,6.359953499981202,number2,False,True,True,31,1,2019_Nov_18_1457,MA_Theta_Exp,3.0.7,60.02447798682847,
video/Experiment/zh_sp01_Dr_Ro_2_NoThetaInAudio_NoVideo.avi,noTheta,noVideo,sp01,Dr,Ro,2,4,4,flow/blocks/NoThetaInAudio_NoVideo_A.csv,,,,,,,,,0,4,4,4,0,11,11,9,,,,,,,,,-0.33611111111111114,-0.2967592592592593,1,0,0,5.389893000014126,call4,-0.017592592592592594,-0.11944444444444445,1,0,0,6.589744900004007,colour3,0.38981481481481484,0.06712962962962964,1,0,0,7.408712400007062,number2,False,True,True,31,1,2019_Nov_18_1457,MA_Theta_Exp,3.0.7,60.02447798682847,
video/Experiment/zh_sp07_Ad_We_2_NoThetaInAudio_NoVideo.avi,noTheta,noVideo,sp07,Ad,We,2,4,4,flow/blocks/NoThetaInAudio_NoVideo_A.csv,,,,,,,,,0,4,4,4,0,12,12,29,,,,,,,,,-0.3537037037037037,0.2662037037037037,1,0,0,4.938211199943908,call1,-0.00787037037037037,-0.3050925925925926,1,0,0,6.051516800071113,colour4,0.3611111111111111,0.06296296296296296,1,0,0,6.985315600060858,number2,True,True,True,31,1,2019_Nov_18_1457,MA_Theta_Exp,3.0.7,60.02447798682847,
video/Experiment/zh_sp07_Ti_Ge_4_NoThetaInAudio_NoVideo.avi,noTheta,noVideo,sp07,Ti,Ge,4,4,4,flow/blocks/NoThetaInAudio_NoVideo_A.csv,,,,,,,,,0,4,4,4,0,13,13,3,,,,,,,,,-0.3509259259259259,0.3074074074074074,1,0,0,5.057171099935658,call1,0.010185185185185186,0.30277777777777776,1,0,0,6.057905400055461,colour1,0.35,-0.33194444444444443,1,0,0,6.922168000019155,number4,False,True,True,31,1,2019_Nov_18_1457,MA_Theta_Exp,3.0.7,60.02447798682847,
video/Experiment/zh_sp07_Dr_Ge_4_NoThetaInAudio_NoVideo.avi,noTheta,noVideo,sp07,Dr,Ge,4,4,4,flow/blocks/NoThetaInAudio_NoVideo_A.csv,,,,,,,,,0,4,4,4,0,14,14,19,,,,,,,,,-0.3537037037037037,-0.08101851851851852,1,0,0,6.633616700069979,call3,-0.005092592592592593,0.33935185185185185,1,0,0,7.699079800047912,colour1,0.37222222222222223,-0.2884259259259259,1,0,0,8.518998999963515,number4,False,True,True,31,1,2019_Nov_18_1457,MA_Theta_Exp,3.0.7,60.02447798682847,
video/Experiment/zh_sp07_Ad_Gr_2_NoThetaInAudio_NoVideo.avi,noTheta,noVideo,sp07,Ad,Gr,2,4,4,flow/blocks/NoThetaInAudio_NoVideo_A.csv,,,,,,,,,0,4,4,4,0,15,15,21,,,,,,,,,-0.3587962962962963,0.3055555555555556,1,0,0,4.78578280005604,call1,0.038425925925925926,0.075,1,0,0,5.402314500068314,colour2,0.36666666666666664,0.08564814814814815,1,0,0,6.093137999996543,number2,True,True,True,31,1,2019_Nov_18_1457,MA_Theta_Exp,3.0.7,60.02447798682847,
video/Experiment/zh_sp01_Dr_Gr_3_NoThetaInAudio_NoVideo.avi,noTheta,noVideo,sp01,Dr,Gr,3,4,4,flow/blocks/NoThetaInAudio_NoVideo_A.csv,,,,,,,,,0,4,4,4,0,16,16,6,,,,,,,,,-0.3768518518518518,0.2675925925925926,1,0,0,5.622742900042795,call1,0.024537037037037038,0.09861111111111111,1,0,0,6.257625499973074,colour2,0.35,-0.07222222222222222,1,0,0,7.310123499948531,number3,False,True,True,31,1,2019_Nov_18_1457,MA_Theta_Exp,3.0.7,60.02447798682847,
video/Experiment/zh_sp07_Dr_Ro_4_NoThetaInAudio_NoVideo.avi,noTheta,noVideo,sp07,Dr,Ro,4,4,4,flow/blocks/NoThetaInAudio_NoVideo_A.csv,,,,,,,,,0,4,4,4,0,17,17,27,,,,,,,,,-0.38333333333333336,0.2625,1,0,0,6.0791805000044405,call1,0.014351851851851852,-0.07546296296296297,1,0,0,7.890405699959956,colour3,0.38101851851851853,-0.31157407407407406,1,0,0,8.663952399976552,number4,False,True,True,31,1,2019_Nov_18_1457,MA_Theta_Exp,3.0.7,60.02447798682847,
video/Experiment/zh_sp01_Ad_We_1_NoThetaInAudio_NoVideo.avi,noTheta,noVideo,sp01,Ad,We,1,4,4,flow/blocks/NoThetaInAudio_NoVideo_A.csv,,,,,,,,,0,4,4,4,0,18,18,12,,,,,,,,,-0.36944444444444446,0.3212962962962963,1,0,0,5.5138844000175595,call1,-0.03425925925925926,-0.2587962962962963,1,0,0,6.366490799933672,colour4,0.36064814814814816,0.2513888888888889,1,0,0,7.1869344000006095,number1,True,True,True,31,1,2019_Nov_18_1457,MA_Theta_Exp,3.0.7,60.02447798682847,
video/Experiment/zh_sp01_Ad_We_3_NoThetaInAudio_NoVideo.avi,noTheta,noVideo,sp01,Ad,We,3,4,4,flow/blocks/NoThetaInAudio_NoVideo_A.csv,,,,,,,,,0,4,4,4,0,19,19,30,,,,,,,,,-0.3226851851851852,0.3592592592592593,1,0,0,5.072540599969216,call1,-0.008796296296296297,-0.33240740740740743,1,0,0,6.1569390000076964,colour4,0.43842592592592594,-0.03564814814814815,1,0,0,6.966262300033122,number3,True,True,True,31,1,2019_Nov_18_1457,MA_Theta_Exp,3.0.7,60.02447798682847,
video/Experiment/zh_sp07_Un_Ge_3_NoThetaInAudio_NoVideo.avi,noTheta,noVideo,sp07,Un,Ge,3,4,4,flow/blocks/NoThetaInAudio_NoVideo_A.csv,,,,,,,,,0,4,4,4,0,20,20,2,,,,,,,,,-0.3962962962962963,0.2912037037037037,1,0,0,5.744203699985519,call1,0.000925925925925926,-0.2800925925925926,1,0,0,7.167838699999265,colour4,0.3578703703703704,-0.11574074074074074,1,0,0,7.939975499990396,number3,False,False,True,31,1,2019_Nov_18_1457,MA_Theta_Exp,3.0.7,60.02447798682847,
video/Experiment/zh_sp01_Ad_Gr_3_NoThetaInAudio_NoVideo.avi,noTheta,noVideo,sp01,Ad,Gr,3,4,4,flow/blocks/NoThetaInAudio_NoVideo_A.csv,,,,,,,,,0,4,4,4,0,21,21,22,,,,,,,,,-0.3888888888888889,0.3194444444444444,1,0,0,5.54185540007893,call1,-0.04351851851851852,0.12175925925925926,1,0,0,6.378738600062206,colour2,0.38657407407407407,-0.12037037037037036,1,0,0,7.195119800046086,number3,True,True,True,31,1,2019_Nov_18_1457,MA_Theta_Exp,3.0.7,60.02447798682847,
video/Experiment/zh_sp01_Un_We_4_NoThetaInAudio_NoVideo.avi,noTheta,noVideo,sp01,Un,We,4,4,4,flow/blocks/NoThetaInAudio_NoVideo_A.csv,,,,,,,,,0,4,4,4,0,22,22,15,,,,,,,,,-0.40555555555555556,-0.3143518518518518,1,0,0,5.907812100020237,call4,-0.06527777777777778,-0.31574074074074077,1,0,0,6.653685500030406,colour4,0.36203703703703705,-0.31296296296296294,1,0,0,7.5050044999225065,number4,True,True,True,31,1,2019_Nov_18_1457,MA_Theta_Exp,3.0.7,60.02447798682847,
video/Experiment/zh_sp01_Un_Gr_1_NoThetaInAudio_NoVideo.avi,noTheta,noVideo,sp01,Un,Gr,1,4,4,flow/blocks/NoThetaInAudio_NoVideo_A.csv,,,,,,,,,0,4,4,4,0,23,23,20,,,,,,,,,-0.375,-0.33287037037037037,1,0,0,5.517583399894647,call4,0.006944444444444444,0.04027777777777778,1,0,0,6.341789799975231,colour2,0.44305555555555554,0.32314814814814813,1,0,0,7.119151600054465,number1,True,True,True,31,1,2019_Nov_18_1457,MA_Theta_Exp,3.0.7,60.02447798682847,
video/Experiment/zh_sp01_Ti_We_4_NoThetaInAudio_NoVideo.avi,noTheta,noVideo,sp01,Ti,We,4,4,4,flow/blocks/NoThetaInAudio_NoVideo_A.csv,,,,,,,,,0,4,4,4,0,24,24,31,,,,,,,,,-0.41574074074074074,-0.10601851851851851,1,0,0,6.632639699964784,call3,0.012037037037037037,-0.2824074074074074,1,0,0,7.448935499996878,colour4,0.3375,-0.2865740740740741,1,0,0,8.19824120006524,number4,True,True,True,31,1,2019_Nov_18_1457,MA_Theta_Exp,3.0.7,60.02447798682847,
video/Experiment/zh_sp07_Ti_Ro_3_NoThetaInAudio_NoVideo.avi,noTheta,noVideo,sp07,Ti,Ro,3,4,4,flow/blocks/NoThetaInAudio_NoVideo_A.csv,,,,,,,,,0,4,4,4,0,25,25,10,,,,,,,,,-0.38657407407407407,-0.07731481481481481,1,0,0,4.6272626999998465,call3,-0.009259259259259259,-0.10601851851851851,1,0,0,5.410817400086671,colour3,0.39814814814814814,-0.1162037037037037,1,0,0,6.153535800054669,number3,True,True,True,31,1,2019_Nov_18_1457,MA_Theta_Exp,3.0.7,60.02447798682847,
video/Experiment/zh_sp07_Ti_Ge_2_NoThetaInAudio_NoVideo.avi,noTheta,noVideo,sp07,Ti,Ge,2,4,4,flow/blocks/NoThetaInAudio_NoVideo_A.csv,,,,,,,,,0,4,4,4,0,26,26,1,,,,,,,,,-0.3365740740740741,-0.07685185185185185,1,0,0,4.881126599968411,call3,-0.001851851851851852,0.25324074074074077,1,0,0,5.763824100024067,colour1,0.35185185185185186,0.12222222222222222,1,0,0,6.597346900030971,number2,True,True,True,31,1,2019_Nov_18_1457,MA_Theta_Exp,3.0.7,60.02447798682847,
video/Experiment/zh_sp01_Ad_Ro_1_NoThetaInAudio_NoVideo.avi,noTheta,noVideo,sp01,Ad,Ro,1,4,4,flow/blocks/NoThetaInAudio_NoVideo_A.csv,,,,,,,,,0,4,4,4,0,27,27,8,,,,,,,,,-0.35833333333333334,0.31574074074074077,1,0,0,5.851687000016682,call1,0.08333333333333333,-0.1398148148148148,1,0,0,7.374298100010492,colour3,0.42592592592592593,0.3638888888888889,1,0,0,8.355011699954048,number1,True,True,True,31,1,2019_Nov_18_1457,MA_Theta_Exp,3.0.7,60.02447798682847,
video/Experiment/zh_sp07_Ti_Gr_4_NoThetaInAudio_NoVideo.avi,noTheta,noVideo,sp07,Ti,Gr,4,4,4,flow/blocks/NoThetaInAudio_NoVideo_A.csv,,,,,,,,,0,4,4,4,0,28,28,7,,,,,,,,,-0.3486111111111111,0.2912037037037037,1,0,0,5.649731099954806,call1,-0.022222222222222223,0.12175925925925926,1,0,0,6.484774100012146,colour2,0.35555555555555557,-0.2791666666666667,1,0,0,7.5360147000756115,number4,False,True,True,31,1,2019_Nov_18_1457,MA_Theta_Exp,3.0.7,60.02447798682847,
video/Experiment/zh_sp07_Ti_Ro_2_NoThetaInAudio_NoVideo.avi,noTheta,noVideo,sp07,Ti,Ro,2,4,4,flow/blocks/NoThetaInAudio_NoVideo_A.csv,,,,,,,,,0,4,4,4,0,29,29,25,,,,,,,,,-0.3958333333333333,-0.11712962962962963,1,0,0,4.881811699946411,call3,-0.04675925925925926,-0.09351851851851851,1,0,0,5.546181999961846,colour3,0.39537037037037037,0.05,1,0,0,6.406276500085369,number2,True,True,True,31,1,2019_Nov_18_1457,MA_Theta_Exp,3.0.7,60.02447798682847,
video/Experiment/zh_sp01_Un_We_3_NoThetaInAudio_NoVideo.avi,noTheta,noVideo,sp01,Un,We,3,4,4,flow/blocks/NoThetaInAudio_NoVideo_A.csv,,,,,,,,,0,4,4,4,0,30,30,14,,,,,,,,,-0.3824074074074074,-0.28935185185185186,1,0,0,5.431340199895203,call4,-0.03564814814814815,-0.2777777777777778,1,0,0,6.321691800025292,colour4,0.38425925925925924,-0.11481481481481481,1,0,0,7.415011500008404,number3,True,True,True,31,1,2019_Nov_18_1457,MA_Theta_Exp,3.0.7,60.02447798682847,
video/Experiment/zh_sp07_Un_We_1_NoThetaInAudio_NoVideo.avi,noTheta,noVideo,sp07,Un,We,1,4,4,flow/blocks/NoThetaInAudio_NoVideo_A.csv,,,,,,,,,0,4,4,4,0,31,31,28,,,,,,,,,-0.3958333333333333,-0.3013888888888889,1,0,0,5.479051100090146,call4,-0.044444444444444446,-0.2625,1,0,0,6.395487000001594,colour4,0.4097222222222222,0.30092592592592593,1,0,0,7.49701809999533,number1,True,True,True,31,1,2019_Nov_18_1457,MA_Theta_Exp,3.0.7,60.02447798682847,
video/Experiment/zh_sp07_Ad_We_4_NVocInAudio_GlobalThetaInVideo.avi,vocoded,plusVideo,sp07,Ad,We,4,0,1,flow/blocks/NVocInAudio_GlobalThetaInVideo_B.csv,,,,,,,,,,,,,,,,,0,0,0,0,0,0,0,31,-0.36342592592592593,0.33611111111111114,1,0,0,5.446932999999262,call1,-0.012962962962962963,-0.2884259259259259,1,0,0,6.257662699907087,colour4,0.3662037037037037,-0.3087962962962963,1,0,0,7.018536300049163,number4,True,True,True,31,1,2019_Nov_18_1457,MA_Theta_Exp,3.0.7,60.02447798682847,
video/Experiment/zh_sp01_Ad_Ge_2_NVocInAudio_GlobalThetaInVideo.avi,vocoded,plusVideo,sp01,Ad,Ge,2,0,1,flow/blocks/NVocInAudio_GlobalThetaInVideo_B.csv,,,,,,,,,,,,,,,,,0,0,0,0,0,1,1,1,-0.37962962962962965,0.3013888888888889,1,0,0,5.493391900090501,call1,0.03287037037037037,0.3680555555555556,1,0,0,6.24808499997016,colour1,0.38981481481481484,0.10694444444444444,1,0,0,6.992721099988557,number2,True,True,True,31,1,2019_Nov_18_1457,MA_Theta_Exp,3.0.7,60.02447798682847,
video/Experiment/zh_sp07_Un_Gr_2_NVocInAudio_GlobalThetaInVideo.avi,vocoded,plusVideo,sp07,Un,Gr,2,0,1,flow/blocks/NVocInAudio_GlobalThetaInVideo_B.csv,,,,,,,,,,,,,,,,,0,0,0,0,0,2,2,5,-0.41435185185185186,-0.3300925925925926,1,0,0,4.770011899992824,call4,0.047685185185185185,0.09027777777777778,1,0,0,5.675547100021504,colour2,0.38935185185185184,0.12824074074074074,1,0,0,6.3479203999741,number2,True,True,True,31,1,2019_Nov_18_1457,MA_Theta_Exp,3.0.7,60.02447798682847,
video/Experiment/zh_sp01_Dr_Ge_3_NVocInAudio_GlobalThetaInVideo.avi,vocoded,plusVideo,sp01,Dr,Ge,3,0,1,flow/blocks/NVocInAudio_GlobalThetaInVideo_B.csv,,,,,,,,,,,,,,,,,0,0,0,0,0,3,3,2,-0.3490740740740741,0.05648148148148148,1,0,0,5.34531230002176,call2,-0.011574074074074073,0.2953703703703704,1,0,0,6.007311399909668,colour1,0.38657407407407407,-0.12314814814814815,1,0,0,6.844071800005622,number3,True,True,True,31,1,2019_Nov_18_1457,MA_Theta_Exp,3.0.7,60.02447798682847,
video/Experiment/zh_sp07_Un_We_2_NVocInAudio_GlobalThetaInVideo.avi,vocoded,plusVideo,sp07,Un,We,2,0,1,flow/blocks/NVocInAudio_GlobalThetaInVideo_B.csv,,,,,,,,,,,,,,,,,0,0,0,0,0,4,4,13,-0.41944444444444445,-0.275,1,0,0,5.216275899903849,call4,-0.058333333333333334,-0.3111111111111111,1,0,0,5.862076900084503,colour4,0.3902777777777778,0.08657407407407407,1,0,0,6.795781300053932,number2,True,True,True,31,1,2019_Nov_18_1457,MA_Theta_Exp,3.0.7,60.02447798682847,
video/Experiment/zh_sp01_Ti_Gr_2_NVocInAudio_GlobalThetaInVideo.avi,vocoded,plusVideo,sp01,Ti,Gr,2,0,1,flow/blocks/NVocInAudio_GlobalThetaInVideo_B.csv,,,,,,,,,,,,,,,,,0,0,0,0,0,5,5,21,-0.42453703703703705,-0.11018518518518519,1,0,0,5.9953562000300735,call3,-0.026851851851851852,0.16712962962962963,1,0,0,7.018535700044595,colour2,0.44074074074074077,0.07268518518518519,1,0,0,7.6877675000578165,number2,True,True,True,31,1,2019_Nov_18_1457,MA_Theta_Exp,3.0.7,60.02447798682847,
video/Experiment/zh_sp07_Dr_Ro_3_NVocInAudio_GlobalThetaInVideo.avi,vocoded,plusVideo,sp07,Dr,Ro,3,0,1,flow/blocks/NVocInAudio_GlobalThetaInVideo_B.csv,,,,,,,,,,,,,,,,,0,0,0,0,0,6,6,26,-0.4546296296296296,0.09583333333333334,1,0,0,4.798451800015755,call2,-0.06435185185185185,-0.09583333333333334,1,0,0,5.964944600011222,colour3,0.4023148148148148,-0.08935185185185185,1,0,0,6.668405600008555,number3,True,True,True,31,1,2019_Nov_18_1457,MA_Theta_Exp,3.0.7,60.02447798682847,
video/Experiment/zh_sp01_Ad_Ro_3_NVocInAudio_GlobalThetaInVideo.avi,vocoded,plusVideo,sp01,Ad,Ro,3,0,1,flow/blocks/NVocInAudio_GlobalThetaInVideo_B.csv,,,,,,,,,,,,,,,,,0,0,0,0,0,7,7,10,-0.3287037037037037,0.26296296296296295,1,0,0,5.662363700103015,call1,0.0824074074074074,-0.10092592592592593,1,0,0,6.403791300021112,colour3,0.3962962962962963,-0.07685185185185185,1,0,0,7.150883399997838,number3,True,True,True,31,1,2019_Nov_18_1457,MA_Theta_Exp,3.0.7,60.02447798682847,
video/Experiment/zh_sp07_Un_Ro_2_NVocInAudio_GlobalThetaInVideo.avi,vocoded,plusVideo,sp07,Un,Ro,2,0,1,flow/blocks/NVocInAudio_GlobalThetaInVideo_B.csv,,,,,,,,,,,,,,,,,0,0,0,0,0,8,8,9,-0.3597222222222222,-0.3138888888888889,1,0,0,4.706324200029485,call4,-0.016666666666666666,-0.15555555555555556,1,0,0,5.5205988000379875,colour3,0.3773148148148148,0.1050925925925926,1,0,0,6.269210000056773,number2,True,True,True,31,1,2019_Nov_18_1457,MA_Theta_Exp,3.0.7,60.02447798682847,
video/Experiment/zh_sp01_Ad_Ge_3_NVocInAudio_GlobalThetaInVideo.avi,vocoded,plusVideo,sp01,Ad,Ge,3,0,1,flow/blocks/NVocInAudio_GlobalThetaInVideo_B.csv,,,,,,,,,,,,,,,,,0,0,0,0,0,9,9,18,-0.3277777777777778,0.27824074074074073,1,0,0,5.521086899912916,call1,0.027777777777777776,0.2726851851851852,1,0,0,6.188004199997522,colour1,0.375,-0.07777777777777778,1,0,0,7.116646400070749,number3,True,True,True,31,1,2019_Nov_18_1457,MA_Theta_Exp,3.0.7,60.02447798682847,
video/Experiment/zh_sp01_Ad_Gr_4_NVocInAudio_GlobalThetaInVideo.avi,vocoded,plusVideo,sp01,Ad,Gr,4,0,1,flow/blocks/NVocInAudio_GlobalThetaInVideo_B.csv,,,,,,,,,,,,,,,,,0,0,0,0,0,10,10,7,-0.4513888888888889,0.33564814814814814,1,0,0,5.6119397999718785,call1,-0.012962962962962963,0.09861111111111111,1,0,0,6.472163500031456,colour2,0.3972222222222222,-0.30787037037037035,1,0,0,7.389192899921909,number4,True,True,True,31,1,2019_Nov_18_1457,MA_Theta_Exp,3.0.7,60.02447798682847,
video/Experiment/zh_sp01_Ti_Ro_4_NVocInAudio_GlobalThetaInVideo.avi,vocoded,plusVideo,sp01,Ti,Ro,4,0,1,flow/blocks/NVocInAudio_GlobalThetaInVideo_B.csv,,,,,,,,,,,,,,,,,0,0,0,0,0,11,11,11,-0.4009259259259259,-0.15648148148148147,1,0,0,5.671661700005643,call3,-0.03935185185185185,-0.09537037037037037,1,0,0,6.31848939997144,colour3,0.3819444444444444,-0.23935185185185184,1,0,0,7.065316700027324,number4,True,True,True,31,1,2019_Nov_18_1457,MA_Theta_Exp,3.0.7,60.02447798682847,
video/Experiment/zh_sp07_Dr_Gr_1_NVocInAudio_GlobalThetaInVideo.avi,vocoded,plusVideo,sp07,Dr,Gr,1,0,1,flow/blocks/NVocInAudio_GlobalThetaInVideo_B.csv,,,,,,,,,,,,,,,,,0,0,0,0,0,12,12,20,-0.3287037037037037,0.0787037037037037,1,0,0,5.174453100073151,call2,-0.06574074074074074,0.08333333333333333,1,0,0,5.826292100013234,colour2,0.3972222222222222,0.2675925925925926,1,0,0,6.828842499991879,number1,True,True,True,31,1,2019_Nov_18_1457,MA_Theta_Exp,3.0.7,60.02447798682847,
video/Experiment/zh_sp07_Dr_We_4_NVocInAudio_GlobalThetaInVideo.avi,vocoded,plusVideo,sp07,Dr,We,4,0,1,flow/blocks/NVocInAudio_GlobalThetaInVideo_B.csv,,,,,,,,,,,,,,,,,0,0,0,0,0,13,13,15,-0.34444444444444444,0.09166666666666666,1,0,0,5.232033299980685,call2,0.011111111111111112,-0.33287037037037037,1,0,0,5.959519999916665,colour4,0.35648148148148145,-0.3347222222222222,1,0,0,6.75219970010221,number4,True,True,True,31,1,2019_Nov_18_1457,MA_Theta_Exp,3.0.7,60.02447798682847,
video/Experiment/zh_sp07_Ti_Ro_1_NVocInAudio_GlobalThetaInVideo.avi,vocoded,plusVideo,sp07,Ti,Ro,1,0,1,flow/blocks/NVocInAudio_GlobalThetaInVideo_B.csv,,,,,,,,,,,,,,,,,0,0,0,0,0,14,14,8,-0.36712962962962964,-0.16944444444444445,1,0,0,5.092833900009282,call3,-0.01574074074074074,-0.09537037037037037,1,0,0,6.313413699972443,colour3,0.3939814814814815,0.2935185185185185,1,0,0,7.18520529998932,number1,True,True,True,31,1,2019_Nov_18_1457,MA_Theta_Exp,3.0.7,60.02447798682847,
video/Experiment/zh_sp01_Ti_We_3_NVocInAudio_GlobalThetaInVideo.avi,vocoded,plusVideo,sp01,Ti,We,3,0,1,flow/blocks/NVocInAudio_GlobalThetaInVideo_B.csv,,,,,,,,,,,,,,,,,0,0,0,0,0,15,15,30,-0.43148148148148147,-0.08425925925925926,1,0,0,5.461349099990912,call3,-0.0125,-0.29768518518518516,1,0,0,6.378640199895017,colour4,0.37824074074074077,-0.1037037037037037,1,0,0,7.160678300075233,number3,True,True,True,31,1,2019_Nov_18_1457,MA_Theta_Exp,3.0.7,60.02447798682847,
video/Experiment/zh_sp07_Ti_We_1_NVocInAudio_GlobalThetaInVideo.avi,vocoded,plusVideo,sp07,Ti,We,1,0,1,flow/blocks/NVocInAudio_GlobalThetaInVideo_B.csv,,,,,,,,,,,,,,,,,0,0,0,0,0,16,16,12,-0.37407407407407406,-0.09722222222222222,1,0,0,4.734664699994028,call3,-0.000925925925925926,-0.3162037037037037,1,0,0,5.587184399948455,colour4,0.4097222222222222,0.29583333333333334,1,0,0,6.562550099915825,number1,True,True,True,31,1,2019_Nov_18_1457,MA_Theta_Exp,3.0.7,60.02447798682847,
video/Experiment/zh_sp07_Ti_We_2_NVocInAudio_GlobalThetaInVideo.avi,vocoded,plusVideo,sp07,Ti,We,2,0,1,flow/blocks/NVocInAudio_GlobalThetaInVideo_B.csv,,,,,,,,,,,,,,,,,0,0,0,0,0,17,17,29,-0.36157407407407405,-0.026851851851851852,1,0,0,5.037262600031681,call3,-0.017592592592592594,-0.31203703703703706,1,0,0,5.99105640000198,colour4,0.3625,0.08194444444444444,1,0,0,6.840656299958937,number2,True,True,True,31,1,2019_Nov_18_1457,MA_Theta_Exp,3.0.7,60.02447798682847,
video/Experiment/zh_sp07_Ad_Ro_2_NVocInAudio_GlobalThetaInVideo.avi,vocoded,plusVideo,sp07,Ad,Ro,2,0,1,flow/blocks/NVocInAudio_GlobalThetaInVideo_B.csv,,,,,,,,,,,,,,,,,0,0,0,0,0,18,18,25,-0.3819444444444444,0.29444444444444445,1,0,0,5.4295085000339895,call1,-0.002777777777777778,-0.0787037037037037,1,0,0,7.73043679993134,colour3,0.42314814814814816,0.06944444444444445,1,0,0,8.475590799935162,number2,True,True,True,31,1,2019_Nov_18_1457,MA_Theta_Exp,3.0.7,60.02447798682847,
video/Experiment/zh_sp07_Dr_We_3_NVocInAudio_GlobalThetaInVideo.avi,vocoded,plusVideo,sp07,Dr,We,3,0,1,flow/blocks/NVocInAudio_GlobalThetaInVideo_B.csv,,,,,,,,,,,,,,,,,0,0,0,0,0,19,19,14,-0.3527777777777778,0.08657407407407407,1,0,0,4.609504600055516,call2,-0.06111111111111111,-0.2611111111111111,1,0,0,5.509205600013956,colour4,0.35324074074074074,-0.1050925925925926,1,0,0,6.270220899954438,number3,True,True,True,31,1,2019_Nov_18_1457,MA_Theta_Exp,3.0.7,60.02447798682847,
video/Experiment/zh_sp01_Un_Gr_4_NVocInAudio_GlobalThetaInVideo.avi,vocoded,plusVideo,sp01,Un,Gr,4,0,1,flow/blocks/NVocInAudio_GlobalThetaInVideo_B.csv,,,,,,,,,,,,,,,,,0,0,0,0,0,20,20,23,-0.4412037037037037,-0.29212962962962963,1,0,0,5.608968799933791,call4,-0.047685185185185185,0.09259259259259259,1,0,0,6.425067299976945,colour2,0.38842592592592595,-0.26481481481481484,1,0,0,7.463338700006716,number4,True,True,True,31,1,2019_Nov_18_1457,MA_Theta_Exp,3.0.7,60.02447798682847,
video/Experiment/zh_sp01_Ti_Gr_3_NVocInAudio_GlobalThetaInVideo.avi,vocoded,plusVideo,sp01,Ti,Gr,3,0,1,flow/blocks/NVocInAudio_GlobalThetaInVideo_B.csv,,,,,,,,,,,,,,,,,0,0,0,0,0,21,21,22,-0.41712962962962963,-0.05277777777777778,1,0,0,5.662257599993609,call3,0.007407407407407408,0.06620370370370371,1,0,0,7.0552823999896646,colour2,0.40370370370370373,-0.11574074074074074,1,0,0,7.867845900007524,number3,True,True,True,31,1,2019_Nov_18_1457,MA_Theta_Exp,3.0.7,60.02447798682847,
video/Experiment/zh_sp01_Un_Ge_1_NVocInAudio_GlobalThetaInVideo.avi,vocoded,plusVideo,sp01,Un,Ge,1,0,1,flow/blocks/NVocInAudio_GlobalThetaInVideo_B.csv,,,,,,,,,,,,,,,,,0,0,0,0,0,22,22,0,-0.40555555555555556,-0.26157407407407407,1,0,0,5.433884900063276,call4,-0.001851851851851852,0.28194444444444444,1,0,0,7.118273600004613,colour1,0.36203703703703705,0.3675925925925926,1,0,0,7.916199199971743,number1,True,True,True,31,1,2019_Nov_18_1457,MA_Theta_Exp,3.0.7,60.02447798682847,
video/Experiment/zh_sp07_Un_Ge_4_NVocInAudio_GlobalThetaInVideo.avi,vocoded,plusVideo,sp07,Un,Ge,4,0,1,flow/blocks/NVocInAudio_GlobalThetaInVideo_B.csv,,,,,,,,,,,,,,,,,0,0,0,0,0,23,23,19,-0.4361111111111111,-0.21342592592592594,1,0,0,5.32457030005753,call4,0.027314814814814816,0.2611111111111111,1,0,0,7.529210700071417,colour1,0.3648148148148148,-0.2773148148148148,1,0,0,9.019715399947017,number4,True,True,True,31,1,2019_Nov_18_1457,MA_Theta_Exp,3.0.7,60.02447798682847,
video/Experiment/zh_sp01_Dr_Ro_1_NVocInAudio_GlobalThetaInVideo.avi,vocoded,plusVideo,sp01,Dr,Ro,1,0,1,flow/blocks/NVocInAudio_GlobalThetaInVideo_B.csv,,,,,,,,,,,,,,,,,0,0,0,0,0,24,24,24,-0.32175925925925924,0.11574074074074074,1,0,0,5.63219510007184,call2,-0.007407407407407408,-0.1310185185185185,1,0,0,6.914953100029379,colour3,0.38425925925925924,0.350462962962963,1,0,0,8.299468900077045,number1,True,True,True,31,1,2019_Nov_18_1457,MA_Theta_Exp,3.0.7,60.02447798682847,
video/Experiment/zh_sp07_Ad_Ge_1_NVocInAudio_GlobalThetaInVideo.avi,vocoded,plusVideo,sp07,Ad,Ge,1,0,1,flow/blocks/NVocInAudio_GlobalThetaInVideo_B.csv,,,,,,,,,,,,,,,,,0,0,0,0,0,25,25,16,-0.3490740740740741,0.30972222222222223,1,0,0,5.150419600075111,call1,-0.004166666666666667,0.287962962962963,1,0,0,5.870503499987535,colour1,0.49907407407407406,0.30925925925925923,1,0,0,6.765880599967204,number1,True,True,True,31,1,2019_Nov_18_1457,MA_Theta_Exp,3.0.7,60.02447798682847,
video/Experiment/zh_sp01_Ti_Gr_1_NVocInAudio_GlobalThetaInVideo.avi,vocoded,plusVideo,sp01,Ti,Gr,1,0,1,flow/blocks/NVocInAudio_GlobalThetaInVideo_B.csv,,,,,,,,,,,,,,,,,0,0,0,0,0,26,26,4,-0.3921296296296296,-0.1162037037037037,1,0,0,5.543265599990264,call3,0.024074074074074074,0.13287037037037036,1,0,0,6.587807799922302,colour2,0.4375,0.31296296296296294,1,0,0,7.418863500002772,number1,True,True,True,31,1,2019_Nov_18_1457,MA_Theta_Exp,3.0.7,60.02447798682847,
video/Experiment/zh_sp07_Dr_Ge_2_NVocInAudio_GlobalThetaInVideo.avi,vocoded,plusVideo,sp07,Dr,Ge,2,0,1,flow/blocks/NVocInAudio_GlobalThetaInVideo_B.csv,,,,,,,,,,,,,,,,,0,0,0,0,0,27,27,17,-0.3837962962962963,0.1125,1,0,0,4.9012911999598145,call2,0.005092592592592593,0.3263888888888889,1,0,0,5.804769799928181,colour1,0.3976851851851852,0.12314814814814815,1,0,0,6.603063900023699,number2,True,True,True,31,1,2019_Nov_18_1457,MA_Theta_Exp,3.0.7,60.02447798682847,
video/Experiment/zh_sp07_Un_Gr_3_NVocInAudio_GlobalThetaInVideo.avi,vocoded,plusVideo,sp07,Un,Gr,3,0,1,flow/blocks/NVocInAudio_GlobalThetaInVideo_B.csv,,,,,,,,,,,,,,,,,0,0,0,0,0,28,28,6,-0.399537037037037,-0.2625,1,0,0,4.785131699987687,call4,-0.01574074074074074,0.10555555555555556,1,0,0,5.623335400014184,colour2,0.4476851851851852,-0.12175925925925926,1,0,0,6.670762100024149,number3,True,True,True,31,1,2019_Nov_18_1457,MA_Theta_Exp,3.0.7,60.02447798682847,
video/Experiment/zh_sp01_Dr_We_1_NVocInAudio_GlobalThetaInVideo.avi,vocoded,plusVideo,sp01,Dr,We,1,0,1,flow/blocks/NVocInAudio_GlobalThetaInVideo_B.csv,,,,,,,,,,,,,,,,,0,0,0,0,0,29,29,28,-0.3907407407407407,0.06435185185185185,1,0,0,5.706526699941605,call2,-0.05277777777777778,-0.35694444444444445,1,0,0,6.571699399966747,colour4,0.4060185185185185,0.34814814814814815,1,0,0,7.418501100037247,number1,True,True,True,31,1,2019_Nov_18_1457,MA_Theta_Exp,3.0.7,60.02447798682847,
video/Experiment/zh_sp01_Ad_Ge_4_NVocInAudio_GlobalThetaInVideo.avi,vocoded,plusVideo,sp01,Ad,Ge,4,0,1,flow/blocks/NVocInAudio_GlobalThetaInVideo_B.csv,,,,,,,,,,,,,,,,,0,0,0,0,0,30,30,3,-0.35462962962962963,0.2902777777777778,1,0,0,5.695628399960697,call1,0.011111111111111112,0.31666666666666665,1,0,0,8.765948600019328,colour1,0.3625,-0.24305555555555555,1,0,0,10.400504700024612,number4,True,True,True,31,1,2019_Nov_18_1457,MA_Theta_Exp,3.0.7,60.02447798682847,
video/Experiment/zh_sp01_Un_Ro_4_NVocInAudio_GlobalThetaInVideo.avi,vocoded,plusVideo,sp01,Un,Ro,4,0,1,flow/blocks/NVocInAudio_GlobalThetaInVideo_B.csv,,,,,,,,,,,,,,,,,0,0,0,0,0,31,31,27,-0.36342592592592593,-0.35648148148148145,1,0,0,5.959244699915871,call4,-0.031018518518518518,-0.15694444444444444,1,0,0,7.239808700047433,colour3,0.3685185185185185,-0.30648148148148147,1,0,0,8.06142619997263,number4,True,True,True,31,1,2019_Nov_18_1457,MA_Theta_Exp,3.0.7,60.02447798682847,
video/Experiment/zh_sp07_Ti_Gr_4_NoThetaInAudio_NoVideo.avi,noTheta,noVideo,sp07,Ti,Gr,4,1,4,flow/blocks/NoThetaInAudio_NoVideo_A.csv,,,,,,,,,,,,,,,,,0,1,1,1,0,0,0,7,-0.37546296296296294,-0.09027777777777778,1,0,0,5.536067600012757,call3,-0.01990740740740741,0.12268518518518519,1,0,0,6.195787400007248,colour2,0.34629629629629627,-0.2814814814814815,1,0,0,6.986236199969426,number4,True,True,True,31,1,2019_Nov_18_1457,MA_Theta_Exp,3.0.7,60.02447798682847,
video/Experiment/zh_sp07_Ad_Ro_4_NoThetaInAudio_NoVideo.avi,noTheta,noVideo,sp07,Ad,Ro,4,1,4,flow/blocks/NoThetaInAudio_NoVideo_A.csv,,,,,,,,,,,,,,,,,0,1,1,1,0,1,1,11,-0.33055555555555555,0.2814814814814815,1,0,0,4.969527599983849,call1,0.004166666666666667,-0.12083333333333333,1,0,0,6.005169899901375,colour3,0.39351851851851855,-0.2847222222222222,1,0,0,6.844056300004013,number4,True,True,True,31,1,2019_Nov_18_1457,MA_Theta_Exp,3.0.7,60.02447798682847,
video/Experiment/zh_sp01_Dr_Gr_3_NoThetaInAudio_NoVideo.avi,noTheta,noVideo,sp01,Dr,Gr,3,1,4,flow/blocks/NoThetaInAudio_NoVideo_A.csv,,,,,,,,,,,,,,,,,0,1,1,1,0,2,2,6,-0.36712962962962964,0.1087962962962963,1,0,0,5.458803700050339,call2,-0.06157407407407407,0.09444444444444444,1,0,0,6.123921999940649,colour2,0.4,-0.052314814814814814,1,0,0,7.030929000000469,number3,True,True,True,31,1,2019_Nov_18_1457,MA_Theta_Exp,3.0.7,60.02447798682847,
video/Experiment/zh_sp07_Ti_Ro_3_NoThetaInAudio_NoVideo.avi,noTheta,noVideo,sp07,Ti,Ro,3,1,4,flow/blocks/NoThetaInAudio_NoVideo_A.csv,,,,,,,,,,,,,,,,,0,1,1,1,0,3,3,10,-0.35648148148148145,-0.10648148148148148,1,0,0,4.854497599997558,call3,-0.050462962962962966,-0.06944444444444445,1,0,0,5.6150167000014335,colour3,0.3837962962962963,-0.1125,1,0,0,6.496433799969964,number3,True,True,True,31,1,2019_Nov_18_1457,MA_Theta_Exp,3.0.7,60.02447798682847,
video/Experiment/zh_sp01_Un_Ro_3_NoThetaInAudio_NoVideo.avi,noTheta,noVideo,sp01,Un,Ro,3,1,4,flow/blocks/NoThetaInAudio_NoVideo_A.csv,,,,,,,,,,,,,,,,,0,1,1,1,0,4,4,26,-0.3861111111111111,0.08194444444444444,1,0,0,5.671514099929482,call2,-0.009722222222222222,-0.11018518518518519,1,0,0,6.548572500003502,colour3,0.3402777777777778,-0.10462962962962963,1,0,0,7.553473900072277,number3,False,True,True,31,1,2019_Nov_18_1457,MA_Theta_Exp,3.0.7,60.02447798682847,
video/Experiment/zh_sp07_Dr_Ge_4_NoThetaInAudio_NoVideo.avi,noTheta,noVideo,sp07,Dr,Ge,4,1,4,flow/blocks/NoThetaInAudio_NoVideo_A.csv,,,,,,,,,,,,,,,,,0,1,1,1,0,5,5,19,-0.3578703703703704,0.2759259259259259,1,0,0,4.791611599968746,call1,0.07222222222222222,0.34305555555555556,1,0,0,5.423616699990816,colour1,0.42453703703703705,-0.3486111111111111,1,0,0,6.4597142999991775,number4,False,True,True,31,1,2019_Nov_18_1457,MA_Theta_Exp,3.0.7,60.02447798682847,
video/Experiment/zh_sp07_Ti_Ge_2_NoThetaInAudio_NoVideo.avi,noTheta,noVideo,sp07,Ti,Ge,2,1,4,flow/blocks/NoThetaInAudio_NoVideo_A.csv,,,,,,,,,,,,,,,,,0,1,1,1,0,6,6,1,-0.42592592592592593,-0.11712962962962963,1,0,0,4.697367799934,call3,0.06712962962962964,0.30648148148148147,1,0,0,5.824351500021294,colour1,0.37037037037037035,0.11712962962962963,1,0,0,6.56157580006402,number2,True,True,True,31,1,2019_Nov_18_1457,MA_Theta_Exp,3.0.7,60.02447798682847,
video/Experiment/zh_sp07_Dr_Gr_2_NoThetaInAudio_NoVideo.avi,noTheta,noVideo,sp07,Dr,Gr,2,1,4,flow/blocks/NoThetaInAudio_NoVideo_A.csv,,,,,,,,,,,,,,,,,0,1,1,1,0,7,7,5,-0.4,0.07453703703703704,1,0,0,4.63691169989761,call2,0.05277777777777778,0.10185185185185185,1,0,0,5.770509400055744,colour2,0.4305555555555556,0.13657407407407407,1,0,0,6.470745600061491,number2,True,True,True,31,1,2019_Nov_18_1457,MA_Theta_Exp,3.0.7,60.02447798682847,
video/Experiment/zh_sp01_Ad_We_1_NoThetaInAudio_NoVideo.avi,noTheta,noVideo,sp01,Ad,We,1,1,4,flow/blocks/NoThetaInAudio_NoVideo_A.csv,,,,,,,,,,,,,,,,,0,1,1,1,0,8,8,12,-0.33055555555555555,0.2712962962962963,1,0,0,5.451319299987517,call1,-0.01574074074074074,-0.29398148148148145,1,0,0,6.446406499948353,colour4,0.41944444444444445,0.3296296296296296,1,0,0,7.4815879999659956,number1,True,True,True,31,1,2019_Nov_18_1457,MA_Theta_Exp,3.0.7,60.02447798682847,
video/Experiment/zh_sp01_Dr_We_2_NoThetaInAudio_NoVideo.avi,noTheta,noVideo,sp01,Dr,We,2,1,4,flow/blocks/NoThetaInAudio_NoVideo_A.csv,,,,,,,,,,,,,,,,,0,1,1,1,0,9,9,13,-0.38287037037037036,0.14675925925925926,1,0,0,5.48185400001239,call2,0.026851851851851852,-0.27824074074074073,1,0,0,6.449190399958752,colour4,0.4513888888888889,0.075,1,0,0,7.461363099981099,number2,True,True,True,31,1,2019_Nov_18_1457,MA_Theta_Exp,3.0.7,60.02447798682847,
video/Experiment/zh_sp01_Ad_We_3_NoThetaInAudio_NoVideo.avi,noTheta,noVideo,sp01,Ad,We,3,1,4,flow/blocks/NoThetaInAudio_NoVideo_A.csv,,,,,,,,,,,,,,,,,0,1,1,1,0,10,10,30,-0.3638888888888889,0.2777777777777778,1,0,0,5.177913299994543,call1,0.06527777777777778,-0.36574074074074076,1,0,0,5.998226399999112,colour4,0.40046296296296297,-0.11018518518518519,1,0,0,6.8258591999765486,number3,True,True,True,31,1,2019_Nov_18_1457,MA_Theta_Exp,3.0.7,60.02447798682847,
video/Experiment/zh_sp07_Un_Ge_2_NoThetaInAudio_NoVideo.avi,noTheta,noVideo,sp07,Un,Ge,2,1,4,flow/blocks/NoThetaInAudio_NoVideo_A.csv,,,,,,,,,,,,,,,,,0,1,1,1,0,11,11,17,-0.37083333333333335,0.2851851851851852,1,0,0,4.7319193000439554,call1,-0.01574074074074074,-0.27685185185185185,1,0,0,6.895436899969354,colour4,0.4263888888888889,0.1259259259259259,1,0,0,7.697723399964161,number2,False,False,True,31,1,2019_Nov_18_1457,MA_Theta_Exp,3.0.7,60.02447798682847,
