videoFile,condition,video,speaker,callSign,colour,number,seq,id,block,exp.thisRepN,exp.thisTrialN,exp.thisN,exp.thisIndex,training.thisRepN,training.thisTrialN,training.thisN,training.thisIndex,firstHalf.thisRepN,firstHalf.thisTrialN,firstHalf.thisN,firstHalf.thisIndex,blocksA.thisRepN,blocksA.thisTrialN,blocksA.thisN,blocksA.thisIndex,secondHalf.thisRepN,secondHalf.thisTrialN,secondHalf.thisN,secondHalf.thisIndex,blocksB.thisRepN,blocksB.thisTrialN,blocksB.thisN,blocksB.thisIndex,mouseClickOnCall.x,mouseClickOnCall.y,mouseClickOnCall.leftButton,mouseClickOnCall.midButton,mouseClickOnCall.rightButton,mouseClickOnCall.time,mouseClickOnCall.clicked_name,mouseClickOnColour.x,mouseClickOnColour.y,mouseClickOnColour.leftButton,mouseClickOnColour.midButton,mouseClickOnColour.rightButton,mouseClickOnColour.time,mouseClickOnColour.clicked_name,mouseClickOnNumber.x,mouseClickOnNumber.y,mouseClickOnNumber.leftButton,mouseClickOnNumber.midButton,mouseClickOnNumber.rightButton,mouseClickOnNumber.time,mouseClickOnNumber.clicked_name,callSignCorrect,colourCorrect,numberCorrect,participant,order,date,expName,psychopyVersion,frameRate,
video/Training/zh_sp01_Ad_We_4_NVocInAudio_NoVideo.avi,vocoded,noVideo,sp01,Ad,We,4,,,,,,,,0,0,0,0,,,,,,,,,,,,,,,,,-0.37824074074074077,0.3375,1,0,0,5.752087300061248,call1,0.00787037037037037,-0.325,1,0,0,6.709984200075269,colour4,0.38981481481481484,-0.2763888888888889,1,0,0,7.440762700047344,number4,True,True,True,32,2,2019_Nov_18_1600,MA_Theta_Exp,3.0.7,59.98037442566704,
video/Training/zh_sp07_Ad_Ge_3_NVocInAudio_NoVideo.avi,vocoded,noVideo,sp07,Ad,Ge,3,,,,,,,,0,1,1,1,,,,,,,,,,,,,,,,,-0.34629629629629627,0.2902777777777778,1,0,0,5.492359699914232,call1,-0.02962962962962963,0.3277777777777778,1,0,0,6.142160000046715,colour1,0.4023148148148148,-0.07777777777777778,1,0,0,7.177952600060962,number3,True,True,True,32,2,2019_Nov_18_1600,MA_Theta_Exp,3.0.7,59.98037442566704,
video/Training/zh_sp01_Dr_Ro_3_NVocInAudio_GlobalThetaInVideo.avi,vocoded,plusVideo,sp01,Dr,Ro,3,,,,,,,,0,2,2,2,,,,,,,,,,,,,,,,,-0.4115740740740741,0.09722222222222222,1,0,0,5.412463100044988,call2,0.04537037037037037,-0.11944444444444445,1,0,0,6.0235152000095695,colour3,0.3912037037037037,-0.05138888888888889,1,0,0,6.774288899963722,number3,True,True,True,32,2,2019_Nov_18_1600,MA_Theta_Exp,3.0.7,59.98037442566704,
video/Training/zh_sp07_Dr_Gr_4_NVocInAudio_GlobalThetaInVideo.avi,vocoded,plusVideo,sp07,Dr,Gr,4,,,,,,,,0,3,3,3,,,,,,,,,,,,,,,,,-0.38935185185185184,0.14027777777777778,1,0,0,6.6142256000312045,call2,0.014814814814814815,0.12638888888888888,1,0,0,7.413572799996473,colour2,0.39537037037037037,-0.33194444444444443,1,0,0,8.068418900016695,number4,True,True,True,32,2,2019_Nov_18_1600,MA_Theta_Exp,3.0.7,59.98037442566704,
video/Training/zh_sp01_Ti_Gr_2_NoThetaInAudio_NoVideo.avi,noTheta,noVideo,sp01,Ti,Gr,2,,,,,,,,0,4,4,4,,,,,,,,,,,,,,,,,-0.41435185185185186,0.3388888888888889,1,0,0,6.033530000015162,call1,0.06620370370370371,0.07083333333333333,1,0,0,7.24821659992449,colour2,0.4287037037037037,0.10555555555555556,1,0,0,8.184424199978821,number2,False,True,True,32,2,2019_Nov_18_1600,MA_Theta_Exp,3.0.7,59.98037442566704,
video/Training/zh_sp07_Ti_Ro_1_NoThetaInAudio_NoVideo.avi,noTheta,noVideo,sp07,Ti,Ro,1,,,,,,,,0,5,5,5,,,,,,,,,,,,,,,,,-0.3699074074074074,0.26666666666666666,1,0,0,4.776759099913761,call1,-0.026851851851851852,-0.05555555555555555,1,0,0,5.3983969000400975,colour3,0.3439814814814815,0.31527777777777777,1,0,0,6.215457700076513,number1,False,True,True,32,2,2019_Nov_18_1600,MA_Theta_Exp,3.0.7,59.98037442566704,
video/Training/zh_sp01_Un_Ge_1_NoThetaInAudio_GlobalThetaInVideo.avi,noTheta,plusVideo,sp01,Un,Ge,1,,,,,,,,0,6,6,6,,,,,,,,,,,,,,,,,-0.3962962962962963,0.30277777777777776,1,0,0,7.675262899952941,call1,0.016203703703703703,-0.09166666666666666,1,0,0,9.475445399992168,colour3,0.3925925925925926,0.33611111111111114,1,0,0,10.226652499986812,number1,False,False,True,32,2,2019_Nov_18_1600,MA_Theta_Exp,3.0.7,59.98037442566704,
video/Training/zh_sp07_Un_We_2_NoThetaInAudio_GlobalThetaInVideo.avi,noTheta,plusVideo,sp07,Un,We,2,,,,,,,,0,7,7,7,,,,,,,,,,,,,,,,,-0.38101851851851853,-0.10555555555555556,1,0,0,5.276446699979715,call3,0.053703703703703705,-0.06527777777777778,1,0,0,6.5379756999900565,colour3,0.40370370370370373,0.3194444444444444,1,0,0,7.336729799979366,number1,False,False,False,32,2,2019_Nov_18_1600,MA_Theta_Exp,3.0.7,59.98037442566704,
video/Training/zh_sp01_Ad_Ge_1_GlobalTheta_NoVideo.avi,globalTheta,noVideo,sp01,Ad,Ge,1,,,,,,,,0,8,8,8,,,,,,,,,,,,,,,,,-0.3726851851851852,0.2916666666666667,1,0,0,5.977080799988471,call1,-0.021296296296296296,0.12083333333333333,1,0,0,6.478112200042233,colour2,0.4050925925925926,0.12222222222222222,1,0,0,7.196483199950308,number2,True,False,False,32,2,2019_Nov_18_1600,MA_Theta_Exp,3.0.7,59.98037442566704,
video/Training/zh_sp07_Ad_Ro_3_GlobalTheta_NoVideo.avi,globalTheta,noVideo,sp07,Ad,Ro,3,,,,,,,,0,9,9,9,,,,,,,,,,,,,,,,,-0.3351851851851852,0.09722222222222222,1,0,0,4.542710500070825,call2,0.06898148148148148,-0.08333333333333333,1,0,0,5.693559400038794,colour3,0.38842592592592595,0.11944444444444445,1,0,0,6.223591499961913,number2,False,True,False,32,2,2019_Nov_18_1600,MA_Theta_Exp,3.0.7,59.98037442566704,
video/Experiment/zh_sp01_Dr_Ro_4_NoThetaInAudio_GlobalThetaInVideo.avi,noTheta,plusVideo,sp01,Dr,Ro,4,0,3,flow/blocks/NoThetaInAudio_GlobalThetaInVideo_A.csv,,,,,,,,,0,0,0,0,0,0,0,27,,,,,,,,,-0.3699074074074074,0.2902777777777778,1,0,0,5.172685700003058,call1,0.028703703703703703,-0.11666666666666667,1,0,0,6.422347199986689,colour3,0.41203703703703703,-0.3375,1,0,0,7.1058051999425516,number4,False,True,True,32,2,2019_Nov_18_1600,MA_Theta_Exp,3.0.7,59.98037442566704,
video/Experiment/zh_sp07_Ti_Ge_2_NoThetaInAudio_GlobalThetaInVideo.avi,noTheta,plusVideo,sp07,Ti,Ge,2,0,3,flow/blocks/NoThetaInAudio_GlobalThetaInVideo_A.csv,,,,,,,,,0,0,0,0,0,1,1,1,,,,,,,,,-0.4074074074074074,-0.28194444444444444,1,0,0,4.826410800102167,call4,0.02175925925925926,0.3138888888888889,1,0,0,5.947859300067648,colour1,0.4564814814814815,0.10138888888888889,1,0,0,6.719455000013113,number2,False,True,True,32,2,2019_Nov_18_1600,MA_Theta_Exp,3.0.7,59.98037442566704,
video/Experiment/zh_sp01_Ad_Gr_2_NoThetaInAudio_GlobalThetaInVideo.avi,noTheta,plusVideo,sp01,Ad,Gr,2,0,3,flow/blocks/NoThetaInAudio_GlobalThetaInVideo_A.csv,,,,,,,,,0,0,0,0,0,2,2,21,,,,,,,,,-0.3726851851851852,0.2791666666666667,1,0,0,5.075673299957998,call1,0.060648148148148145,0.13472222222222222,1,0,0,5.864939799997956,colour2,0.4439814814814815,0.13055555555555556,1,0,0,6.59424200002104,number2,True,True,True,32,2,2019_Nov_18_1600,MA_Theta_Exp,3.0.7,59.98037442566704,
video/Experiment/zh_sp07_Dr_Ro_2_NoThetaInAudio_GlobalThetaInVideo.avi,noTheta,plusVideo,sp07,Dr,Ro,2,0,3,flow/blocks/NoThetaInAudio_GlobalThetaInVideo_A.csv,,,,,,,,,0,0,0,0,0,3,3,9,,,,,,,,,-0.4185185185185185,0.1375,1,0,0,4.884654699941166,call2,-0.000462962962962963,-0.0875,1,0,0,5.5688681999454275,colour3,0.337037037037037,0.10694444444444444,1,0,0,6.301910899928771,number2,True,True,True,32,2,2019_Nov_18_1600,MA_Theta_Exp,3.0.7,59.98037442566704,
video/Experiment/zh_sp01_Un_Ro_3_NoThetaInAudio_GlobalThetaInVideo.avi,noTheta,plusVideo,sp01,Un,Ro,3,0,3,flow/blocks/NoThetaInAudio_GlobalThetaInVideo_A.csv,,,,,,,,,0,0,0,0,0,4,4,26,,,,,,,,,-0.40879629629629627,0.13194444444444445,1,0,0,5.783304800046608,call2,0.05092592592592592,-0.1111111111111111,1,0,0,6.745425799977966,colour3,0.3800925925925926,-0.1,1,0,0,7.349844999960624,number3,False,True,True,32,2,2019_Nov_18_1600,MA_Theta_Exp,3.0.7,59.98037442566704,
video/Experiment/zh_sp07_Dr_Gr_2_NoThetaInAudio_GlobalThetaInVideo.avi,noTheta,plusVideo,sp07,Dr,Gr,2,0,3,flow/blocks/NoThetaInAudio_GlobalThetaInVideo_A.csv,,,,,,,,,0,0,0,0,0,5,5,5,,,,,,,,,-0.38657407407407407,0.08055555555555556,1,0,0,5.189433900057338,call2,0.006481481481481481,-0.0875,1,0,0,5.851507700048387,colour3,0.3592592592592593,0.0763888888888889,1,0,0,6.3709655000129715,number2,True,False,True,32,2,2019_Nov_18_1600,MA_Theta_Exp,3.0.7,59.98037442566704,
video/Experiment/zh_sp01_Dr_Gr_3_NoThetaInAudio_GlobalThetaInVideo.avi,noTheta,plusVideo,sp01,Dr,Gr,3,0,3,flow/blocks/NoThetaInAudio_GlobalThetaInVideo_A.csv,,,,,,,,,0,0,0,0,0,6,6,6,,,,,,,,,-0.3851851851851852,0.09166666666666666,1,0,0,5.384931300068274,call2,-0.024074074074074074,0.25,1,0,0,7.452665299992077,colour1,0.43148148148148147,-0.10694444444444444,1,0,0,8.247979399980977,number3,True,False,True,32,2,2019_Nov_18_1600,MA_Theta_Exp,3.0.7,59.98037442566704,
video/Experiment/zh_sp07_Dr_Gr_4_NoThetaInAudio_GlobalThetaInVideo.avi,noTheta,plusVideo,sp07,Dr,Gr,4,0,3,flow/blocks/NoThetaInAudio_GlobalThetaInVideo_A.csv,,,,,,,,,0,0,0,0,0,7,7,23,,,,,,,,,-0.37824074074074077,0.10972222222222222,1,0,0,4.67650900001172,call2,0.07731481481481481,0.1,1,0,0,6.077552899951115,colour2,0.44537037037037036,-0.32083333333333336,1,0,0,6.906699899933301,number4,True,True,True,32,2,2019_Nov_18_1600,MA_Theta_Exp,3.0.7,59.98037442566704,
video/Experiment/zh_sp07_Un_Ge_2_NoThetaInAudio_GlobalThetaInVideo.avi,noTheta,plusVideo,sp07,Un,Ge,2,0,3,flow/blocks/NoThetaInAudio_GlobalThetaInVideo_A.csv,,,,,,,,,0,0,0,0,0,8,8,17,,,,,,,,,-0.36712962962962964,-0.30694444444444446,1,0,0,4.268967499956489,call4,0.000925925925925926,-0.07083333333333333,1,0,0,5.368205500068143,colour3,0.3800925925925926,0.13472222222222222,1,0,0,5.98717380000744,number2,True,False,True,32,2,2019_Nov_18_1600,MA_Theta_Exp,3.0.7,59.98037442566704,
video/Experiment/zh_sp07_Ti_We_4_NoThetaInAudio_GlobalThetaInVideo.avi,noTheta,plusVideo,sp07,Ti,We,4,0,3,flow/blocks/NoThetaInAudio_GlobalThetaInVideo_A.csv,,,,,,,,,0,0,0,0,0,9,9,31,,,,,,,,,-0.4351851851851852,-0.11944444444444445,1,0,0,4.577820200007409,call3,0.04814814814814815,-0.32222222222222224,1,0,0,5.724356499966234,colour4,0.38842592592592595,-0.33194444444444443,1,0,0,6.277114000055008,number4,True,True,True,32,2,2019_Nov_18_1600,MA_Theta_Exp,3.0.7,59.98037442566704,
video/Experiment/zh_sp07_Ti_Gr_4_NoThetaInAudio_GlobalThetaInVideo.avi,noTheta,plusVideo,sp07,Ti,Gr,4,0,3,flow/blocks/NoThetaInAudio_GlobalThetaInVideo_A.csv,,,,,,,,,0,0,0,0,0,10,10,7,,,,,,,,,-0.36018518518518516,0.0875,1,0,0,6.128219299949706,call2,0.009259259259259259,0.0875,1,0,0,7.078639700077474,colour2,0.41898148148148145,-0.3194444444444444,1,0,0,7.715654300060123,number4,False,True,True,32,2,2019_Nov_18_1600,MA_Theta_Exp,3.0.7,59.98037442566704,
video/Experiment/zh_sp01_Un_Gr_1_NoThetaInAudio_GlobalThetaInVideo.avi,noTheta,plusVideo,sp01,Un,Gr,1,0,3,flow/blocks/NoThetaInAudio_GlobalThetaInVideo_A.csv,,,,,,,,,0,0,0,0,0,11,11,20,,,,,,,,,-0.4074074074074074,0.11666666666666667,1,0,0,6.19220209994819,call2,0.038425925925925926,0.14027777777777778,1,0,0,7.222754200105555,colour2,0.4162037037037037,0.32083333333333336,1,0,0,8.258984200074337,number1,False,True,True,32,2,2019_Nov_18_1600,MA_Theta_Exp,3.0.7,59.98037442566704,
video/Experiment/zh_sp01_Un_Ro_1_NoThetaInAudio_GlobalThetaInVideo.avi,noTheta,plusVideo,sp01,Un,Ro,1,0,3,flow/blocks/NoThetaInAudio_GlobalThetaInVideo_A.csv,,,,,,,,,0,0,0,0,0,12,12,24,,,,,,,,,-0.3824074074074074,-0.3416666666666667,1,0,0,5.226474000024609,call4,0.05648148148148148,0.32083333333333336,1,0,0,6.6153583999257535,colour1,0.4064814814814815,0.325,1,0,0,7.2990158998873085,number1,True,False,True,32,2,2019_Nov_18_1600,MA_Theta_Exp,3.0.7,59.98037442566704,
video/Experiment/zh_sp01_Ad_Gr_3_NoThetaInAudio_GlobalThetaInVideo.avi,noTheta,plusVideo,sp01,Ad,Gr,3,0,3,flow/blocks/NoThetaInAudio_GlobalThetaInVideo_A.csv,,,,,,,,,0,0,0,0,0,13,13,22,,,,,,,,,-0.3907407407407407,0.32222222222222224,1,0,0,5.17394480004441,call1,-0.03935185185185185,0.11805555555555555,1,0,0,5.844682399998419,colour2,0.41898148148148145,-0.10555555555555556,1,0,0,6.462362100020982,number3,True,True,True,32,2,2019_Nov_18_1600,MA_Theta_Exp,3.0.7,59.98037442566704,
video/Experiment/zh_sp01_Ad_We_2_NoThetaInAudio_GlobalThetaInVideo.avi,noTheta,plusVideo,sp01,Ad,We,2,0,3,flow/blocks/NoThetaInAudio_GlobalThetaInVideo_A.csv,,,,,,,,,0,0,0,0,0,14,14,29,,,,,,,,,-0.42268518518518516,0.3111111111111111,1,0,0,5.0880154999904335,call1,0.04398148148148148,-0.29583333333333334,1,0,0,5.890285099972971,colour4,0.39814814814814814,0.11805555555555555,1,0,0,6.711812800029293,number2,True,True,True,32,2,2019_Nov_18_1600,MA_Theta_Exp,3.0.7,59.98037442566704,
video/Experiment/zh_sp01_Ti_Ro_2_NoThetaInAudio_GlobalThetaInVideo.avi,noTheta,plusVideo,sp01,Ti,Ro,2,0,3,flow/blocks/NoThetaInAudio_GlobalThetaInVideo_A.csv,,,,,,,,,0,0,0,0,0,15,15,25,,,,,,,,,-0.4074074074074074,0.10972222222222222,1,0,0,6.424931099987589,call2,0.013425925925925926,0.13055555555555556,1,0,0,7.3094696999760345,colour2,0.449537037037037,0.13472222222222222,1,0,0,7.812804599991068,number2,False,False,True,32,2,2019_Nov_18_1600,MA_Theta_Exp,3.0.7,59.98037442566704,
video/Experiment/zh_sp07_Un_We_3_NoThetaInAudio_GlobalThetaInVideo.avi,noTheta,plusVideo,sp07,Un,We,3,0,3,flow/blocks/NoThetaInAudio_GlobalThetaInVideo_A.csv,,,,,,,,,0,0,0,0,0,16,16,14,,,,,,,,,-0.4185185185185185,0.09583333333333334,1,0,0,4.710593300056644,call2,0.038425925925925926,-0.30694444444444446,1,0,0,5.611394899897277,colour4,0.37592592592592594,-0.059722222222222225,1,0,0,6.328427700093016,number3,False,True,True,32,2,2019_Nov_18_1600,MA_Theta_Exp,3.0.7,59.98037442566704,
video/Experiment/zh_sp01_Un_We_1_NoThetaInAudio_GlobalThetaInVideo.avi,noTheta,plusVideo,sp01,Un,We,1,0,3,flow/blocks/NoThetaInAudio_GlobalThetaInVideo_A.csv,,,,,,,,,0,0,0,0,0,17,17,28,,,,,,,,,-0.35185185185185186,-0.2986111111111111,1,0,0,5.33282260003034,call4,-0.05185185185185185,-0.2777777777777778,1,0,0,5.828578799962997,colour4,0.40370370370370373,0.30277777777777776,1,0,0,6.544352099997923,number1,True,True,True,32,2,2019_Nov_18_1600,MA_Theta_Exp,3.0.7,59.98037442566704,
video/Experiment/zh_sp07_Ad_Gr_1_NoThetaInAudio_GlobalThetaInVideo.avi,noTheta,plusVideo,sp07,Ad,Gr,1,0,3,flow/blocks/NoThetaInAudio_GlobalThetaInVideo_A.csv,,,,,,,,,0,0,0,0,0,18,18,4,,,,,,,,,-0.3476851851851852,0.14027777777777778,1,0,0,5.176873999997042,call2,0.05092592592592592,0.11388888888888889,1,0,0,6.659878499922343,colour2,0.37453703703703706,0.29583333333333334,1,0,0,7.076312000048347,number1,False,True,True,32,2,2019_Nov_18_1600,MA_Theta_Exp,3.0.7,59.98037442566704,
video/Experiment/zh_sp07_Dr_We_2_NoThetaInAudio_GlobalThetaInVideo.avi,noTheta,plusVideo,sp07,Dr,We,2,0,3,flow/blocks/NoThetaInAudio_GlobalThetaInVideo_A.csv,,,,,,,,,0,0,0,0,0,19,19,13,,,,,,,,,-0.40185185185185185,0.12638888888888888,1,0,0,4.720255000051111,call2,0.009259259259259259,-0.3013888888888889,1,0,0,5.426443499978632,colour4,0.387037037037037,0.08888888888888889,1,0,0,6.086366400006227,number2,True,True,True,32,2,2019_Nov_18_1600,MA_Theta_Exp,3.0.7,59.98037442566704,
video/Experiment/zh_sp01_Ad_Ro_1_NoThetaInAudio_GlobalThetaInVideo.avi,noTheta,plusVideo,sp01,Ad,Ro,1,0,3,flow/blocks/NoThetaInAudio_GlobalThetaInVideo_A.csv,,,,,,,,,0,0,0,0,0,20,20,8,,,,,,,,,-0.3907407407407407,0.3277777777777778,1,0,0,5.360458399984054,call1,0.03425925925925926,-0.12361111111111112,1,0,0,5.994806000031531,colour3,0.38842592592592595,0.2902777777777778,1,0,0,6.611166100017726,number1,True,True,True,32,2,2019_Nov_18_1600,MA_Theta_Exp,3.0.7,59.98037442566704,
video/Experiment/zh_sp07_Un_We_4_NoThetaInAudio_GlobalThetaInVideo.avi,noTheta,plusVideo,sp07,Un,We,4,0,3,flow/blocks/NoThetaInAudio_GlobalThetaInVideo_A.csv,,,,,,,,,0,0,0,0,0,21,21,15,,,,,,,,,-0.3449074074074074,0.10277777777777777,1,0,0,4.922166800010018,call2,0.060648148148148145,-0.34444444444444444,1,0,0,6.010036200052127,colour4,0.43148148148148147,-0.3138888888888889,1,0,0,6.522174900048412,number4,False,True,True,32,2,2019_Nov_18_1600,MA_Theta_Exp,3.0.7,59.98037442566704,
video/Experiment/zh_sp07_Ti_Ro_3_NoThetaInAudio_GlobalThetaInVideo.avi,noTheta,plusVideo,sp07,Ti,Ro,3,0,3,flow/blocks/NoThetaInAudio_GlobalThetaInVideo_A.csv,,,,,,,,,0,0,0,0,0,22,22,10,,,,,,,,,-0.36435185185185187,-0.09027777777777778,1,0,0,4.457056200015359,call3,0.012037037037037037,-0.06944444444444445,1,0,0,4.970802000025287,colour3,0.4162037037037037,-0.06944444444444445,1,0,0,5.540375399985351,number3,True,True,True,32,2,2019_Nov_18_1600,MA_Theta_Exp,3.0.7,59.98037442566704,
video/Experiment/zh_sp07_Dr_Ge_1_NoThetaInAudio_GlobalThetaInVideo.avi,noTheta,plusVideo,sp07,Dr,Ge,1,0,3,flow/blocks/NoThetaInAudio_GlobalThetaInVideo_A.csv,,,,,,,,,0,0,0,0,0,23,23,0,,,,,,,,,-0.38935185185185184,0.09305555555555556,1,0,0,4.356116999988444,call2,0.003703703703703704,0.33055555555555555,1,0,0,5.017372400034219,colour1,0.38842592592592595,0.32222222222222224,1,0,0,5.6393743000226095,number1,True,True,True,32,2,2019_Nov_18_1600,MA_Theta_Exp,3.0.7,59.98037442566704,
video/Experiment/zh_sp07_Un_Ge_3_NoThetaInAudio_GlobalThetaInVideo.avi,noTheta,plusVideo,sp07,Un,Ge,3,0,3,flow/blocks/NoThetaInAudio_GlobalThetaInVideo_A.csv,,,,,,,,,0,0,0,0,0,24,24,2,,,,,,,,,-0.4060185185185185,-0.3333333333333333,1,0,0,4.323017099988647,call4,0.014814814814814815,0.30694444444444446,1,0,0,5.275664799963124,colour1,0.42453703703703705,-0.05138888888888889,1,0,0,5.910293199936859,number3,True,True,True,32,2,2019_Nov_18_1600,MA_Theta_Exp,3.0.7,59.98037442566704,
video/Experiment/zh_sp01_Ad_Ro_4_NoThetaInAudio_GlobalThetaInVideo.avi,noTheta,plusVideo,sp01,Ad,Ro,4,0,3,flow/blocks/NoThetaInAudio_GlobalThetaInVideo_A.csv,,,,,,,,,0,0,0,0,0,25,25,11,,,,,,,,,-0.36712962962962964,0.32916666666666666,1,0,0,6.034526500036009,call1,0.04398148148148148,-0.31666666666666665,1,0,0,7.533456500037573,colour4,0.41064814814814815,-0.34305555555555556,1,0,0,8.486227700021118,number4,True,False,True,32,2,2019_Nov_18_1600,MA_Theta_Exp,3.0.7,59.98037442566704,
video/Experiment/zh_sp01_Ad_We_1_NoThetaInAudio_GlobalThetaInVideo.avi,noTheta,plusVideo,sp01,Ad,We,1,0,3,flow/blocks/NoThetaInAudio_GlobalThetaInVideo_A.csv,,,,,,,,,0,0,0,0,0,26,26,12,,,,,,,,,-0.412962962962963,0.2916666666666667,1,0,0,5.157729599974118,call1,0.016203703703703703,-0.27361111111111114,1,0,0,5.8904925000388175,colour4,0.4064814814814815,0.2902777777777778,1,0,0,6.558251100010239,number1,True,True,True,32,2,2019_Nov_18_1600,MA_Theta_Exp,3.0.7,59.98037442566704,
video/Experiment/zh_sp01_Dr_Ge_4_NoThetaInAudio_GlobalThetaInVideo.avi,noTheta,plusVideo,sp01,Dr,Ge,4,0,3,flow/blocks/NoThetaInAudio_GlobalThetaInVideo_A.csv,,,,,,,,,0,0,0,0,0,27,27,19,,,,,,,,,-0.3976851851851852,0.06944444444444445,1,0,0,5.042726699961349,call2,-0.018518518518518517,0.2847222222222222,1,0,0,5.690195300034247,colour1,0.40370370370370373,-0.3347222222222222,1,0,0,6.458383499993943,number4,True,True,True,32,2,2019_Nov_18_1600,MA_Theta_Exp,3.0.7,59.98037442566704,
video/Experiment/zh_sp01_Ti_Ge_4_NoThetaInAudio_GlobalThetaInVideo.avi,noTheta,plusVideo,sp01,Ti,Ge,4,0,3,flow/blocks/NoThetaInAudio_GlobalThetaInVideo_A.csv,,,,,,,,,0,0,0,0,0,28,28,3,,,,,,,,,-0.35324074074074074,-0.1361111111111111,1,0,0,5.166269000037573,call3,0.000925925925925926,0.35833333333333334,1,0,0,6.35378430003766,colour1,0.37592592592592594,-0.32222222222222224,1,0,0,7.164764099987224,number4,True,True,True,32,2,2019_Nov_18_1600,MA_Theta_Exp,3.0.7,59.98037442566704,
video/Experiment/zh_sp07_Ti_Ge_3_NoThetaInAudio_GlobalThetaInVideo.avi,noTheta,plusVideo,sp07,Ti,Ge,3,0,3,flow/blocks/NoThetaInAudio_GlobalThetaInVideo_A.csv,,,,,,,,,0,0,0,0,0,29,29,18,,,,,,,,,-0.3337962962962963,-0.12222222222222222,1,0,0,5.664697800064459,call3,-0.000462962962962963,0.11944444444444445,1,0,0,7.40961089998018,colour2,0.387037037037037,-0.1125,1,0,0,7.996686800033785,number3,True,False,True,32,2,2019_Nov_18_1600,MA_Theta_Exp,3.0.7,59.98037442566704,
video/Experiment/zh_sp01_Ti_Ge_1_NoThetaInAudio_GlobalThetaInVideo.avi,noTheta,plusVideo,sp01,Ti,Ge,1,0,3,flow/blocks/NoThetaInAudio_GlobalThetaInVideo_A.csv,,,,,,,,,0,0,0,0,0,30,30,16,,,,,,,,,-0.3449074074074074,-0.1527777777777778,1,0,0,5.561299000051804,call3,0.04675925925925926,0.2777777777777778,1,0,0,6.383041199995205,colour1,0.37453703703703706,0.3055555555555556,1,0,0,6.949889500043355,number1,True,True,True,32,2,2019_Nov_18_1600,MA_Theta_Exp,3.0.7,59.98037442566704,
video/Experiment/zh_sp07_Ad_We_3_NoThetaInAudio_GlobalThetaInVideo.avi,noTheta,plusVideo,sp07,Ad,We,3,0,3,flow/blocks/NoThetaInAudio_GlobalThetaInVideo_A.csv,,,,,,,,,0,0,0,0,0,31,31,30,,,,,,,,,-0.36157407407407405,0.2777777777777778,1,0,0,5.1177472999552265,call1,0.017592592592592594,-0.2847222222222222,1,0,0,7.117956700036302,colour4,0.3800925925925926,-0.1527777777777778,1,0,0,7.550721000065096,number3,True,True,True,32,2,2019_Nov_18_1600,MA_Theta_Exp,3.0.7,59.98037442566704,
video/Experiment/zh_sp07_Ti_Ro_1_GlobalTheta_NoVideo.avi,globalTheta,noVideo,sp07,Ti,Ro,1,1,5,flow/blocks/GlobalTheta_NoVideo_B.csv,,,,,,,,,0,1,1,1,0,0,0,8,,,,,,,,,-0.34074074074074073,-0.08333333333333333,1,0,0,5.206707799923606,call3,0.037037037037037035,-0.1763888888888889,1,0,0,6.5415727000217885,colour3,0.37592592592592594,0.12638888888888888,1,0,0,7.494469800032675,number2,True,True,False,32,2,2019_Nov_18_1600,MA_Theta_Exp,3.0.7,59.98037442566704,
video/Experiment/zh_sp07_Dr_Ge_2_GlobalTheta_NoVideo.avi,globalTheta,noVideo,sp07,Dr,Ge,2,1,5,flow/blocks/GlobalTheta_NoVideo_B.csv,,,,,,,,,0,1,1,1,0,1,1,17,,,,,,,,,-0.37962962962962965,0.29583333333333334,1,0,0,5.560800199978985,call1,0.01898148148148148,0.2986111111111111,1,0,0,6.09910920006223,colour1,0.3939814814814815,0.29444444444444445,1,0,0,6.5654310999671,number1,False,True,False,32,2,2019_Nov_18_1600,MA_Theta_Exp,3.0.7,59.98037442566704,
video/Experiment/zh_sp07_Dr_We_3_GlobalTheta_NoVideo.avi,globalTheta,noVideo,sp07,Dr,We,3,1,5,flow/blocks/GlobalTheta_NoVideo_B.csv,,,,,,,,,0,1,1,1,0,2,2,14,,,,,,,,,-0.4212962962962963,0.08888888888888889,1,0,0,4.24335250002332,call2,0.02175925925925926,0.06388888888888888,1,0,0,5.641106299939565,colour2,0.37453703703703706,-0.1361111111111111,1,0,0,6.291923499898985,number3,True,False,True,32,2,2019_Nov_18_1600,MA_Theta_Exp,3.0.7,59.98037442566704,
video/Experiment/zh_sp01_Ad_Ge_4_GlobalTheta_NoVideo.avi,globalTheta,noVideo,sp01,Ad,Ge,4,1,5,flow/blocks/GlobalTheta_NoVideo_B.csv,,,,,,,,,0,1,1,1,0,3,3,3,,,,,,,,,-0.3907407407407407,0.3055555555555556,1,0,0,4.809565299889073,call1,0.020370370370370372,0.3138888888888889,1,0,0,6.191957400063984,colour1,0.4439814814814815,0.06111111111111111,1,0,0,6.829076000023633,number2,True,True,False,32,2,2019_Nov_18_1600,MA_Theta_Exp,3.0.7,59.98037442566704,
video/Experiment/zh_sp07_Ti_We_3_GlobalTheta_NoVideo.avi,globalTheta,noVideo,sp07,Ti,We,3,1,5,flow/blocks/GlobalTheta_NoVideo_B.csv,,,,,,,,,0,1,1,1,0,4,4,30,,,,,,,,,-0.4115740740740741,-0.09583333333333334,1,0,0,5.962700600037351,call3,0.003703703703703704,-0.12638888888888888,1,0,0,6.6771743999561295,colour3,0.3314814814814815,-0.10833333333333334,1,0,0,7.187073399894871,number3,True,False,True,32,2,2019_Nov_18_1600,MA_Theta_Exp,3.0.7,59.98037442566704,
video/Experiment/zh_sp07_Ad_Ro_2_GlobalTheta_NoVideo.avi,globalTheta,noVideo,sp07,Ad,Ro,2,1,5,flow/blocks/GlobalTheta_NoVideo_B.csv,,,,,,,,,0,1,1,1,0,5,5,25,,,,,,,,,-0.3699074074074074,0.2986111111111111,1,0,0,4.242122599971481,call1,0.04398148148148148,-0.3138888888888889,1,0,0,5.514106499962509,colour4,0.3662037037037037,0.09166666666666666,1,0,0,6.128514199983329,number2,True,False,True,32,2,2019_Nov_18_1600,MA_Theta_Exp,3.0.7,59.98037442566704,
video/Experiment/zh_sp07_Ad_Ge_2_GlobalTheta_NoVideo.avi,globalTheta,noVideo,sp07,Ad,Ge,2,1,5,flow/blocks/GlobalTheta_NoVideo_B.csv,,,,,,,,,0,1,1,1,0,6,6,1,,,,,,,,,-0.3712962962962963,0.3013888888888889,1,0,0,4.4271055000135675,call1,0.024537037037037038,0.08194444444444444,1,0,0,5.3720271999482065,colour2,0.38564814814814813,0.11944444444444445,1,0,0,5.952253600000404,number2,True,False,True,32,2,2019_Nov_18_1600,MA_Theta_Exp,3.0.7,59.98037442566704,
video/Experiment/zh_sp01_Un_Gr_4_GlobalTheta_NoVideo.avi,globalTheta,noVideo,sp01,Un,Gr,4,1,5,flow/blocks/GlobalTheta_NoVideo_B.csv,,,,,,,,,0,1,1,1,0,7,7,23,,,,,,,,,-0.4212962962962963,-0.3,1,0,0,4.8767242999747396,call4,0.04953703703703704,0.1125,1,0,0,6.026953399996273,colour2,0.4009259259259259,-0.36666666666666664,1,0,0,6.7968011000193655,number4,True,True,True,32,2,2019_Nov_18_1600,MA_Theta_Exp,3.0.7,59.98037442566704,
video/Experiment/zh_sp07_Ti_Gr_1_GlobalTheta_NoVideo.avi,globalTheta,noVideo,sp07,Ti,Gr,1,1,5,flow/blocks/GlobalTheta_NoVideo_B.csv,,,,,,,,,0,1,1,1,0,8,8,4,,,,,,,,,-0.3726851851851852,-0.09166666666666666,1,0,0,4.1772307000355795,call3,0.00787037037037037,-0.06111111111111111,1,0,0,5.177779600024223,colour3,0.42592592592592593,0.0875,1,0,0,6.110734899993986,number2,True,False,False,32,2,2019_Nov_18_1600,MA_Theta_Exp,3.0.7,59.98037442566704,
video/Experiment/zh_sp07_Dr_Ro_1_GlobalTheta_NoVideo.avi,globalTheta,noVideo,sp07,Dr,Ro,1,1,5,flow/blocks/GlobalTheta_NoVideo_B.csv,,,,,,,,,0,1,1,1,0,9,9,24,,,,,,,,,-0.38935185185185184,0.09861111111111111,1,0,0,4.360324100009166,call2,-0.011574074074074073,0.1361111111111111,1,0,0,4.779122099978849,colour2,0.36064814814814816,0.31666666666666665,1,0,0,5.24591049994342,number1,True,False,True,32,2,2019_Nov_18_1600,MA_Theta_Exp,3.0.7,59.98037442566704,
video/Experiment/zh_sp07_Un_Ge_4_GlobalTheta_NoVideo.avi,globalTheta,noVideo,sp07,Un,Ge,4,1,5,flow/blocks/GlobalTheta_NoVideo_B.csv,,,,,,,,,0,1,1,1,0,10,10,19,,,,,,,,,-0.3837962962962963,-0.3375,1,0,0,4.314983400050551,call4,-0.004629629629629629,0.30694444444444446,1,0,0,5.051036500022747,colour1,0.38981481481481484,-0.14027777777777778,1,0,0,5.787327499943785,number3,True,True,False,32,2,2019_Nov_18_1600,MA_Theta_Exp,3.0.7,59.98037442566704,
video/Experiment/zh_sp01_Un_We_2_GlobalTheta_NoVideo.avi,globalTheta,noVideo,sp01,Un,We,2,1,5,flow/blocks/GlobalTheta_NoVideo_B.csv,,,,,,,,,0,1,1,1,0,11,11,13,,,,,,,,,-0.38101851851851853,-0.2847222222222222,1,0,0,5.341314299963415,call4,0.020370370370370372,-0.06944444444444445,1,0,0,6.425448799971491,colour3,0.36342592592592593,0.12222222222222222,1,0,0,6.9102737999055535,number2,True,False,True,32,2,2019_Nov_18_1600,MA_Theta_Exp,3.0.7,59.98037442566704,
video/Experiment/zh_sp01_Un_Gr_3_GlobalTheta_NoVideo.avi,globalTheta,noVideo,sp01,Un,Gr,3,1,5,flow/blocks/GlobalTheta_NoVideo_B.csv,,,,,,,,,0,1,1,1,0,12,12,6,,,,,,,,,-0.37407407407407406,-0.07083333333333333,1,0,0,5.531262699980289,call3,-0.04212962962962963,-0.07777777777777778,1,0,0,6.319266099948436,colour3,0.3773148148148148,-0.075,1,0,0,6.920643399935216,number3,False,False,True,32,2,2019_Nov_18_1600,MA_Theta_Exp,3.0.7,59.98037442566704,
video/Experiment/zh_sp01_Ti_We_1_GlobalTheta_NoVideo.avi,globalTheta,noVideo,sp01,Ti,We,1,1,5,flow/blocks/GlobalTheta_NoVideo_B.csv,,,,,,,,,0,1,1,1,0,13,13,12,,,,,,,,,-0.31851851851851853,-0.10694444444444444,1,0,0,5.558538499986753,call3,0.005092592592592593,0.12916666666666668,1,0,0,6.508027500007302,colour2,0.4300925925925926,0.11666666666666667,1,0,0,6.9970513000153005,number2,True,False,False,32,2,2019_Nov_18_1600,MA_Theta_Exp,3.0.7,59.98037442566704,
video/Experiment/zh_sp01_Ad_Gr_4_GlobalTheta_NoVideo.avi,globalTheta,noVideo,sp01,Ad,Gr,4,1,5,flow/blocks/GlobalTheta_NoVideo_B.csv,,,,,,,,,0,1,1,1,0,14,14,7,,,,,,,,,-0.3560185185185185,0.3125,1,0,0,5.123438599985093,call1,-0.01574074074074074,0.125,1,0,0,5.7383426000596955,colour2,0.4162037037037037,-0.28888888888888886,1,0,0,6.472366299945861,number4,True,True,True,32,2,2019_Nov_18_1600,MA_Theta_Exp,3.0.7,59.98037442566704,
video/Experiment/zh_sp07_Dr_Ge_3_GlobalTheta_NoVideo.avi,globalTheta,noVideo,sp07,Dr,Ge,3,1,5,flow/blocks/GlobalTheta_NoVideo_B.csv,,,,,,,,,0,1,1,1,0,15,15,2,,,,,,,,,-0.4212962962962963,0.09583333333333334,1,0,0,4.320159399998374,call2,0.0412037037037037,0.13472222222222222,1,0,0,5.739625599933788,colour2,0.4217592592592593,-0.15138888888888888,1,0,0,6.291205400018953,number3,True,False,True,32,2,2019_Nov_18_1600,MA_Theta_Exp,3.0.7,59.98037442566704,
video/Experiment/zh_sp07_Ti_Ro_4_GlobalTheta_NoVideo.avi,globalTheta,noVideo,sp07,Ti,Ro,4,1,5,flow/blocks/GlobalTheta_NoVideo_B.csv,,,,,,,,,0,1,1,1,0,16,16,11,,,,,,,,,-0.37824074074074077,0.14583333333333334,1,0,0,5.267705300007947,call2,-0.0060185185185185185,0.13055555555555556,1,0,0,5.799205400049686,colour2,0.41898148148148145,-0.08611111111111111,1,0,0,6.568836799939163,number3,False,False,False,32,2,2019_Nov_18_1600,MA_Theta_Exp,3.0.7,59.98037442566704,
video/Experiment/zh_sp01_Ad_Ge_3_GlobalTheta_NoVideo.avi,globalTheta,noVideo,sp01,Ad,Ge,3,1,5,flow/blocks/GlobalTheta_NoVideo_B.csv,,,,,,,,,0,1,1,1,0,17,17,18,,,,,,,,,-0.412962962962963,0.31805555555555554,1,0,0,4.7069806000217795,call1,-0.07685185185185185,0.32916666666666666,1,0,0,5.156628499971703,colour1,0.4634259259259259,-0.10138888888888889,1,0,0,6.107484200038016,number3,True,True,True,32,2,2019_Nov_18_1600,MA_Theta_Exp,3.0.7,59.98037442566704,
video/Experiment/zh_sp01_Ad_We_4_GlobalTheta_NoVideo.avi,globalTheta,noVideo,sp01,Ad,We,4,1,5,flow/blocks/GlobalTheta_NoVideo_B.csv,,,,,,,,,0,1,1,1,0,18,18,31,,,,,,,,,-0.40046296296296297,0.2972222222222222,1,0,0,5.099381200037897,call1,0.04398148148148148,0.14583333333333334,1,0,0,6.329722999944352,colour2,0.4078703703703704,0.13055555555555556,1,0,0,6.82992569997441,number2,True,False,False,32,2,2019_Nov_18_1600,MA_Theta_Exp,3.0.7,59.98037442566704,
video/Experiment/zh_sp01_Un_Ro_4_GlobalTheta_NoVideo.avi,globalTheta,noVideo,sp01,Un,Ro,4,1,5,flow/blocks/GlobalTheta_NoVideo_B.csv,,,,,,,,,0,1,1,1,0,19,19,27,,,,,,,,,-0.33101851851851855,-0.3194444444444444,1,0,0,4.850168599979952,call4,-0.040740740740740744,-0.11527777777777778,1,0,0,5.318620799924247,colour3,0.38287037037037036,-0.27361111111111114,1,0,0,5.923079600092024,number4,True,True,True,32,2,2019_Nov_18_1600,MA_Theta_Exp,3.0.7,59.98037442566704,
video/Experiment/zh_sp07_Dr_Ro_3_GlobalTheta_NoVideo.avi,globalTheta,noVideo,sp07,Dr,Ro,3,1,5,flow/blocks/GlobalTheta_NoVideo_B.csv,,,,,,,,,0,1,1,1,0,20,20,26,,,,,,,,,-0.31296296296296294,0.11388888888888889,1,0,0,4.419336999999359,call2,0.03287037037037037,-0.3472222222222222,1,0,0,6.353899199981242,colour4,0.41203703703703703,-0.09722222222222222,1,0,0,6.874887200072408,number3,True,False,True,32,2,2019_Nov_18_1600,MA_Theta_Exp,3.0.7,59.98037442566704,
video/Experiment/zh_sp01_Dr_Gr_1_GlobalTheta_NoVideo.avi,globalTheta,noVideo,sp01,Dr,Gr,1,1,5,flow/blocks/GlobalTheta_NoVideo_B.csv,,,,,,,,,0,1,1,1,0,21,21,20,,,,,,,,,-0.35462962962962963,-0.10277777777777777,1,0,0,5.294147599954158,call3,0.037037037037037035,-0.325,1,0,0,7.222989399917424,colour4,0.37453703703703706,0.2652777777777778,1,0,0,7.791640799958259,number1,False,False,True,32,2,2019_Nov_18_1600,MA_Theta_Exp,3.0.7,59.98037442566704,
video/Experiment/zh_sp07_Dr_We_4_GlobalTheta_NoVideo.avi,globalTheta,noVideo,sp07,Dr,We,4,1,5,flow/blocks/GlobalTheta_NoVideo_B.csv,,,,,,,,,0,1,1,1,0,22,22,15,,,,,,,,,-0.42824074074074076,0.09027777777777778,1,0,0,5.12864970008377,call2,-0.01712962962962963,0.09305555555555556,1,0,0,5.647598500014283,colour2,0.38287037037037036,-0.09305555555555556,1,0,0,6.243972799973562,number3,True,False,False,32,2,2019_Nov_18_1600,MA_Theta_Exp,3.0.7,59.98037442566704,
video/Experiment/zh_sp01_Dr_We_1_GlobalTheta_NoVideo.avi,globalTheta,noVideo,sp01,Dr,We,1,1,5,flow/blocks/GlobalTheta_NoVideo_B.csv,,,,,,,,,0,1,1,1,0,23,23,28,,,,,,,,,-0.37546296296296294,0.30416666666666664,1,0,0,5.026738399988972,call1,0.020370370370370372,-0.10833333333333334,1,0,0,6.274991400074214,colour3,0.39675925925925926,0.33611111111111114,1,0,0,6.870778999989852,number1,False,False,True,32,2,2019_Nov_18_1600,MA_Theta_Exp,3.0.7,59.98037442566704,
video/Experiment/zh_sp01_Ad_Ro_3_GlobalTheta_NoVideo.avi,globalTheta,noVideo,sp01,Ad,Ro,3,1,5,flow/blocks/GlobalTheta_NoVideo_B.csv,,,,,,,,,0,1,1,1,0,24,24,10,,,,,,,,,-0.3587962962962963,0.3375,1,0,0,4.813972199917771,call1,0.055092592592592596,-0.10555555555555556,1,0,0,5.417907900060527,colour3,0.36898148148148147,-0.08888888888888889,1,0,0,5.9471338000148535,number3,True,True,True,32,2,2019_Nov_18_1600,MA_Theta_Exp,3.0.7,59.98037442566704,
video/Experiment/zh_sp01_Ad_Ge_1_GlobalTheta_NoVideo.avi,globalTheta,noVideo,sp01,Ad,Ge,1,1,5,flow/blocks/GlobalTheta_NoVideo_B.csv,,,,,,,,,0,1,1,1,0,25,25,16,,,,,,,,,-0.4476851851851852,0.30694444444444446,1,0,0,5.209764400031418,call1,0.027314814814814816,0.31527777777777777,1,0,0,5.66114139999263,colour1,0.41759259259259257,0.3388888888888889,1,0,0,6.051531299948692,number1,True,True,True,32,2,2019_Nov_18_1600,MA_Theta_Exp,3.0.7,59.98037442566704,
video/Experiment/zh_sp07_Un_Gr_2_GlobalTheta_NoVideo.avi,globalTheta,noVideo,sp07,Un,Gr,2,1,5,flow/blocks/GlobalTheta_NoVideo_B.csv,,,,,,,,,0,1,1,1,0,26,26,5,,,,,,,,,-0.35185185185185186,-0.31527777777777777,1,0,0,4.52701469999738,call4,-0.03935185185185185,-0.2611111111111111,1,0,0,5.26753039995674,colour4,0.33287037037037037,-0.05555555555555555,1,0,0,5.762749299989082,number3,True,False,False,32,2,2019_Nov_18_1600,MA_Theta_Exp,3.0.7,59.98037442566704,
video/Experiment/zh_sp07_Ti_We_2_GlobalTheta_NoVideo.avi,globalTheta,noVideo,sp07,Ti,We,2,1,5,flow/blocks/GlobalTheta_NoVideo_B.csv,,,,,,,,,0,1,1,1,0,27,27,29,,,,,,,,,-0.4324074074074074,-0.13194444444444445,1,0,0,4.8031450000125915,call3,-0.033796296296296297,0.05138888888888889,1,0,0,5.3868709000526,colour2,0.38425925925925924,0.09166666666666666,1,0,0,6.107311700005084,number2,True,False,True,32,2,2019_Nov_18_1600,MA_Theta_Exp,3.0.7,59.98037442566704,
video/Experiment/zh_sp01_Ti_Gr_2_GlobalTheta_NoVideo.avi,globalTheta,noVideo,sp01,Ti,Gr,2,1,5,flow/blocks/GlobalTheta_NoVideo_B.csv,,,,,,,,,0,1,1,1,0,28,28,21,,,,,,,,,-0.38101851851851853,-0.2986111111111111,1,0,0,5.5289770000381395,call4,-0.012962962962962963,-0.09027777777777778,1,0,0,6.434433500049636,colour3,0.3814814814814815,0.06388888888888888,1,0,0,7.211534000001848,number2,False,False,True,32,2,2019_Nov_18_1600,MA_Theta_Exp,3.0.7,59.98037442566704,
video/Experiment/zh_sp01_Un_Ro_2_GlobalTheta_NoVideo.avi,globalTheta,noVideo,sp01,Un,Ro,2,1,5,flow/blocks/GlobalTheta_NoVideo_B.csv,,,,,,,,,0,1,1,1,0,29,29,9,,,,,,,,,-0.3962962962962963,0.09861111111111111,1,0,0,6.455803799908608,call2,0.017592592592592594,0.10277777777777777,1,0,0,7.408396500046365,colour2,0.3773148148148148,0.10833333333333334,1,0,0,7.83990470005665,number2,False,False,True,32,2,2019_Nov_18_1600,MA_Theta_Exp,3.0.7,59.98037442566704,
video/Experiment/zh_sp01_Un_Ge_1_GlobalTheta_NoVideo.avi,globalTheta,noVideo,sp01,Un,Ge,1,1,5,flow/blocks/GlobalTheta_NoVideo_B.csv,,,,,,,,,0,1,1,1,0,30,30,0,,,,,,,,,-0.3824074074074074,-0.3194444444444444,1,0,0,5.067736000055447,call4,0.00787037037037037,-0.09444444444444444,1,0,0,5.634649500017986,colour3,0.3731481481481482,0.3277777777777778,1,0,0,6.286968900007196,number1,True,False,True,32,2,2019_Nov_18_1600,MA_Theta_Exp,3.0.7,59.98037442566704,
video/Experiment/zh_sp07_Ti_Gr_3_GlobalTheta_NoVideo.avi,globalTheta,noVideo,sp07,Ti,Gr,3,1,5,flow/blocks/GlobalTheta_NoVideo_B.csv,,,,,,,,,0,1,1,1,0,31,31,22,,,,,,,,,-0.3907407407407407,0.2902777777777778,1,0,0,4.989318300038576,call1,-0.04351851851851852,0.2861111111111111,1,0,0,5.393646199954674,colour1,0.41898148148148145,0.29444444444444445,1,0,0,5.876773099997081,number1,False,False,False,32,2,2019_Nov_18_1600,MA_Theta_Exp,3.0.7,59.98037442566704,
video/Experiment/zh_sp07_Ad_Gr_1_NVocInAudio_GlobalThetaInVideo.avi,vocoded,plusVideo,sp07,Ad,Gr,1,2,1,flow/blocks/NVocInAudio_GlobalThetaInVideo_A.csv,,,,,,,,,0,2,2,2,0,0,0,4,,,,,,,,,-0.3449074074074074,0.2791666666666667,1,0,0,4.536120299948379,call1,-0.004629629629629629,0.1388888888888889,1,0,0,5.118523700046353,colour2,0.37592592592592594,0.32083333333333336,1,0,0,5.620496300049126,number1,True,True,True,32,2,2019_Nov_18_1600,MA_Theta_Exp,3.0.7,59.98037442566704,
video/Experiment/zh_sp01_Dr_Ro_2_NVocInAudio_GlobalThetaInVideo.avi,vocoded,plusVideo,sp01,Dr,Ro,2,2,1,flow/blocks/NVocInAudio_GlobalThetaInVideo_A.csv,,,,,,,,,0,2,2,2,0,1,1,9,,,,,,,,,-0.36574074074074076,0.07361111111111111,1,0,0,5.2366752999369055,call2,0.010648148148148148,-0.08194444444444444,1,0,0,5.837641300051473,colour3,0.3662037037037037,0.07361111111111111,1,0,0,6.268905600067228,number2,True,True,True,32,2,2019_Nov_18_1600,MA_Theta_Exp,3.0.7,59.98037442566704,
video/Experiment/zh_sp01_Ti_Ge_2_NVocInAudio_GlobalThetaInVideo.avi,vocoded,plusVideo,sp01,Ti,Ge,2,2,1,flow/blocks/NVocInAudio_GlobalThetaInVideo_A.csv,,,,,,,,,0,2,2,2,0,2,2,1,,,,,,,,,-0.350462962962963,-0.08194444444444444,1,0,0,5.2080675000324845,call3,0.016203703703703703,0.3,1,0,0,5.704240299994126,colour1,0.4050925925925926,0.18472222222222223,1,0,0,6.187101699993946,number2,True,True,True,32,2,2019_Nov_18_1600,MA_Theta_Exp,3.0.7,59.98037442566704,
video/Experiment/zh_sp01_Un_Ro_1_NVocInAudio_GlobalThetaInVideo.avi,vocoded,plusVideo,sp01,Un,Ro,1,2,1,flow/blocks/NVocInAudio_GlobalThetaInVideo_A.csv,,,,,,,,,0,2,2,2,0,3,3,24,,,,,,,,,-0.42407407407407405,-0.3125,1,0,0,5.070573900011368,call4,-0.032407407407407406,-0.07361111111111111,1,0,0,5.691710000042804,colour3,0.39537037037037037,0.3388888888888889,1,0,0,6.235488899983466,number1,True,True,True,32,2,2019_Nov_18_1600,MA_Theta_Exp,3.0.7,59.98037442566704,
video/Experiment/zh_sp07_Dr_Gr_4_NVocInAudio_GlobalThetaInVideo.avi,vocoded,plusVideo,sp07,Dr,Gr,4,2,1,flow/blocks/NVocInAudio_GlobalThetaInVideo_A.csv,,,,,,,,,0,2,2,2,0,4,4,23,,,,,,,,,-0.42962962962962964,0.10277777777777777,1,0,0,4.665825600037351,call2,0.027314814814814816,0.12361111111111112,1,0,0,5.135305800009519,colour2,0.4050925925925926,-0.35833333333333334,1,0,0,5.768830199958757,number4,True,True,True,32,2,2019_Nov_18_1600,MA_Theta_Exp,3.0.7,59.98037442566704,
video/Experiment/zh_sp07_Dr_Gr_3_NVocInAudio_GlobalThetaInVideo.avi,vocoded,plusVideo,sp07,Dr,Gr,3,2,1,flow/blocks/NVocInAudio_GlobalThetaInVideo_A.csv,,,,,,,,,0,2,2,2,0,5,5,6,,,,,,,,,-0.3976851851851852,0.125,1,0,0,4.450162399909459,call2,-0.01990740740740741,0.09722222222222222,1,0,0,4.84638470003847,colour2,0.4050925925925926,-0.06111111111111111,1,0,0,5.365633700042963,number3,True,True,True,32,2,2019_Nov_18_1600,MA_Theta_Exp,3.0.7,59.98037442566704,
video/Experiment/zh_sp01_Ti_Gr_4_NVocInAudio_GlobalThetaInVideo.avi,vocoded,plusVideo,sp01,Ti,Gr,4,2,1,flow/blocks/NVocInAudio_GlobalThetaInVideo_A.csv,,,,,,,,,0,2,2,2,0,6,6,7,,,,,,,,,-0.3435185185185185,-0.12916666666666668,1,0,0,5.140744499978609,call3,-0.07685185185185185,0.10138888888888889,1,0,0,5.6570054000476375,colour2,0.4287037037037037,-0.3013888888888889,1,0,0,6.4261397999944165,number4,True,True,True,32,2,2019_Nov_18_1600,MA_Theta_Exp,3.0.7,59.98037442566704,
video/Experiment/zh_sp07_Dr_Ge_1_NVocInAudio_GlobalThetaInVideo.avi,vocoded,plusVideo,sp07,Dr,Ge,1,2,1,flow/blocks/NVocInAudio_GlobalThetaInVideo_A.csv,,,,,,,,,0,2,2,2,0,7,7,0,,,,,,,,,-0.32407407407407407,0.1,1,0,0,4.511365799931809,call2,-0.008796296296296297,0.2861111111111111,1,0,0,5.243746199994348,colour1,0.449537037037037,0.3013888888888889,1,0,0,5.738529100082815,number1,True,True,True,32,2,2019_Nov_18_1600,MA_Theta_Exp,3.0.7,59.98037442566704,
video/Experiment/zh_sp01_Ti_Ro_3_NVocInAudio_GlobalThetaInVideo.avi,vocoded,plusVideo,sp01,Ti,Ro,3,2,1,flow/blocks/NVocInAudio_GlobalThetaInVideo_A.csv,,,,,,,,,0,2,2,2,0,8,8,10,,,,,,,,,-0.3449074074074074,-0.11944444444444445,1,0,0,5.173209199914709,call3,-0.014351851851851852,-0.07916666666666666,1,0,0,5.595815100008622,colour3,0.4287037037037037,-0.07222222222222222,1,0,0,6.043220599996857,number3,True,True,True,32,2,2019_Nov_18_1600,MA_Theta_Exp,3.0.7,59.98037442566704,
video/Experiment/zh_sp07_Ti_Ge_1_NVocInAudio_GlobalThetaInVideo.avi,vocoded,plusVideo,sp07,Ti,Ge,1,2,1,flow/blocks/NVocInAudio_GlobalThetaInVideo_A.csv,,,,,,,,,0,2,2,2,0,9,9,16,,,,,,,,,-0.3587962962962963,-0.09027777777777778,1,0,0,4.37379909993615,call3,-0.01574074074074074,0.3,1,0,0,4.923734599957243,colour1,0.3731481481481482,0.3125,1,0,0,5.323238500044681,number1,True,True,True,32,2,2019_Nov_18_1600,MA_Theta_Exp,3.0.7,59.98037442566704,
video/Experiment/zh_sp01_Ad_Gr_3_NVocInAudio_GlobalThetaInVideo.avi,vocoded,plusVideo,sp01,Ad,Gr,3,2,1,flow/blocks/NVocInAudio_GlobalThetaInVideo_A.csv,,,,,,,,,0,2,2,2,0,10,10,22,,,,,,,,,-0.3421296296296296,0.3388888888888889,1,0,0,5.2516536000184715,call1,0.006481481481481481,0.06805555555555555,1,0,0,5.966254799976014,colour2,0.3939814814814815,-0.12916666666666668,1,0,0,6.48528779996559,number3,True,True,True,32,2,2019_Nov_18_1600,MA_Theta_Exp,3.0.7,59.98037442566704,
video/Experiment/zh_sp07_Ti_We_4_NVocInAudio_GlobalThetaInVideo.avi,vocoded,plusVideo,sp07,Ti,We,4,2,1,flow/blocks/NVocInAudio_GlobalThetaInVideo_A.csv,,,,,,,,,0,2,2,2,0,11,11,31,,,,,,,,,-0.36712962962962964,-0.10555555555555556,1,0,0,4.390139200026169,call3,0.01898148148148148,-0.3125,1,0,0,4.9234356000088155,colour4,0.4675925925925926,-0.35694444444444445,1,0,0,5.389812699984759,number4,True,True,True,32,2,2019_Nov_18_1600,MA_Theta_Exp,3.0.7,59.98037442566704,
video/Experiment/zh_sp01_Ad_Ro_1_NVocInAudio_GlobalThetaInVideo.avi,vocoded,plusVideo,sp01,Ad,Ro,1,2,1,flow/blocks/NVocInAudio_GlobalThetaInVideo_A.csv,,,,,,,,,0,2,2,2,0,12,12,8,,,,,,,,,-0.36712962962962964,0.31527777777777777,1,0,0,5.3157416000030935,call1,0.016203703703703703,-0.09166666666666666,1,0,0,5.932049999944866,colour3,0.3939814814814815,0.2902777777777778,1,0,0,6.501551299938001,number1,True,True,True,32,2,2019_Nov_18_1600,MA_Theta_Exp,3.0.7,59.98037442566704,
video/Experiment/zh_sp07_Ad_We_2_NVocInAudio_GlobalThetaInVideo.avi,vocoded,plusVideo,sp07,Ad,We,2,2,1,flow/blocks/NVocInAudio_GlobalThetaInVideo_A.csv,,,,,,,,,0,2,2,2,0,13,13,29,,,,,,,,,-0.3962962962962963,0.30833333333333335,1,0,0,5.9855366999981925,call1,0.0023148148148148147,-0.3138888888888889,1,0,0,6.896129700005986,colour4,0.41898148148148145,0.06527777777777778,1,0,0,7.402326799929142,number2,True,True,True,32,2,2019_Nov_18_1600,MA_Theta_Exp,3.0.7,59.98037442566704,
video/Experiment/zh_sp07_Un_Ge_3_NVocInAudio_GlobalThetaInVideo.avi,vocoded,plusVideo,sp07,Un,Ge,3,2,1,flow/blocks/NVocInAudio_GlobalThetaInVideo_A.csv,,,,,,,,,0,2,2,2,0,14,14,2,,,,,,,,,-0.3837962962962963,-0.3175925925925926,1,0,0,4.67645269993227,call4,0.013425925925925926,0.32546296296296295,1,0,0,5.600829500006512,colour1,0.4300925925925926,-0.023148148148148147,1,0,0,6.094548500026576,number3,True,True,True,32,2,2019_Nov_18_1600,MA_Theta_Exp,3.0.7,59.98037442566704,
video/Experiment/zh_sp01_Ad_We_1_NVocInAudio_GlobalThetaInVideo.avi,vocoded,plusVideo,sp01,Ad,We,1,2,1,flow/blocks/NVocInAudio_GlobalThetaInVideo_A.csv,,,,,,,,,0,2,2,2,0,15,15,12,,,,,,,,,-0.4115740740740741,0.26435185185185184,1,0,0,5.120208900072612,call1,-0.000462962962962963,-0.2898148148148148,1,0,0,5.823212900082581,colour4,0.38981481481481484,0.29907407407407405,1,0,0,6.399833200033754,number1,True,True,True,32,2,2019_Nov_18_1600,MA_Theta_Exp,3.0.7,59.98037442566704,
video/Experiment/zh_sp01_Un_We_4_NVocInAudio_GlobalThetaInVideo.avi,vocoded,plusVideo,sp01,Un,We,4,2,1,flow/blocks/NVocInAudio_GlobalThetaInVideo_A.csv,,,,,,,,,0,2,2,2,0,16,16,15,,,,,,,,,-0.33240740740740743,-0.3189814814814815,1,0,0,4.992593900067732,call4,-0.014351851851851852,-0.28703703703703703,1,0,0,5.427364400005899,colour4,0.3925925925925926,-0.2953703703703704,1,0,0,5.87613109999802,number4,True,True,True,32,2,2019_Nov_18_1600,MA_Theta_Exp,3.0.7,59.98037442566704,
video/Experiment/zh_sp01_Ad_Gr_2_NVocInAudio_GlobalThetaInVideo.avi,vocoded,plusVideo,sp01,Ad,Gr,2,2,1,flow/blocks/NVocInAudio_GlobalThetaInVideo_A.csv,,,,,,,,,0,2,2,2,0,17,17,21,,,,,,,,,-0.3962962962962963,0.36574074074074076,1,0,0,5.446390699944459,call1,-0.01712962962962963,0.14212962962962963,1,0,0,5.976486400002614,colour2,0.41064814814814815,0.10324074074074074,1,0,0,6.44778170005884,number2,True,True,True,32,2,2019_Nov_18_1600,MA_Theta_Exp,3.0.7,59.98037442566704,
video/Experiment/zh_sp01_Un_We_3_NVocInAudio_GlobalThetaInVideo.avi,vocoded,plusVideo,sp01,Un,We,3,2,1,flow/blocks/NVocInAudio_GlobalThetaInVideo_A.csv,,,,,,,,,0,2,2,2,0,18,18,14,,,,,,,,,-0.3962962962962963,-0.26481481481481484,1,0,0,6.125586799927987,call4,0.009259259259259259,-0.2884259259259259,1,0,0,6.8739876000909135,colour4,0.4634259259259259,-0.06342592592592593,1,0,0,7.4714638000587,number3,True,True,True,32,2,2019_Nov_18_1600,MA_Theta_Exp,3.0.7,59.98037442566704,
video/Experiment/zh_sp01_Dr_We_2_NVocInAudio_GlobalThetaInVideo.avi,vocoded,plusVideo,sp01,Dr,We,2,2,1,flow/blocks/NVocInAudio_GlobalThetaInVideo_A.csv,,,,,,,,,0,2,2,2,0,19,19,13,,,,,,,,,-0.4101851851851852,0.13657407407407407,1,0,0,5.499151099938899,call2,0.014814814814814815,-0.3314814814814815,1,0,0,6.232660599984229,colour4,0.3814814814814815,0.06851851851851852,1,0,0,6.702474600053392,number2,True,True,True,32,2,2019_Nov_18_1600,MA_Theta_Exp,3.0.7,59.98037442566704,
video/Experiment/zh_sp07_Un_We_1_NVocInAudio_GlobalThetaInVideo.avi,vocoded,plusVideo,sp07,Un,We,1,2,1,flow/blocks/NVocInAudio_GlobalThetaInVideo_A.csv,,,,,,,,,0,2,2,2,0,20,20,28,,,,,,,,,-0.42268518518518516,-0.2953703703703704,1,0,0,4.446281700045802,call4,0.04953703703703704,-0.29814814814814816,1,0,0,4.89697470003739,colour4,0.43425925925925923,0.28379629629629627,1,0,0,5.70094569993671,number1,True,True,True,32,2,2019_Nov_18_1600,MA_Theta_Exp,3.0.7,59.98037442566704,
video/Experiment/zh_sp01_Ad_We_3_NVocInAudio_GlobalThetaInVideo.avi,vocoded,plusVideo,sp01,Ad,We,3,2,1,flow/blocks/NVocInAudio_GlobalThetaInVideo_A.csv,,,,,,,,,0,2,2,2,0,21,21,30,,,,,,,,,-0.36712962962962964,0.26296296296296295,1,0,0,5.124374800012447,call1,0.006481481481481481,-0.32731481481481484,1,0,0,5.837063299957663,colour4,0.3939814814814815,-0.07037037037037037,1,0,0,6.341488100006245,number3,True,True,True,32,2,2019_Nov_18_1600,MA_Theta_Exp,3.0.7,59.98037442566704,
video/Experiment/zh_sp07_Dr_Gr_2_NVocInAudio_GlobalThetaInVideo.avi,vocoded,plusVideo,sp07,Dr,Gr,2,2,1,flow/blocks/NVocInAudio_GlobalThetaInVideo_A.csv,,,,,,,,,0,2,2,2,0,22,22,5,,,,,,,,,-0.4185185185185185,0.11574074074074074,1,0,0,4.4921106999972835,call2,0.0023148148148148147,0.08796296296296297,1,0,0,4.8630892999935895,colour2,0.43425925925925923,0.14629629629629629,1,0,0,5.274359400034882,number2,True,True,True,32,2,2019_Nov_18_1600,MA_Theta_Exp,3.0.7,59.98037442566704,
video/Experiment/zh_sp07_Dr_Ro_4_NVocInAudio_GlobalThetaInVideo.avi,vocoded,plusVideo,sp07,Dr,Ro,4,2,1,flow/blocks/NVocInAudio_GlobalThetaInVideo_A.csv,,,,,,,,,0,2,2,2,0,23,23,27,,,,,,,,,-0.47824074074074074,0.15185185185185185,1,0,0,4.377349499962293,call2,0.04537037037037037,-0.10231481481481482,1,0,0,4.877832600031979,colour3,0.4203703703703704,-0.3148148148148148,1,0,0,5.4472883000271395,number4,True,True,True,32,2,2019_Nov_18_1600,MA_Theta_Exp,3.0.7,59.98037442566704,
video/Experiment/zh_sp07_Un_Ge_2_NVocInAudio_GlobalThetaInVideo.avi,vocoded,plusVideo,sp07,Un,Ge,2,2,1,flow/blocks/NVocInAudio_GlobalThetaInVideo_A.csv,,,,,,,,,0,2,2,2,0,24,24,17,,,,,,,,,-0.32546296296296295,-0.3300925925925926,1,0,0,4.259304399951361,call4,0.000925925925925926,0.2865740740740741,1,0,0,4.994966899976134,colour1,0.39537037037037037,0.15462962962962962,1,0,0,5.497221200028434,number2,True,True,True,32,2,2019_Nov_18_1600,MA_Theta_Exp,3.0.7,59.98037442566704,
video/Experiment/zh_sp07_Ti_Ge_3_NVocInAudio_GlobalThetaInVideo.avi,vocoded,plusVideo,sp07,Ti,Ge,3,2,1,flow/blocks/NVocInAudio_GlobalThetaInVideo_A.csv,,,,,,,,,0,2,2,2,0,25,25,18,,,,,,,,,-0.3365740740740741,-0.12453703703703704,1,0,0,4.807506399927661,call3,-0.032407407407407406,0.2949074074074074,1,0,0,5.326422100071795,colour1,0.4134259259259259,-0.08981481481481482,1,0,0,5.923333700047806,number3,True,True,True,32,2,2019_Nov_18_1600,MA_Theta_Exp,3.0.7,59.98037442566704,
video/Experiment/zh_sp07_Ad_Ro_4_NVocInAudio_GlobalThetaInVideo.avi,vocoded,plusVideo,sp07,Ad,Ro,4,2,1,flow/blocks/NVocInAudio_GlobalThetaInVideo_A.csv,,,,,,,,,0,2,2,2,0,26,26,11,,,,,,,,,-0.39490740740740743,0.31851851851851853,1,0,0,4.627285399939865,call1,0.04537037037037037,-0.08981481481481482,1,0,0,5.397321399999782,colour3,0.41759259259259257,-0.3523148148148148,1,0,0,6.280778900021687,number4,True,True,True,32,2,2019_Nov_18_1600,MA_Theta_Exp,3.0.7,59.98037442566704,
video/Experiment/zh_sp07_Dr_Ge_4_NVocInAudio_GlobalThetaInVideo.avi,vocoded,plusVideo,sp07,Dr,Ge,4,2,1,flow/blocks/NVocInAudio_GlobalThetaInVideo_A.csv,,,,,,,,,0,2,2,2,0,27,27,19,,,,,,,,,-0.3587962962962963,0.10185185185185185,1,0,0,4.825526200002059,call2,-0.03935185185185185,0.2865740740740741,1,0,0,5.275424099992961,colour1,0.4023148148148148,-0.31342592592592594,1,0,0,5.925260200048797,number4,True,True,True,32,2,2019_Nov_18_1600,MA_Theta_Exp,3.0.7,59.98037442566704,
video/Experiment/zh_sp01_Un_Gr_1_NVocInAudio_GlobalThetaInVideo.avi,vocoded,plusVideo,sp01,Un,Gr,1,2,1,flow/blocks/NVocInAudio_GlobalThetaInVideo_A.csv,,,,,,,,,0,2,2,2,0,28,28,20,,,,,,,,,-0.37962962962962965,-0.3287037037037037,1,0,0,5.149485699948855,call4,0.010648148148148148,0.06851851851851852,1,0,0,5.645578399999067,colour2,0.3814814814814815,0.3074074074074074,1,0,0,6.348031800007448,number1,True,True,True,32,2,2019_Nov_18_1600,MA_Theta_Exp,3.0.7,59.98037442566704,
video/Experiment/zh_sp07_Ti_Ge_4_NVocInAudio_GlobalThetaInVideo.avi,vocoded,plusVideo,sp07,Ti,Ge,4,2,1,flow/blocks/NVocInAudio_GlobalThetaInVideo_A.csv,,,,,,,,,0,2,2,2,0,29,29,3,,,,,,,,,-0.37546296296296294,-0.06620370370370371,1,0,0,5.16180230001919,call3,-0.047685185185185185,0.3074074074074074,1,0,0,5.679072199971415,colour1,0.3800925925925926,-0.29259259259259257,1,0,0,6.309929099981673,number4,True,True,True,32,2,2019_Nov_18_1600,MA_Theta_Exp,3.0.7,59.98037442566704,
video/Experiment/zh_sp01_Ti_Ro_2_NVocInAudio_GlobalThetaInVideo.avi,vocoded,plusVideo,sp01,Ti,Ro,2,2,1,flow/blocks/NVocInAudio_GlobalThetaInVideo_A.csv,,,,,,,,,0,2,2,2,0,30,30,25,,,,,,,,,-0.40324074074074073,-0.11064814814814815,1,0,0,5.121105500031263,call3,-0.021296296296296296,-0.1037037037037037,1,0,0,5.556589000043459,colour3,0.4078703703703704,0.0962962962962963,1,0,0,6.059627000009641,number2,True,True,True,32,2,2019_Nov_18_1600,MA_Theta_Exp,3.0.7,59.98037442566704,
video/Experiment/zh_sp01_Un_Ro_3_NVocInAudio_GlobalThetaInVideo.avi,vocoded,plusVideo,sp01,Un,Ro,3,2,1,flow/blocks/NVocInAudio_GlobalThetaInVideo_A.csv,,,,,,,,,0,2,2,2,0,31,31,26,,,,,,,,,-0.3435185185185185,-0.33287037037037037,1,0,0,5.04287980007939,call4,-0.01574074074074074,-0.1412037037037037,1,0,0,5.468204700038768,colour3,0.40370370370370373,-0.08009259259259259,1,0,0,5.826308400020935,number3,True,True,True,32,2,2019_Nov_18_1600,MA_Theta_Exp,3.0.7,59.98037442566704,
video/Experiment/zh_sp07_Ti_We_3_NoThetaInAudio_NoVideo.avi,noTheta,noVideo,sp07,Ti,We,3,3,4,flow/blocks/NoThetaInAudio_NoVideo_B.csv,,,,,,,,,0,3,3,3,0,0,0,30,,,,,,,,,-0.3699074074074074,-0.34814814814814815,1,0,0,5.2201337000587955,call4,-0.01712962962962963,-0.29814814814814816,1,0,0,5.940042600035667,colour4,0.3662037037037037,-0.07592592592592592,1,0,0,6.500950300018303,number3,False,True,True,32,2,2019_Nov_18_1600,MA_Theta_Exp,3.0.7,59.98037442566704,
video/Experiment/zh_sp07_Ad_Ge_4_NoThetaInAudio_NoVideo.avi,noTheta,noVideo,sp07,Ad,Ge,4,3,4,flow/blocks/NoThetaInAudio_NoVideo_B.csv,,,,,,,,,0,3,3,3,0,1,1,3,,,,,,,,,-0.35462962962962963,0.30462962962962964,1,0,0,5.105116099934094,call1,0.03564814814814815,0.0837962962962963,1,0,0,7.191749899997376,colour2,0.4273148148148148,-0.3050925925925926,1,0,0,7.878134200000204,number4,True,False,True,32,2,2019_Nov_18_1600,MA_Theta_Exp,3.0.7,59.98037442566704,
video/Experiment/zh_sp07_Ti_Gr_1_NoThetaInAudio_NoVideo.avi,noTheta,noVideo,sp07,Ti,Gr,1,3,4,flow/blocks/NoThetaInAudio_NoVideo_B.csv,,,,,,,,,0,3,3,3,0,2,2,4,,,,,,,,,-0.3712962962962963,-0.11898148148148148,1,0,0,4.566913899965584,call3,0.020370370370370372,0.10601851851851851,1,0,0,4.967199699953198,colour2,0.38842592592592595,0.3574074074074074,1,0,0,5.434243499999866,number1,True,True,True,32,2,2019_Nov_18_1600,MA_Theta_Exp,3.0.7,59.98037442566704,
video/Experiment/zh_sp07_Ti_We_2_NoThetaInAudio_NoVideo.avi,noTheta,noVideo,sp07,Ti,We,2,3,4,flow/blocks/NoThetaInAudio_NoVideo_B.csv,,,,,,,,,0,3,3,3,0,3,3,29,,,,,,,,,-0.38796296296296295,-0.10092592592592593,1,0,0,4.651030099950731,call3,-0.01574074074074074,-0.28564814814814815,1,0,0,5.08795309998095,colour4,0.3439814814814815,0.10185185185185185,1,0,0,5.5081073000328615,number2,True,True,True,32,2,2019_Nov_18_1600,MA_Theta_Exp,3.0.7,59.98037442566704,
video/Experiment/zh_sp07_Ad_Gr_4_NoThetaInAudio_NoVideo.avi,noTheta,noVideo,sp07,Ad,Gr,4,3,4,flow/blocks/NoThetaInAudio_NoVideo_B.csv,,,,,,,,,0,3,3,3,0,4,4,7,,,,,,,,,-0.41435185185185186,0.32407407407407407,1,0,0,4.364044799935073,call1,0.03564814814814815,0.38101851851851853,1,0,0,6.276214399957098,colour1,0.0787037037037037,0.05740740740740741,1,0,0,7.210320299956948,number4,True,False,True,32,2,2019_Nov_18_1600,MA_Theta_Exp,3.0.7,59.98037442566704,
video/Experiment/zh_sp01_Dr_Gr_1_NoThetaInAudio_NoVideo.avi,noTheta,noVideo,sp01,Dr,Gr,1,3,4,flow/blocks/NoThetaInAudio_NoVideo_B.csv,,,,,,,,,0,3,3,3,0,5,5,20,,,,,,,,,-0.36712962962962964,-0.2884259259259259,1,0,0,5.167800799943507,call4,-0.007407407407407408,0.07268518518518519,1,0,0,5.6853888999903575,colour2,0.38981481481481484,0.3490740740740741,1,0,0,6.150361799984239,number1,False,True,True,32,2,2019_Nov_18_1600,MA_Theta_Exp,3.0.7,59.98037442566704,
video/Experiment/zh_sp01_Ad_Ge_3_NoThetaInAudio_NoVideo.avi,noTheta,noVideo,sp01,Ad,Ge,3,3,4,flow/blocks/NoThetaInAudio_NoVideo_B.csv,,,,,,,,,0,3,3,3,0,6,6,18,,,,,,,,,-0.38935185185185184,0.28935185185185186,1,0,0,4.990856499993242,call1,0.012037037037037037,0.29074074074074074,1,0,0,5.4598252000287175,colour1,0.38287037037037036,-0.07314814814814814,1,0,0,6.052968200063333,number3,True,True,True,32,2,2019_Nov_18_1600,MA_Theta_Exp,3.0.7,59.98037442566704,
video/Experiment/zh_sp01_Ad_Ge_2_NoThetaInAudio_NoVideo.avi,noTheta,noVideo,sp01,Ad,Ge,2,3,4,flow/blocks/NoThetaInAudio_NoVideo_B.csv,,,,,,,,,0,3,3,3,0,7,7,1,,,,,,,,,-0.4060185185185185,0.287962962962963,1,0,0,5.250033100019209,call1,-0.040740740740740744,0.28379629629629627,1,0,0,5.784874000004493,colour1,0.4134259259259259,0.13240740740740742,1,0,0,6.2676645999308676,number2,True,True,True,32,2,2019_Nov_18_1600,MA_Theta_Exp,3.0.7,59.98037442566704,
video/Experiment/zh_sp01_Ti_Ro_1_NoThetaInAudio_NoVideo.avi,noTheta,noVideo,sp01,Ti,Ro,1,3,4,flow/blocks/NoThetaInAudio_NoVideo_B.csv,,,,,,,,,0,3,3,3,0,8,8,8,,,,,,,,,-0.40879629629629627,-0.10925925925925926,1,0,0,5.100838299957104,call3,-0.0032407407407407406,-0.10092592592592593,1,0,0,5.503661000053398,colour3,0.41898148148148145,0.30324074074074076,1,0,0,6.005704400013201,number1,True,True,True,32,2,2019_Nov_18_1600,MA_Theta_Exp,3.0.7,59.98037442566704,
video/Experiment/zh_sp01_Un_Ge_4_NoThetaInAudio_NoVideo.avi,noTheta,noVideo,sp01,Un,Ge,4,3,4,flow/blocks/NoThetaInAudio_NoVideo_B.csv,,,,,,,,,0,3,3,3,0,9,9,19,,,,,,,,,-0.4046296296296296,-0.3175925925925926,1,0,0,4.9078550999984145,call4,0.03009259259259259,0.3296296296296296,1,0,0,5.557701800018549,colour1,0.4009259259259259,-0.3439814814814815,1,0,0,6.313413099967875,number4,True,True,True,32,2,2019_Nov_18_1600,MA_Theta_Exp,3.0.7,59.98037442566704,
video/Experiment/zh_sp01_Dr_Ro_1_NoThetaInAudio_NoVideo.avi,noTheta,noVideo,sp01,Dr,Ro,1,3,4,flow/blocks/NoThetaInAudio_NoVideo_B.csv,,,,,,,,,0,3,3,3,0,10,10,24,,,,,,,,,-0.350462962962963,-0.3148148148148148,1,0,0,5.224317800020799,call4,0.00787037037037037,-0.11481481481481481,1,0,0,5.657468099961989,colour3,0.3175925925925926,0.30462962962962964,1,0,0,6.176519299973734,number1,False,True,True,32,2,2019_Nov_18_1600,MA_Theta_Exp,3.0.7,59.98037442566704,
video/Experiment/zh_sp01_Ad_We_4_NoThetaInAudio_NoVideo.avi,noTheta,noVideo,sp01,Ad,We,4,3,4,flow/blocks/NoThetaInAudio_NoVideo_B.csv,,,,,,,,,0,3,3,3,0,11,11,31,,,,,,,,,-0.3907407407407407,0.29907407407407405,1,0,0,4.861673699924722,call1,0.04953703703703704,-0.3148148148148148,1,0,0,5.581293899915181,colour4,0.4148148148148148,-0.30648148148148147,1,0,0,6.015232700039633,number4,True,True,True,32,2,2019_Nov_18_1600,MA_Theta_Exp,3.0.7,59.98037442566704,
video/Experiment/zh_sp01_Dr_Ge_3_NoThetaInAudio_NoVideo.avi,noTheta,noVideo,sp01,Dr,Ge,3,3,4,flow/blocks/NoThetaInAudio_NoVideo_B.csv,,,,,,,,,0,3,3,3,0,12,12,2,,,,,,,,,-0.38935185185185184,0.08935185185185185,1,0,0,4.908493100083433,call2,0.0787037037037037,0.30324074074074076,1,0,0,5.3509957999922335,colour1,0.36898148148148147,-0.07314814814814814,1,0,0,5.994957800023258,number3,True,True,True,32,2,2019_Nov_18_1600,MA_Theta_Exp,3.0.7,59.98037442566704,
video/Experiment/zh_sp01_Dr_We_1_NoThetaInAudio_NoVideo.avi,noTheta,noVideo,sp01,Dr,We,1,3,4,flow/blocks/NoThetaInAudio_NoVideo_B.csv,,,,,,,,,0,3,3,3,0,13,13,28,,,,,,,,,-0.3824074074074074,0.10740740740740741,1,0,0,5.069687700015493,call2,0.020370370370370372,-0.22453703703703703,1,0,0,5.546502500073984,colour4,0.3662037037037037,0.22685185185185186,1,0,0,6.606179399997927,number1,True,True,True,32,2,2019_Nov_18_1600,MA_Theta_Exp,3.0.7,59.98037442566704,
video/Experiment/zh_sp07_Ad_Ro_2_NoThetaInAudio_NoVideo.avi,noTheta,noVideo,sp07,Ad,Ro,2,3,4,flow/blocks/NoThetaInAudio_NoVideo_B.csv,,,,,,,,,0,3,3,3,0,14,14,25,,,,,,,,,-0.35324074074074074,0.30462962962962964,1,0,0,4.3047500000102445,call1,0.025925925925925925,-0.062037037037037036,1,0,0,4.950829399982467,colour3,0.38981481481481484,0.11712962962962963,1,0,0,5.423306999960914,number2,True,True,True,32,2,2019_Nov_18_1600,MA_Theta_Exp,3.0.7,59.98037442566704,
video/Experiment/zh_sp07_Dr_We_4_NoThetaInAudio_NoVideo.avi,noTheta,noVideo,sp07,Dr,We,4,3,4,flow/blocks/NoThetaInAudio_NoVideo_B.csv,,,,,,,,,0,3,3,3,0,15,15,15,,,,,,,,,-0.40046296296296297,0.09490740740740741,1,0,0,4.992592200054787,call2,-0.021296296296296296,0.13935185185185187,1,0,0,7.041079899994656,colour2,0.4064814814814815,-0.09398148148148149,1,0,0,7.494189899996854,number3,True,False,False,32,2,2019_Nov_18_1600,MA_Theta_Exp,3.0.7,59.98037442566704,
video/Experiment/zh_sp07_Dr_We_3_NoThetaInAudio_NoVideo.avi,noTheta,noVideo,sp07,Dr,We,3,3,4,flow/blocks/NoThetaInAudio_NoVideo_B.csv,,,,,,,,,0,3,3,3,0,16,16,14,,,,,,,,,-0.33935185185185185,-0.29953703703703705,1,0,0,5.305804800009355,call4,0.06898148148148148,-0.34675925925925927,1,0,0,6.103533199988306,colour4,0.3425925925925926,-0.08564814814814815,1,0,0,6.608929399983026,number3,False,True,True,32,2,2019_Nov_18_1600,MA_Theta_Exp,3.0.7,59.98037442566704,
video/Experiment/zh_sp07_Un_Ro_4_NoThetaInAudio_NoVideo.avi,noTheta,noVideo,sp07,Un,Ro,4,3,4,flow/blocks/NoThetaInAudio_NoVideo_B.csv,,,,,,,,,0,3,3,3,0,17,17,27,,,,,,,,,-0.350462962962963,-0.3314814814814815,1,0,0,4.457907799980603,call4,-0.01574074074074074,-0.1412037037037037,1,0,0,4.896377700031735,colour3,0.42592592592592593,-0.3148148148148148,1,0,0,5.445700400043279,number4,True,True,True,32,2,2019_Nov_18_1600,MA_Theta_Exp,3.0.7,59.98037442566704,
video/Experiment/zh_sp01_Ti_We_1_NoThetaInAudio_NoVideo.avi,noTheta,noVideo,sp01,Ti,We,1,3,4,flow/blocks/NoThetaInAudio_NoVideo_B.csv,,,,,,,,,0,3,3,3,0,18,18,12,,,,,,,,,-0.33101851851851855,-0.0912037037037037,1,0,0,4.9683945999713615,call3,0.005092592592592593,-0.3439814814814815,1,0,0,5.37584849994164,colour4,0.4217592592592593,0.2949074074074074,1,0,0,6.109958600020036,number1,True,True,True,32,2,2019_Nov_18_1600,MA_Theta_Exp,3.0.7,59.98037442566704,
video/Experiment/zh_sp07_Un_Gr_3_NoThetaInAudio_NoVideo.avi,noTheta,noVideo,sp07,Un,Gr,3,3,4,flow/blocks/NoThetaInAudio_NoVideo_B.csv,,,,,,,,,0,3,3,3,0,19,19,6,,,,,,,,,-0.3726851851851852,0.16018518518518518,1,0,0,5.39060669997707,call2,0.016203703703703703,0.08935185185185185,1,0,0,6.371621300000697,colour2,0.42453703703703705,-0.11898148148148148,1,0,0,6.927035100059584,number3,False,True,True,32,2,2019_Nov_18_1600,MA_Theta_Exp,3.0.7,59.98037442566704,
video/Experiment/zh_sp01_Ad_Ge_1_NoThetaInAudio_NoVideo.avi,noTheta,noVideo,sp01,Ad,Ge,1,3,4,flow/blocks/NoThetaInAudio_NoVideo_B.csv,,,,,,,,,0,3,3,3,0,20,20,16,,,,,,,,,-0.39490740740740743,0.2824074074074074,1,0,0,5.27522609999869,call1,0.0787037037037037,0.29212962962962963,1,0,0,6.437103500007652,colour1,0.4009259259259259,0.33935185185185185,1,0,0,6.992870099958964,number1,True,True,True,32,2,2019_Nov_18_1600,MA_Theta_Exp,3.0.7,59.98037442566704,
video/Experiment/zh_sp01_Un_We_2_NoThetaInAudio_NoVideo.avi,noTheta,noVideo,sp01,Un,We,2,3,4,flow/blocks/NoThetaInAudio_NoVideo_B.csv,,,,,,,,,0,3,3,3,0,21,21,13,,,,,,,,,-0.3824074074074074,-0.37037037037037035,1,0,0,5.00187079992611,call4,-0.0060185185185185185,-0.2953703703703704,1,0,0,5.418267599889077,colour4,0.4162037037037037,0.08935185185185185,1,0,0,6.005385100026615,number2,True,True,True,32,2,2019_Nov_18_1600,MA_Theta_Exp,3.0.7,59.98037442566704,
video/Experiment/zh_sp01_Un_Gr_2_NoThetaInAudio_NoVideo.avi,noTheta,noVideo,sp01,Un,Gr,2,3,4,flow/blocks/NoThetaInAudio_NoVideo_B.csv,,,,,,,,,0,3,3,3,0,22,22,5,,,,,,,,,-0.3851851851851852,-0.30925925925925923,1,0,0,5.281153799965978,call4,0.027314814814814816,0.06157407407407407,1,0,0,5.780970299965702,colour2,0.4064814814814815,0.14907407407407408,1,0,0,6.166586100007407,number2,True,True,True,32,2,2019_Nov_18_1600,MA_Theta_Exp,3.0.7,59.98037442566704,
video/Experiment/zh_sp07_Dr_Ro_3_NoThetaInAudio_NoVideo.avi,noTheta,noVideo,sp07,Dr,Ro,3,3,4,flow/blocks/NoThetaInAudio_NoVideo_B.csv,,,,,,,,,0,3,3,3,0,23,23,26,,,,,,,,,-0.36712962962962964,0.13518518518518519,1,0,0,4.3624893999658525,call2,-0.02962962962962963,0.10740740740740741,1,0,0,4.765731299994513,colour2,0.387037037037037,-0.0912037037037037,1,0,0,5.284342799917795,number3,True,False,True,32,2,2019_Nov_18_1600,MA_Theta_Exp,3.0.7,59.98037442566704,
video/Experiment/zh_sp07_Ti_Gr_2_NoThetaInAudio_NoVideo.avi,noTheta,noVideo,sp07,Ti,Gr,2,3,4,flow/blocks/NoThetaInAudio_NoVideo_B.csv,,,,,,,,,0,3,3,3,0,24,24,21,,,,,,,,,-0.35324074074074074,-0.09398148148148149,1,0,0,4.4085249999770895,call3,0.023148148148148147,0.09768518518518518,1,0,0,5.414624999975786,colour2,0.34675925925925927,0.11157407407407408,1,0,0,5.785686300019734,number2,True,True,True,32,2,2019_Nov_18_1600,MA_Theta_Exp,3.0.7,59.98037442566704,
video/Experiment/zh_sp07_Un_Ge_1_NoThetaInAudio_NoVideo.avi,noTheta,noVideo,sp07,Un,Ge,1,3,4,flow/blocks/NoThetaInAudio_NoVideo_B.csv,,,,,,,,,0,3,3,3,0,25,25,0,,,,,,,,,-0.3768518518518518,0.26990740740740743,1,0,0,4.595049800002016,call1,0.055092592592592596,-0.30648148148148147,1,0,0,5.600850399932824,colour4,0.36064814814814816,0.2949074074074074,1,0,0,6.261635700007901,number1,False,False,True,32,2,2019_Nov_18_1600,MA_Theta_Exp,3.0.7,59.98037442566704,
video/Experiment/zh_sp01_Un_Gr_4_NoThetaInAudio_NoVideo.avi,noTheta,noVideo,sp01,Un,Gr,4,3,4,flow/blocks/NoThetaInAudio_NoVideo_B.csv,,,,,,,,,0,3,3,3,0,26,26,23,,,,,,,,,-0.38796296296296295,-0.29398148148148145,1,0,0,4.728084200061858,call4,0.005092592592592593,0.06851851851851852,1,0,0,5.166079999995418,colour2,0.40370370370370373,-0.2953703703703704,1,0,0,5.666910500032827,number4,True,True,True,32,2,2019_Nov_18_1600,MA_Theta_Exp,3.0.7,59.98037442566704,
video/Experiment/zh_sp01_Dr_Ge_2_NoThetaInAudio_NoVideo.avi,noTheta,noVideo,sp01,Dr,Ge,2,3,4,flow/blocks/NoThetaInAudio_NoVideo_B.csv,,,,,,,,,0,3,3,3,0,27,27,17,,,,,,,,,-0.4046296296296296,0.11435185185185186,1,0,0,4.957673099939711,call2,-0.022685185185185187,0.3101851851851852,1,0,0,5.573342200019397,colour1,0.37175925925925923,0.14212962962962963,1,0,0,6.023545500007458,number2,True,True,True,32,2,2019_Nov_18_1600,MA_Theta_Exp,3.0.7,59.98037442566704,
video/Experiment/zh_sp07_Ti_Ro_4_NoThetaInAudio_NoVideo.avi,noTheta,noVideo,sp07,Ti,Ro,4,3,4,flow/blocks/NoThetaInAudio_NoVideo_B.csv,,,,,,,,,0,3,3,3,0,28,28,11,,,,,,,,,-0.3712962962962963,-0.12037037037037036,1,0,0,4.380479499930516,call3,0.010648148148148148,-0.09953703703703703,1,0,0,4.744603099999949,colour3,0.4148148148148148,-0.3189814814814815,1,0,0,5.212702700053342,number4,True,True,True,32,2,2019_Nov_18_1600,MA_Theta_Exp,3.0.7,59.98037442566704,
video/Experiment/zh_sp07_Ad_Ro_3_NoThetaInAudio_NoVideo.avi,noTheta,noVideo,sp07,Ad,Ro,3,3,4,flow/blocks/NoThetaInAudio_NoVideo_B.csv,,,,,,,,,0,3,3,3,0,29,29,10,,,,,,,,,-0.4074074074074074,0.287962962962963,1,0,0,4.362447599996813,call1,0.0912037037037037,0.300462962962963,1,0,0,5.031809100066312,colour1,0.3939814814814815,-0.1050925925925926,1,0,0,7.307678500073962,number3,True,False,True,32,2,2019_Nov_18_1600,MA_Theta_Exp,3.0.7,59.98037442566704,
video/Experiment/zh_sp01_Ti_Gr_3_NoThetaInAudio_NoVideo.avi,noTheta,noVideo,sp01,Ti,Gr,3,3,4,flow/blocks/NoThetaInAudio_NoVideo_B.csv,,,,,,,,,0,3,3,3,0,30,30,22,,,,,,,,,-0.40185185185185185,-0.1300925925925926,1,0,0,4.93427970004268,call3,-0.0032407407407407406,0.07546296296296297,1,0,0,5.465906199999154,colour2,0.4078703703703704,-0.09814814814814815,1,0,0,5.953359599923715,number3,True,True,True,32,2,2019_Nov_18_1600,MA_Theta_Exp,3.0.7,59.98037442566704,
video/Experiment/zh_sp07_Un_Ro_2_NoThetaInAudio_NoVideo.avi,noTheta,noVideo,sp07,Un,Ro,2,3,4,flow/blocks/NoThetaInAudio_NoVideo_B.csv,,,,,,,,,0,3,3,3,0,31,31,9,,,,,,,,,-0.38657407407407407,-0.32592592592592595,1,0,0,5.1487294000107795,call4,0.000925925925925926,-0.07453703703703704,1,0,0,5.683419200009666,colour3,0.37453703703703706,0.12407407407407407,1,0,0,6.532859400031157,number2,True,True,True,32,2,2019_Nov_18_1600,MA_Theta_Exp,3.0.7,59.98037442566704,
video/Experiment/zh_sp07_Ti_Ro_2_NVocInAudio_NoVideo.avi,vocoded,noVideo,sp07,Ti,Ro,2,4,2,flow/blocks/NVocInAudio_NoVideo_A.csv,,,,,,,,,0,4,4,4,0,0,0,25,,,,,,,,,-0.3296296296296296,-0.062037037037037036,1,0,0,5.022808500099927,call3,0.03425925925925926,-0.08148148148148149,1,0,0,5.408610500046052,colour3,0.4078703703703704,0.13518518518518519,1,0,0,6.0916608000406995,number2,True,True,True,32,2,2019_Nov_18_1600,MA_Theta_Exp,3.0.7,59.98037442566704,
video/Experiment/zh_sp01_Dr_Ro_2_NVocInAudio_NoVideo.avi,vocoded,noVideo,sp01,Dr,Ro,2,4,2,flow/blocks/NVocInAudio_NoVideo_A.csv,,,,,,,,,0,4,4,4,0,1,1,9,,,,,,,,,-0.35185185185185186,0.11018518518518519,1,0,0,5.229710299987346,call2,0.006481481481481481,-0.1162037037037037,1,0,0,5.695023400010541,colour3,0.34814814814814815,0.06296296296296296,1,0,0,6.111481399973854,number2,True,True,True,32,2,2019_Nov_18_1600,MA_Theta_Exp,3.0.7,59.98037442566704,
video/Experiment/zh_sp01_Un_Ge_2_NVocInAudio_NoVideo.avi,vocoded,noVideo,sp01,Un,Ge,2,4,2,flow/blocks/NVocInAudio_NoVideo_A.csv,,,,,,,,,0,4,4,4,0,2,2,17,,,,,,,,,-0.38101851851851853,-0.32314814814814813,1,0,0,5.2744364000391215,call4,0.025925925925925925,0.29768518518518516,1,0,0,5.8095756999682635,colour1,0.4398148148148148,0.12824074074074074,1,0,0,6.292338699917309,number2,True,True,True,32,2,2019_Nov_18_1600,MA_Theta_Exp,3.0.7,59.98037442566704,
video/Experiment/zh_sp07_Un_Ro_1_NVocInAudio_NoVideo.avi,vocoded,noVideo,sp07,Un,Ro,1,4,2,flow/blocks/NVocInAudio_NoVideo_A.csv,,,,,,,,,0,4,4,4,0,3,3,24,,,,,,,,,-0.37962962962962965,-0.3037037037037037,1,0,0,4.432740500080399,call4,-0.02962962962962963,-0.10231481481481482,1,0,0,4.868422399973497,colour3,0.3814814814814815,0.32685185185185184,1,0,0,5.398410700028762,number1,True,True,True,32,2,2019_Nov_18_1600,MA_Theta_Exp,3.0.7,59.98037442566704,
video/Experiment/zh_sp07_Ti_Ge_2_NVocInAudio_NoVideo.avi,vocoded,noVideo,sp07,Ti,Ge,2,4,2,flow/blocks/NVocInAudio_NoVideo_A.csv,,,,,,,,,0,4,4,4,0,4,4,1,,,,,,,,,-0.3768518518518518,-0.10787037037037037,1,0,0,4.510248399921693,call3,-0.004629629629629629,0.31574074074074077,1,0,0,5.021888199960813,colour1,0.4078703703703704,0.11851851851851852,1,0,0,5.493467399966903,number2,True,True,True,32,2,2019_Nov_18_1600,MA_Theta_Exp,3.0.7,59.98037442566704,
video/Experiment/zh_sp01_Dr_Gr_2_NVocInAudio_NoVideo.avi,vocoded,noVideo,sp01,Dr,Gr,2,4,2,flow/blocks/NVocInAudio_NoVideo_A.csv,,,,,,,,,0,4,4,4,0,5,5,5,,,,,,,,,-0.38101851851851853,0.08796296296296297,1,0,0,5.261542699998245,call2,-0.01990740740740741,0.11574074074074074,1,0,0,5.658783000078984,colour2,0.4162037037037037,0.12407407407407407,1,0,0,6.177773599978536,number2,True,True,True,32,2,2019_Nov_18_1600,MA_Theta_Exp,3.0.7,59.98037442566704,
video/Experiment/zh_sp01_Ad_Ro_4_NVocInAudio_NoVideo.avi,vocoded,noVideo,sp01,Ad,Ro,4,4,2,flow/blocks/NVocInAudio_NoVideo_A.csv,,,,,,,,,0,4,4,4,0,6,6,11,,,,,,,,,-0.3449074074074074,0.26990740740740743,1,0,0,5.176703599980101,call1,0.03981481481481482,-0.10925925925925926,1,0,0,5.724559599999338,colour3,0.41898148148148145,-0.32175925925925924,1,0,0,6.438993299962021,number4,True,True,True,32,2,2019_Nov_18_1600,MA_Theta_Exp,3.0.7,59.98037442566704,
video/Experiment/zh_sp07_Un_We_3_NVocInAudio_NoVideo.avi,vocoded,noVideo,sp07,Un,We,3,4,2,flow/blocks/NVocInAudio_NoVideo_A.csv,,,,,,,,,0,4,4,4,0,7,7,14,,,,,,,,,-0.4046296296296296,-0.34675925925925927,1,0,0,4.181182699976489,call4,0.04814814814814815,-0.2814814814814815,1,0,0,4.7273608999093994,colour4,0.4356481481481482,-0.08287037037037037,1,0,0,5.196122099994682,number3,True,True,True,32,2,2019_Nov_18_1600,MA_Theta_Exp,3.0.7,59.98037442566704,
video/Experiment/zh_sp07_Ad_Gr_3_NVocInAudio_NoVideo.avi,vocoded,noVideo,sp07,Ad,Gr,3,4,2,flow/blocks/NVocInAudio_NoVideo_A.csv,,,,,,,,,0,4,4,4,0,8,8,22,,,,,,,,,-0.3476851851851852,0.27685185185185185,1,0,0,5.3502512000268325,call1,-0.012962962962962963,0.07824074074074074,1,0,0,5.735236700042151,colour2,0.39675925925925926,-0.15231481481481482,1,0,0,6.166802100022323,number3,True,True,True,32,2,2019_Nov_18_1600,MA_Theta_Exp,3.0.7,59.98037442566704,
video/Experiment/zh_sp07_Dr_Ro_4_NVocInAudio_NoVideo.avi,vocoded,noVideo,sp07,Dr,Ro,4,4,2,flow/blocks/NVocInAudio_NoVideo_A.csv,,,,,,,,,0,4,4,4,0,9,9,27,,,,,,,,,-0.39490740740740743,0.13240740740740742,1,0,0,4.4125493000028655,call2,0.027314814814814816,-0.14537037037037037,1,0,0,5.047602699953131,colour3,0.38564814814814813,-0.387037037037037,1,0,0,5.61578239989467,number4,True,True,True,32,2,2019_Nov_18_1600,MA_Theta_Exp,3.0.7,59.98037442566704,
video/Experiment/zh_sp07_Ad_We_2_NVocInAudio_NoVideo.avi,vocoded,noVideo,sp07,Ad,We,2,4,2,flow/blocks/NVocInAudio_NoVideo_A.csv,,,,,,,,,0,4,4,4,0,10,10,29,,,,,,,,,-0.40879629629629627,0.33101851851851855,1,0,0,4.320025600027293,call1,0.016203703703703703,-0.2773148148148148,1,0,0,4.890006100060418,colour4,0.3453703703703704,0.08101851851851852,1,0,0,5.374092799960636,number2,True,True,True,32,2,2019_Nov_18_1600,MA_Theta_Exp,3.0.7,59.98037442566704,
video/Experiment/zh_sp07_Un_Gr_1_NVocInAudio_NoVideo.avi,vocoded,noVideo,sp07,Un,Gr,1,4,2,flow/blocks/NVocInAudio_NoVideo_A.csv,,,,,,,,,0,4,4,4,0,11,11,20,,,,,,,,,-0.40324074074074073,-0.3439814814814815,1,0,0,4.3746577999554574,call4,0.06759259259259259,0.1087962962962963,1,0,0,4.942928200005554,colour2,0.45092592592592595,0.3296296296296296,1,0,0,5.625416100025177,number1,True,True,True,32,2,2019_Nov_18_1600,MA_Theta_Exp,3.0.7,59.98037442566704,
video/Experiment/zh_sp07_Dr_Gr_4_NVocInAudio_NoVideo.avi,vocoded,noVideo,sp07,Dr,Gr,4,4,2,flow/blocks/NVocInAudio_NoVideo_A.csv,,,,,,,,,0,4,4,4,0,12,12,23,,,,,,,,,-0.38796296296296295,0.11018518518518519,1,0,0,4.5027678000042215,call2,-0.010185185185185186,0.11018518518518519,1,0,0,4.87388580001425,colour2,0.399537037037037,-0.2953703703703704,1,0,0,5.473949100007303,number4,True,True,True,32,2,2019_Nov_18_1600,MA_Theta_Exp,3.0.7,59.98037442566704,
video/Experiment/zh_sp01_Ti_Ge_1_NVocInAudio_NoVideo.avi,vocoded,noVideo,sp01,Ti,Ge,1,4,2,flow/blocks/NVocInAudio_NoVideo_A.csv,,,,,,,,,0,4,4,4,0,13,13,16,,,,,,,,,-0.4393518518518518,-0.10648148148148148,1,0,0,5.256607599905692,call3,-0.000462962962962963,0.3351851851851852,1,0,0,5.891408700030297,colour1,0.39675925925925926,0.33796296296296297,1,0,0,6.308560000034049,number1,True,True,True,32,2,2019_Nov_18_1600,MA_Theta_Exp,3.0.7,59.98037442566704,
video/Experiment/zh_sp01_Ti_Gr_4_NVocInAudio_NoVideo.avi,vocoded,noVideo,sp01,Ti,Gr,4,4,2,flow/blocks/NVocInAudio_NoVideo_A.csv,,,,,,,,,0,4,4,4,0,14,14,7,,,,,,,,,-0.3587962962962963,-0.13703703703703704,1,0,0,5.138961800024845,call3,-0.05462962962962963,0.09490740740740741,1,0,0,5.521271299920045,colour2,0.41064814814814815,-0.3592592592592593,1,0,0,6.1760693999240175,number4,True,True,True,32,2,2019_Nov_18_1600,MA_Theta_Exp,3.0.7,59.98037442566704,
video/Experiment/zh_sp01_Ad_Gr_1_NVocInAudio_NoVideo.avi,vocoded,noVideo,sp01,Ad,Gr,1,4,2,flow/blocks/NVocInAudio_NoVideo_A.csv,,,,,,,,,0,4,4,4,0,15,15,4,,,,,,,,,-0.41712962962962963,0.27685185185185185,1,0,0,6.030507800052874,call1,0.03148148148148148,0.12268518518518519,1,0,0,6.494746800046414,colour2,0.3731481481481482,0.33240740740740743,1,0,0,6.884332400048152,number1,True,True,True,32,2,2019_Nov_18_1600,MA_Theta_Exp,3.0.7,59.98037442566704,
video/Experiment/zh_sp01_Ti_We_4_NVocInAudio_NoVideo.avi,vocoded,noVideo,sp01,Ti,We,4,4,2,flow/blocks/NVocInAudio_NoVideo_A.csv,,,,,,,,,0,4,4,4,0,16,16,31,,,,,,,,,-0.40185185185185185,-0.1162037037037037,1,0,0,4.947649700101465,call3,-0.05740740740740741,-0.31203703703703706,1,0,0,5.374910100013949,colour4,0.4162037037037037,-0.3162037037037037,1,0,0,5.792247000033967,number4,True,True,True,32,2,2019_Nov_18_1600,MA_Theta_Exp,3.0.7,59.98037442566704,
video/Experiment/zh_sp01_Ad_We_1_NVocInAudio_NoVideo.avi,vocoded,noVideo,sp01,Ad,We,1,4,2,flow/blocks/NVocInAudio_NoVideo_A.csv,,,,,,,,,0,4,4,4,0,17,17,12,,,,,,,,,-0.3824074074074074,0.2962962962962963,1,0,0,5.012261900003068,call1,0.012037037037037037,-0.3148148148148148,1,0,0,5.696266300044954,colour4,0.3592592592592593,0.28379629629629627,1,0,0,6.27365790004842,number1,True,True,True,32,2,2019_Nov_18_1600,MA_Theta_Exp,3.0.7,59.98037442566704,
video/Experiment/zh_sp07_Un_Ge_3_NVocInAudio_NoVideo.avi,vocoded,noVideo,sp07,Un,Ge,3,4,2,flow/blocks/NVocInAudio_NoVideo_A.csv,,,,,,,,,0,4,4,4,0,18,18,2,,,,,,,,,-0.38657407407407407,-0.32592592592592595,1,0,0,4.286945899948478,call4,-0.011574074074074073,0.26296296296296295,1,0,0,4.953876999905333,colour1,0.3537037037037037,-0.08703703703703704,1,0,0,5.602278000093065,number3,True,True,True,32,2,2019_Nov_18_1600,MA_Theta_Exp,3.0.7,59.98037442566704,
video/Experiment/zh_sp07_Un_We_4_NVocInAudio_NoVideo.avi,vocoded,noVideo,sp07,Un,We,4,4,2,flow/blocks/NVocInAudio_NoVideo_A.csv,,,,,,,,,0,4,4,4,0,19,19,15,,,,,,,,,-0.3768518518518518,-0.29398148148148145,1,0,0,4.317576400004327,call4,-0.04490740740740741,-0.29814814814814816,1,0,0,4.7869089000159875,colour4,0.39675925925925926,-0.30648148148148147,1,0,0,5.28411619993858,number4,True,True,True,32,2,2019_Nov_18_1600,MA_Theta_Exp,3.0.7,59.98037442566704,
video/Experiment/zh_sp07_Ad_We_3_NVocInAudio_NoVideo.avi,vocoded,noVideo,sp07,Ad,We,3,4,2,flow/blocks/NVocInAudio_NoVideo_A.csv,,,,,,,,,0,4,4,4,0,20,20,30,,,,,,,,,-0.37962962962962965,0.3212962962962963,1,0,0,4.263109200051986,call1,0.028703703703703703,-0.2953703703703704,1,0,0,4.892127100029029,colour4,0.3912037037037037,-0.07731481481481481,1,0,0,5.364366499939933,number3,True,True,True,32,2,2019_Nov_18_1600,MA_Theta_Exp,3.0.7,59.98037442566704,
video/Experiment/zh_sp01_Un_Ro_3_NVocInAudio_NoVideo.avi,vocoded,noVideo,sp01,Un,Ro,3,4,2,flow/blocks/NVocInAudio_NoVideo_A.csv,,,,,,,,,0,4,4,4,0,21,21,26,,,,,,,,,-0.412962962962963,-0.3300925925925926,1,0,0,4.997095900005661,call4,0.023148148148148147,-0.09398148148148149,1,0,0,5.463360300054774,colour3,0.4162037037037037,-0.06898148148148148,1,0,0,5.915873599937186,number3,True,True,True,32,2,2019_Nov_18_1600,MA_Theta_Exp,3.0.7,59.98037442566704,
video/Experiment/zh_sp01_Dr_Ge_1_NVocInAudio_NoVideo.avi,vocoded,noVideo,sp01,Dr,Ge,1,4,2,flow/blocks/NVocInAudio_NoVideo_A.csv,,,,,,,,,0,4,4,4,0,22,22,0,,,,,,,,,-0.45046296296296295,0.08935185185185185,1,0,0,5.005795700009912,call2,-0.050462962962962966,0.29768518518518516,1,0,0,5.4730127999791875,colour1,0.3662037037037037,0.35185185185185186,1,0,0,5.8735384999308735,number1,True,True,True,32,2,2019_Nov_18_1600,MA_Theta_Exp,3.0.7,59.98037442566704,
video/Experiment/zh_sp07_Ad_Ro_1_NVocInAudio_NoVideo.avi,vocoded,noVideo,sp07,Ad,Ro,1,4,2,flow/blocks/NVocInAudio_NoVideo_A.csv,,,,,,,,,0,4,4,4,0,23,23,8,,,,,,,,,-0.35324074074074074,0.3101851851851852,1,0,0,4.244496200000867,call1,0.017592592592592594,-0.09398148148148149,1,0,0,4.716390900081024,colour3,0.43842592592592594,0.33240740740740743,1,0,0,5.194284100085497,number1,True,True,True,32,2,2019_Nov_18_1600,MA_Theta_Exp,3.0.7,59.98037442566704,
video/Experiment/zh_sp01_Ad_Gr_2_NVocInAudio_NoVideo.avi,vocoded,noVideo,sp01,Ad,Gr,2,4,2,flow/blocks/NVocInAudio_NoVideo_A.csv,,,,,,,,,0,4,4,4,0,24,24,21,,,,,,,,,-0.37546296296296294,0.29907407407407405,1,0,0,5.014822599943727,call1,0.01898148148148148,0.0837962962962963,1,0,0,5.4161492000566795,colour2,0.3648148148148148,0.12546296296296297,1,0,0,5.795288400026038,number2,True,True,True,32,2,2019_Nov_18_1600,MA_Theta_Exp,3.0.7,59.98037442566704,
video/Experiment/zh_sp01_Ti_Ge_3_NVocInAudio_NoVideo.avi,vocoded,noVideo,sp01,Ti,Ge,3,4,2,flow/blocks/NVocInAudio_NoVideo_A.csv,,,,,,,,,0,4,4,4,0,25,25,18,,,,,,,,,-0.34629629629629627,-0.07037037037037037,1,0,0,4.943874299991876,call3,0.04953703703703704,0.3074074074074074,1,0,0,5.525871400022879,colour1,0.43703703703703706,-0.1050925925925926,1,0,0,6.180820100009441,number3,True,True,True,32,2,2019_Nov_18_1600,MA_Theta_Exp,3.0.7,59.98037442566704,
video/Experiment/zh_sp01_Ti_Ro_3_NVocInAudio_NoVideo.avi,vocoded,noVideo,sp01,Ti,Ro,3,4,2,flow/blocks/NVocInAudio_NoVideo_A.csv,,,,,,,,,0,4,4,4,0,26,26,10,,,,,,,,,-0.41435185185185186,-0.1425925925925926,1,0,0,4.6679646000266075,call3,0.024537037037037038,-0.11064814814814815,1,0,0,5.064070999971591,colour3,0.4023148148148148,-0.08287037037037037,1,0,0,5.451819799956866,number3,True,True,True,32,2,2019_Nov_18_1600,MA_Theta_Exp,3.0.7,59.98037442566704,
video/Experiment/zh_sp01_Dr_Gr_3_NVocInAudio_NoVideo.avi,vocoded,noVideo,sp01,Dr,Gr,3,4,2,flow/blocks/NVocInAudio_NoVideo_A.csv,,,,,,,,,0,4,4,4,0,27,27,6,,,,,,,,,-0.3351851851851852,0.1337962962962963,1,0,0,5.168691399972886,call2,0.01898148148148148,0.13796296296296295,1,0,0,5.566757399938069,colour2,0.4064814814814815,-0.09675925925925925,1,0,0,6.033701799926348,number3,True,True,True,32,2,2019_Nov_18_1600,MA_Theta_Exp,3.0.7,59.98037442566704,
video/Experiment/zh_sp07_Un_We_1_NVocInAudio_NoVideo.avi,vocoded,noVideo,sp07,Un,We,1,4,2,flow/blocks/NVocInAudio_NoVideo_A.csv,,,,,,,,,0,4,4,4,0,28,28,28,,,,,,,,,-0.38101851851851853,-0.3148148148148148,1,0,0,4.297633999958634,call4,0.023148148148148147,-0.3314814814814815,1,0,0,5.280165400006808,colour4,0.41203703703703703,0.3226851851851852,1,0,0,5.8044785999227315,number1,True,True,True,32,2,2019_Nov_18_1600,MA_Theta_Exp,3.0.7,59.98037442566704,
video/Experiment/zh_sp01_Dr_Ge_4_NVocInAudio_NoVideo.avi,vocoded,noVideo,sp01,Dr,Ge,4,4,2,flow/blocks/NVocInAudio_NoVideo_A.csv,,,,,,,,,0,4,4,4,0,29,29,19,,,,,,,,,-0.35462962962962963,0.09907407407407408,1,0,0,5.0748326000757515,call2,0.03425925925925926,0.32546296296296295,1,0,0,5.638102400000207,colour1,0.399537037037037,-0.2675925925925926,1,0,0,6.40282279998064,number4,True,True,True,32,2,2019_Nov_18_1600,MA_Theta_Exp,3.0.7,59.98037442566704,
video/Experiment/zh_sp07_Dr_We_2_NVocInAudio_NoVideo.avi,vocoded,noVideo,sp07,Dr,We,2,4,2,flow/blocks/NVocInAudio_NoVideo_A.csv,,,,,,,,,0,4,4,4,0,30,30,13,,,,,,,,,-0.40324074074074073,0.10740740740740741,1,0,0,4.447727199993096,call2,0.02175925925925926,-0.32592592592592595,1,0,0,4.999088699929416,colour4,0.4412037037037037,0.13240740740740742,1,0,0,5.496755999978632,number2,True,True,True,32,2,2019_Nov_18_1600,MA_Theta_Exp,3.0.7,59.98037442566704,
video/Experiment/zh_sp07_Ti_Ge_4_NVocInAudio_NoVideo.avi,vocoded,noVideo,sp07,Ti,Ge,4,4,2,flow/blocks/NVocInAudio_NoVideo_A.csv,,,,,,,,,0,4,4,4,0,31,31,3,,,,,,,,,-0.36157407407407405,-0.10231481481481482,1,0,0,4.413462599972263,call3,-0.011574074074074073,0.33240740740740743,1,0,0,4.891539299977012,colour1,0.41759259259259257,-0.28564814814814815,1,0,0,5.746051200083457,number4,True,True,True,32,2,2019_Nov_18_1600,MA_Theta_Exp,3.0.7,59.98037442566704,
video/Experiment/zh_sp07_Dr_Ro_1_NoThetaInAudio_GlobalThetaInVideo.avi,noTheta,plusVideo,sp07,Dr,Ro,1,0,3,flow/blocks/NoThetaInAudio_GlobalThetaInVideo_B.csv,,,,,,,,,,,,,,,,,0,0,0,0,0,0,0,24,-0.362962962962963,0.11990740740740741,1,0,0,5.314288299996406,call2,0.03981481481481482,-0.1550925925925926,1,0,0,5.806151099968702,colour3,0.41064814814814815,0.36435185185185187,1,0,0,6.239570300094783,number1,True,True,True,32,2,2019_Nov_18_1600,MA_Theta_Exp,3.0.7,59.98037442566704,
video/Experiment/zh_sp01_Dr_Ge_3_NoThetaInAudio_GlobalThetaInVideo.avi,noTheta,plusVideo,sp01,Dr,Ge,3,0,3,flow/blocks/NoThetaInAudio_GlobalThetaInVideo_B.csv,,,,,,,,,,,,,,,,,0,0,0,0,0,1,1,2,-0.4185185185185185,0.14351851851851852,1,0,0,5.405633799964562,call2,0.03287037037037037,0.3837962962962963,1,0,0,5.934266800060868,colour1,0.41898148148148145,-0.06759259259259259,1,0,0,6.5491589000448585,number3,True,True,True,32,2,2019_Nov_18_1600,MA_Theta_Exp,3.0.7,59.98037442566704,
video/Experiment/zh_sp07_Ad_Ro_2_NoThetaInAudio_GlobalThetaInVideo.avi,noTheta,plusVideo,sp07,Ad,Ro,2,0,3,flow/blocks/NoThetaInAudio_GlobalThetaInVideo_B.csv,,,,,,,,,,,,,,,,,0,0,0,0,0,2,2,25,-0.36157407407407405,0.29907407407407405,1,0,0,4.383142800070345,call1,0.020370370370370372,-0.08287037037037037,1,0,0,4.93481830006931,colour3,0.3800925925925926,0.11018518518518519,1,0,0,5.317835299996659,number2,True,True,True,32,2,2019_Nov_18_1600,MA_Theta_Exp,3.0.7,59.98037442566704,
video/Experiment/zh_sp01_Ad_Ge_2_NoThetaInAudio_GlobalThetaInVideo.avi,noTheta,plusVideo,sp01,Ad,Ge,2,0,3,flow/blocks/NoThetaInAudio_GlobalThetaInVideo_B.csv,,,,,,,,,,,,,,,,,0,0,0,0,0,3,3,1,-0.3699074074074074,0.32546296296296295,1,0,0,5.294088400085457,call1,0.003703703703703704,0.3087962962962963,1,0,0,5.702145699993707,colour1,0.43425925925925923,0.09490740740740741,1,0,0,6.148073600023054,number2,True,True,True,32,2,2019_Nov_18_1600,MA_Theta_Exp,3.0.7,59.98037442566704,
video/Experiment/zh_sp07_Un_Ge_4_NoThetaInAudio_GlobalThetaInVideo.avi,noTheta,plusVideo,sp07,Un,Ge,4,0,3,flow/blocks/NoThetaInAudio_GlobalThetaInVideo_B.csv,,,,,,,,,,,,,,,,,0,0,0,0,0,4,4,19,-0.38101851851851853,-0.36898148148148147,1,0,0,4.9754200000315905,call4,0.006481481481481481,0.31157407407407406,1,0,0,5.8083148000296205,colour1,0.45925925925925926,-0.2967592592592593,1,0,0,6.557689299923368,number4,True,True,True,32,2,2019_Nov_18_1600,MA_Theta_Exp,3.0.7,59.98037442566704,
video/Experiment/zh_sp01_Ti_Ro_4_NoThetaInAudio_GlobalThetaInVideo.avi,noTheta,plusVideo,sp01,Ti,Ro,4,0,3,flow/blocks/NoThetaInAudio_GlobalThetaInVideo_B.csv,,,,,,,,,,,,,,,,,0,0,0,0,0,5,5,11,-0.3365740740740741,-0.09675925925925925,1,0,0,5.145257099997252,call3,0.025925925925925925,-0.09537037037037037,1,0,0,5.511149400030263,colour3,0.4425925925925926,-0.2773148148148148,1,0,0,5.981722700060345,number4,True,True,True,32,2,2019_Nov_18_1600,MA_Theta_Exp,3.0.7,59.98037442566704,
video/Experiment/zh_sp01_Dr_Ro_3_NoThetaInAudio_GlobalThetaInVideo.avi,noTheta,plusVideo,sp01,Dr,Ro,3,0,3,flow/blocks/NoThetaInAudio_GlobalThetaInVideo_B.csv,,,,,,,,,,,,,,,,,0,0,0,0,0,6,6,26,-0.36018518518518516,-0.3023148148148148,1,0,0,4.825827000080608,call4,0.0412037037037037,-0.15925925925925927,1,0,0,5.2619277000194415,colour3,0.34675925925925927,-0.07037037037037037,1,0,0,5.694163399981335,number3,False,True,True,32,2,2019_Nov_18_1600,MA_Theta_Exp,3.0.7,59.98037442566704,
video/Experiment/zh_sp07_Dr_Gr_1_NoThetaInAudio_GlobalThetaInVideo.avi,noTheta,plusVideo,sp07,Dr,Gr,1,0,3,flow/blocks/NoThetaInAudio_GlobalThetaInVideo_B.csv,,,,,,,,,,,,,,,,,0,0,0,0,0,7,7,20,-0.35462962962962963,-0.32175925925925924,1,0,0,4.581477800034918,call4,0.009259259259259259,0.11018518518518519,1,0,0,5.231529999990016,colour2,0.4064814814814815,0.3337962962962963,1,0,0,5.697886099922471,number1,False,True,True,32,2,2019_Nov_18_1600,MA_Theta_Exp,3.0.7,59.98037442566704,
video/Experiment/zh_sp01_Ti_We_1_NoThetaInAudio_GlobalThetaInVideo.avi,noTheta,plusVideo,sp01,Ti,We,1,0,3,flow/blocks/NoThetaInAudio_GlobalThetaInVideo_B.csv,,,,,,,,,,,,,,,,,0,0,0,0,0,8,8,12,-0.362962962962963,-0.1925925925925926,1,0,0,5.085523699992336,call3,0.025925925925925925,-0.34814814814814815,1,0,0,5.6810745999682695,colour4,0.40925925925925927,0.3296296296296296,1,0,0,6.29871819994878,number1,True,True,True,32,2,2019_Nov_18_1600,MA_Theta_Exp,3.0.7,59.98037442566704,
video/Experiment/zh_sp07_Ti_Gr_1_NoThetaInAudio_GlobalThetaInVideo.avi,noTheta,plusVideo,sp07,Ti,Gr,1,0,3,flow/blocks/NoThetaInAudio_GlobalThetaInVideo_B.csv,,,,,,,,,,,,,,,,,0,0,0,0,0,9,9,4,-0.36157407407407405,-0.10092592592592593,1,0,0,4.671562400064431,call3,-0.011574074074074073,0.12129629629629629,1,0,0,5.089760800008662,colour2,0.3425925925925926,0.30324074074074076,1,0,0,5.542299799970351,number1,True,True,True,32,2,2019_Nov_18_1600,MA_Theta_Exp,3.0.7,59.98037442566704,
video/Experiment/zh_sp01_Ad_Ge_3_NoThetaInAudio_GlobalThetaInVideo.avi,noTheta,plusVideo,sp01,Ad,Ge,3,0,3,flow/blocks/NoThetaInAudio_GlobalThetaInVideo_B.csv,,,,,,,,,,,,,,,,,0,0,0,0,0,10,10,18,-0.35185185185185186,0.2902777777777778,1,0,0,4.798710000002757,call1,0.017592592592592594,0.31527777777777777,1,0,0,5.748045700020157,colour1,0.4217592592592593,-0.11527777777777778,1,0,0,6.384822000050917,number3,True,True,True,32,2,2019_Nov_18_1600,MA_Theta_Exp,3.0.7,59.98037442566704,
video/Experiment/zh_sp07_Ad_Ro_3_NoThetaInAudio_GlobalThetaInVideo.avi,noTheta,plusVideo,sp07,Ad,Ro,3,0,3,flow/blocks/NoThetaInAudio_GlobalThetaInVideo_B.csv,,,,,,,,,,,,,,,,,0,0,0,0,0,11,11,10,-0.4115740740740741,0.31666666666666665,1,0,0,4.352679100004025,call1,0.07037037037037037,-0.07361111111111111,1,0,0,4.868796700029634,colour3,0.43148148148148147,-0.11666666666666667,1,0,0,5.281700100051239,number3,True,True,True,32,2,2019_Nov_18_1600,MA_Theta_Exp,3.0.7,59.98037442566704,
video/Experiment/zh_sp01_Un_We_2_NoThetaInAudio_GlobalThetaInVideo.avi,noTheta,plusVideo,sp01,Un,We,2,0,3,flow/blocks/NoThetaInAudio_GlobalThetaInVideo_B.csv,,,,,,,,,,,,,,,,,0,0,0,0,0,12,12,13,-0.36018518518518516,-0.3375,1,0,0,5.657999800052494,call4,0.016203703703703703,-0.30416666666666664,1,0,0,6.022840299992822,colour4,0.3592592592592593,0.12777777777777777,1,0,0,6.75609679997433,number2,True,True,True,32,2,2019_Nov_18_1600,MA_Theta_Exp,3.0.7,59.98037442566704,
video/Experiment/zh_sp07_Un_Gr_3_NoThetaInAudio_GlobalThetaInVideo.avi,noTheta,plusVideo,sp07,Un,Gr,3,0,3,flow/blocks/NoThetaInAudio_GlobalThetaInVideo_B.csv,,,,,,,,,,,,,,,,,0,0,0,0,0,13,13,6,-0.3449074074074074,-0.30694444444444446,1,0,0,4.444392499979585,call4,0.025925925925925925,0.10138888888888889,1,0,0,5.1273932999465615,colour2,0.4356481481481482,-0.1125,1,0,0,5.631169599946588,number3,True,True,True,32,2,2019_Nov_18_1600,MA_Theta_Exp,3.0.7,59.98037442566704,
video/Experiment/zh_sp01_Un_Ge_1_NoThetaInAudio_GlobalThetaInVideo.avi,noTheta,plusVideo,sp01,Un,Ge,1,0,3,flow/blocks/NoThetaInAudio_GlobalThetaInVideo_B.csv,,,,,,,,,,,,,,,,,0,0,0,0,0,14,14,0,-0.37824074074074077,-0.2875,1,0,0,5.157631499925628,call4,0.023148148148148147,0.2777777777777778,1,0,0,5.6952844999032095,colour1,0.5050925925925925,0.3736111111111111,1,0,0,6.07732380006928,number1,True,True,True,32,2,2019_Nov_18_1600,MA_Theta_Exp,3.0.7,59.98037442566704,
video/Experiment/zh_sp01_Un_Gr_2_NoThetaInAudio_GlobalThetaInVideo.avi,noTheta,plusVideo,sp01,Un,Gr,2,0,3,flow/blocks/NoThetaInAudio_GlobalThetaInVideo_B.csv,,,,,,,,,,,,,,,,,0,0,0,0,0,15,15,5,-0.37962962962962965,-0.33611111111111114,1,0,0,5.049268000060692,call4,0.03425925925925926,0.06527777777777778,1,0,0,5.950506099965423,colour2,0.37592592592592594,0.12777777777777777,1,0,0,6.369524799985811,number2,True,True,True,32,2,2019_Nov_18_1600,MA_Theta_Exp,3.0.7,59.98037442566704,
video/Experiment/zh_sp01_Ti_Ro_1_NoThetaInAudio_GlobalThetaInVideo.avi,noTheta,plusVideo,sp01,Ti,Ro,1,0,3,flow/blocks/NoThetaInAudio_GlobalThetaInVideo_B.csv,,,,,,,,,,,,,,,,,0,0,0,0,0,16,16,8,-0.35462962962962963,-0.0625,1,0,0,5.513717600028031,call3,-0.014351851851851852,-0.05,1,0,0,5.881885900045745,colour3,0.38287037037037036,0.3597222222222222,1,0,0,6.415566199924797,number1,True,True,True,32,2,2019_Nov_18_1600,MA_Theta_Exp,3.0.7,59.98037442566704,
video/Experiment/zh_sp07_Ad_Gr_4_NoThetaInAudio_GlobalThetaInVideo.avi,noTheta,plusVideo,sp07,Ad,Gr,4,0,3,flow/blocks/NoThetaInAudio_GlobalThetaInVideo_B.csv,,,,,,,,,,,,,,,,,0,0,0,0,0,17,17,7,-0.38935185185185184,-0.32916666666666666,1,0,0,4.921898799948394,call4,-0.0032407407407407406,0.12222222222222222,1,0,0,5.6048271000618115,colour2,0.4273148148148148,-0.35138888888888886,1,0,0,6.2584154000505805,number4,False,True,True,32,2,2019_Nov_18_1600,MA_Theta_Exp,3.0.7,59.98037442566704,
video/Experiment/zh_sp01_Un_Gr_4_NoThetaInAudio_GlobalThetaInVideo.avi,noTheta,plusVideo,sp01,Un,Gr,4,0,3,flow/blocks/NoThetaInAudio_GlobalThetaInVideo_B.csv,,,,,,,,,,,,,,,,,0,0,0,0,0,18,18,23,-0.3351851851851852,0.12638888888888888,1,0,0,5.157698899973184,call2,0.01898148148148148,0.125,1,0,0,7.090894800028764,colour2,0.38842592592592595,-0.3263888888888889,1,0,0,7.587520600063726,number4,False,True,True,32,2,2019_Nov_18_1600,MA_Theta_Exp,3.0.7,59.98037442566704,
video/Experiment/zh_sp07_Ti_Gr_3_NoThetaInAudio_GlobalThetaInVideo.avi,noTheta,plusVideo,sp07,Ti,Gr,3,0,3,flow/blocks/NoThetaInAudio_GlobalThetaInVideo_B.csv,,,,,,,,,,,,,,,,,0,0,0,0,0,19,19,22,-0.412962962962963,-0.12361111111111112,1,0,0,4.370493900030851,call3,-0.04351851851851852,0.09027777777777778,1,0,0,4.838996500009671,colour2,0.4064814814814815,-0.09722222222222222,1,0,0,5.271640700055286,number3,True,True,True,32,2,2019_Nov_18_1600,MA_Theta_Exp,3.0.7,59.98037442566704,
video/Experiment/zh_sp07_Ad_We_4_NoThetaInAudio_GlobalThetaInVideo.avi,noTheta,plusVideo,sp07,Ad,We,4,0,3,flow/blocks/NoThetaInAudio_GlobalThetaInVideo_B.csv,,,,,,,,,,,,,,,,,0,0,0,0,0,20,20,31,-0.4115740740740741,0.2833333333333333,1,0,0,4.371108400053345,call1,0.024537037037037038,-0.3236111111111111,1,0,0,5.033840400050394,colour4,0.4217592592592593,-0.3416666666666667,1,0,0,5.5846990999998525,number4,True,True,True,32,2,2019_Nov_18_1600,MA_Theta_Exp,3.0.7,59.98037442566704,
video/Experiment/zh_sp01_Ad_Ge_4_NoThetaInAudio_GlobalThetaInVideo.avi,noTheta,plusVideo,sp01,Ad,Ge,4,0,3,flow/blocks/NoThetaInAudio_GlobalThetaInVideo_B.csv,,,,,,,,,,,,,,,,,0,0,0,0,0,21,21,3,-0.4060185185185185,0.30694444444444446,1,0,0,4.913616899983026,call1,0.009259259259259259,0.31666666666666665,1,0,0,6.279762599966489,colour1,0.41064814814814815,-0.3416666666666667,1,0,0,6.930679600103758,number4,True,True,True,32,2,2019_Nov_18_1600,MA_Theta_Exp,3.0.7,59.98037442566704,
video/Experiment/zh_sp01_Dr_Ge_2_NoThetaInAudio_GlobalThetaInVideo.avi,noTheta,plusVideo,sp01,Dr,Ge,2,0,3,flow/blocks/NoThetaInAudio_GlobalThetaInVideo_B.csv,,,,,,,,,,,,,,,,,0,0,0,0,0,22,22,17,-0.34629629629629627,0.10277777777777777,1,0,0,5.102835800033063,call2,-0.0712962962962963,0.30416666666666664,1,0,0,5.570592299918644,colour1,0.42453703703703705,0.07222222222222222,1,0,0,6.037115399958566,number2,True,True,True,32,2,2019_Nov_18_1600,MA_Theta_Exp,3.0.7,59.98037442566704,
video/Experiment/zh_sp07_Un_Ro_2_NoThetaInAudio_GlobalThetaInVideo.avi,noTheta,plusVideo,sp07,Un,Ro,2,0,3,flow/blocks/NoThetaInAudio_GlobalThetaInVideo_B.csv,,,,,,,,,,,,,,,,,0,0,0,0,0,23,23,9,-0.3587962962962963,-0.32083333333333336,1,0,0,4.396612499956973,call4,0.01898148148148148,-0.10138888888888889,1,0,0,4.868491800036281,colour3,0.4078703703703704,0.17083333333333334,1,0,0,5.430081399972551,number2,True,True,True,32,2,2019_Nov_18_1600,MA_Theta_Exp,3.0.7,59.98037442566704,
video/Experiment/zh_sp07_Dr_We_3_NoThetaInAudio_GlobalThetaInVideo.avi,noTheta,plusVideo,sp07,Dr,We,3,0,3,flow/blocks/NoThetaInAudio_GlobalThetaInVideo_B.csv,,,,,,,,,,,,,,,,,0,0,0,0,0,24,24,14,-0.40324074074074073,0.10277777777777777,1,0,0,4.360261699999683,call2,-0.0060185185185185185,-0.29305555555555557,1,0,0,4.925232300069183,colour4,0.42453703703703705,-0.058333333333333334,1,0,0,5.629435900016688,number3,True,True,True,32,2,2019_Nov_18_1600,MA_Theta_Exp,3.0.7,59.98037442566704,
video/Experiment/zh_sp07_Ad_Ge_1_NoThetaInAudio_GlobalThetaInVideo.avi,noTheta,plusVideo,sp07,Ad,Ge,1,0,3,flow/blocks/NoThetaInAudio_GlobalThetaInVideo_B.csv,,,,,,,,,,,,,,,,,0,0,0,0,0,25,25,16,-0.3962962962962963,0.2875,1,0,0,4.132230299990624,call1,0.014814814814814815,0.2569444444444444,1,0,0,4.5135338000254706,colour1,0.38425925925925924,0.2875,1,0,0,4.9024903000099584,number1,True,True,True,32,2,2019_Nov_18_1600,MA_Theta_Exp,3.0.7,59.98037442566704,
video/Experiment/zh_sp07_Ti_We_2_NoThetaInAudio_GlobalThetaInVideo.avi,noTheta,plusVideo,sp07,Ti,We,2,0,3,flow/blocks/NoThetaInAudio_GlobalThetaInVideo_B.csv,,,,,,,,,,,,,,,,,0,0,0,0,0,26,26,29,-0.3768518518518518,-0.13055555555555556,1,0,0,4.384493499994278,call3,-0.01574074074074074,-0.3472222222222222,1,0,0,4.81429410004057,colour4,0.4023148148148148,0.058333333333333334,1,0,0,5.269906600005925,number2,True,True,True,32,2,2019_Nov_18_1600,MA_Theta_Exp,3.0.7,59.98037442566704,
video/Experiment/zh_sp01_Dr_We_1_NoThetaInAudio_GlobalThetaInVideo.avi,noTheta,plusVideo,sp01,Dr,We,1,0,3,flow/blocks/NoThetaInAudio_GlobalThetaInVideo_B.csv,,,,,,,,,,,,,,,,,0,0,0,0,0,27,27,28,-0.42268518518518516,0.15416666666666667,1,0,0,5.2909059000667185,call2,0.017592592592592594,-0.32222222222222224,1,0,0,5.88801620004233,colour4,0.4412037037037037,0.3347222222222222,1,0,0,6.406700700055808,number1,True,True,True,32,2,2019_Nov_18_1600,MA_Theta_Exp,3.0.7,59.98037442566704,
video/Experiment/zh_sp07_Ti_Gr_2_NoThetaInAudio_GlobalThetaInVideo.avi,noTheta,plusVideo,sp07,Ti,Gr,2,0,3,flow/blocks/NoThetaInAudio_GlobalThetaInVideo_B.csv,,,,,,,,,,,,,,,,,0,0,0,0,0,28,28,21,-0.3768518518518518,-0.11944444444444445,1,0,0,4.498841700027697,call3,0.03287037037037037,0.08333333333333333,1,0,0,4.852543299901299,colour2,0.36203703703703705,0.1388888888888889,1,0,0,5.251909700105898,number2,True,True,True,32,2,2019_Nov_18_1600,MA_Theta_Exp,3.0.7,59.98037442566704,
video/Experiment/zh_sp07_Dr_We_4_NoThetaInAudio_GlobalThetaInVideo.avi,noTheta,plusVideo,sp07,Dr,We,4,0,3,flow/blocks/NoThetaInAudio_GlobalThetaInVideo_B.csv,,,,,,,,,,,,,,,,,0,0,0,0,0,29,29,15,-0.35185185185185186,0.09861111111111111,1,0,0,4.529805799946189,call2,0.006481481481481481,-0.3472222222222222,1,0,0,5.244982199976221,colour4,0.4828703703703704,-0.09166666666666666,1,0,0,5.745180299971253,number3,True,True,False,32,2,2019_Nov_18_1600,MA_Theta_Exp,3.0.7,59.98037442566704,
video/Experiment/zh_sp01_Un_Ro_4_NoThetaInAudio_GlobalThetaInVideo.avi,noTheta,plusVideo,sp01,Un,Ro,4,0,3,flow/blocks/NoThetaInAudio_GlobalThetaInVideo_B.csv,,,,,,,,,,,,,,,,,0,0,0,0,0,30,30,27,-0.38657407407407407,-0.2791666666666667,1,0,0,6.25574819999747,call4,0.038425925925925926,-0.0625,1,0,0,7.404828800004907,colour3,0.4078703703703704,-0.34444444444444444,1,0,0,7.926539100008085,number4,True,True,True,32,2,2019_Nov_18_1600,MA_Theta_Exp,3.0.7,59.98037442566704,
video/Experiment/zh_sp01_Ti_We_3_NoThetaInAudio_GlobalThetaInVideo.avi,noTheta,plusVideo,sp01,Ti,We,3,0,3,flow/blocks/NoThetaInAudio_GlobalThetaInVideo_B.csv,,,,,,,,,,,,,,,,,0,0,0,0,0,31,31,30,-0.36574074074074076,-0.12083333333333333,1,0,0,4.970647600013763,call3,0.023148148148148147,-0.32083333333333336,1,0,0,5.3994578999700025,colour4,0.38981481481481484,-0.14305555555555555,1,0,0,5.794645100017078,number3,True,True,True,32,2,2019_Nov_18_1600,MA_Theta_Exp,3.0.7,59.98037442566704,
