videoFile,condition,video,speaker,callSign,colour,number,seq,id,block,exp.thisRepN,exp.thisTrialN,exp.thisN,exp.thisIndex,training.thisRepN,training.thisTrialN,training.thisN,training.thisIndex,firstHalf.thisRepN,firstHalf.thisTrialN,firstHalf.thisN,firstHalf.thisIndex,blocksA.thisRepN,blocksA.thisTrialN,blocksA.thisN,blocksA.thisIndex,mouseClickOnCall.x,mouseClickOnCall.y,mouseClickOnCall.leftButton,mouseClickOnCall.midButton,mouseClickOnCall.rightButton,mouseClickOnCall.time,mouseClickOnCall.clicked_name,mouseClickOnColour.x,mouseClickOnColour.y,mouseClickOnColour.leftButton,mouseClickOnColour.midButton,mouseClickOnColour.rightButton,mouseClickOnColour.time,mouseClickOnColour.clicked_name,mouseClickOnNumber.x,mouseClickOnNumber.y,mouseClickOnNumber.leftButton,mouseClickOnNumber.midButton,mouseClickOnNumber.rightButton,mouseClickOnNumber.time,mouseClickOnNumber.clicked_name,callSignCorrect,colourCorrect,numberCorrect,participant,order,date,expName,psychopyVersion,frameRate,
video/Training/zh_sp01_Ad_We_4_NVocInAudio_NoVideo.avi,vocoded,noVideo,sp01,Ad,We,4,,,,,,,,0,0,0,0,,,,,,,,,-0.3958333333333333,0.2796296296296296,1,0,0,9.588279900024645,call1,0.002777777777777778,-0.32592592592592595,1,0,0,10.618866499979049,colour4,0.3625,-0.3398148148148148,1,0,0,11.374943500035442,number4,True,True,True,33,3,2019_Nov_18_1700,MA_Theta_Exp,3.0.7,60.08607932916284,
video/Training/zh_sp07_Ad_Ge_3_NVocInAudio_NoVideo.avi,vocoded,noVideo,sp07,Ad,Ge,3,,,,,,,,0,1,1,1,,,,,,,,,,,,,,,,,,,,,,,,,,,,,,NO_ANSW,NO_ANSW,NO_ANSW,33,3,2019_Nov_18_1700,MA_Theta_Exp,3.0.7,60.08607932916284,
video/Training/zh_sp01_Dr_Ro_3_NVocInAudio_GlobalThetaInVideo.avi,vocoded,plusVideo,sp01,Dr,Ro,3,,,,,,,,0,2,2,2,,,,,,,,,,,,,,,,,,,,,,,,,,,,,,NO_ANSW,NO_ANSW,NO_ANSW,33,3,2019_Nov_18_1700,MA_Theta_Exp,3.0.7,60.08607932916284,
video/Training/zh_sp07_Dr_Gr_4_NVocInAudio_GlobalThetaInVideo.avi,vocoded,plusVideo,sp07,Dr,Gr,4,,,,,,,,0,3,3,3,,,,,,,,,,,,,,,,,,,,,,,,,,,,,,NO_ANSW,NO_ANSW,NO_ANSW,33,3,2019_Nov_18_1700,MA_Theta_Exp,3.0.7,60.08607932916284,
video/Training/zh_sp01_Ti_Gr_2_NoThetaInAudio_NoVideo.avi,noTheta,noVideo,sp01,Ti,Gr,2,,,,,,,,0,4,4,4,,,,,,,,,-0.43472222222222223,0.2935185185185185,1,0,0,12.573018299997784,call1,-0.015277777777777777,0.09490740740740741,1,0,0,13.31027269992046,colour2,,,,,,,,False,True,NO_ANSW,33,3,2019_Nov_18_1700,MA_Theta_Exp,3.0.7,60.08607932916284,
video/Training/zh_sp07_Ti_Ro_1_NoThetaInAudio_NoVideo.avi,noTheta,noVideo,sp07,Ti,Ro,1,,,,,,,,0,5,5,5,,,,,,,,,-0.39861111111111114,0.3365740740740741,1,0,0,4.833934599999338,call1,0.002777777777777778,-0.14953703703703702,1,0,0,5.752259099972434,colour3,0.3888888888888889,0.12962962962962962,1,0,0,6.619341999990866,number2,False,True,False,33,3,2019_Nov_18_1700,MA_Theta_Exp,3.0.7,60.08607932916284,
video/Training/zh_sp01_Un_Ge_1_NoThetaInAudio_GlobalThetaInVideo.avi,noTheta,plusVideo,sp01,Un,Ge,1,,,,,,,,0,6,6,6,,,,,,,,,0.37083333333333335,0.32407407407407407,1,0,0,6.961923300055787,call1,0.0,-0.12731481481481483,1,0,0,10.072998500079848,colour3,0.39444444444444443,0.31157407407407406,1,0,0,10.811820000060834,number1,False,False,True,33,3,2019_Nov_18_1700,MA_Theta_Exp,3.0.7,60.08607932916284,
video/Training/zh_sp07_Un_We_2_NoThetaInAudio_GlobalThetaInVideo.avi,noTheta,plusVideo,sp07,Un,We,2,,,,,,,,0,7,7,7,,,,,,,,,-0.3736111111111111,0.31712962962962965,1,0,0,4.8485272999387234,call1,0.004166666666666667,-0.3037037037037037,1,0,0,5.700239799916744,colour4,0.39861111111111114,0.11018518518518519,1,0,0,6.346170100034215,number2,False,True,True,33,3,2019_Nov_18_1700,MA_Theta_Exp,3.0.7,60.08607932916284,
video/Training/zh_sp01_Ad_Ge_1_GlobalTheta_NoVideo.avi,globalTheta,noVideo,sp01,Ad,Ge,1,,,,,,,,0,8,8,8,,,,,,,,,-0.4,0.287962962962963,1,0,0,5.516752199968323,call1,-0.04583333333333333,0.11018518518518519,1,0,0,10.629772300017066,colour2,0.3763888888888889,0.2962962962962963,1,0,0,11.226732200011611,number1,True,False,True,33,3,2019_Nov_18_1700,MA_Theta_Exp,3.0.7,60.08607932916284,
video/Training/zh_sp07_Ad_Ro_3_GlobalTheta_NoVideo.avi,globalTheta,noVideo,sp07,Ad,Ro,3,,,,,,,,0,9,9,9,,,,,,,,,-0.43472222222222223,0.30324074074074076,1,0,0,4.657815900049172,call1,0.029166666666666667,-0.2912037037037037,1,0,0,6.125746799982153,colour4,0.425,-0.1050925925925926,1,0,0,6.658079499960877,number3,True,False,True,33,3,2019_Nov_18_1700,MA_Theta_Exp,3.0.7,60.08607932916284,
video/Experiment/zh_sp07_Dr_Ro_2_GlobalTheta_NoVideo.avi,globalTheta,noVideo,sp07,Dr,Ro,2,0,5,flow/blocks/GlobalTheta_NoVideo_A.csv,,,,,,,,,0,0,0,0,0,0,0,9,-0.3902777777777778,0.28379629629629627,1,0,0,4.857471300056204,call1,-0.022222222222222223,-0.0912037037037037,1,0,0,5.603933100006543,colour3,0.4083333333333333,0.10185185185185185,1,0,0,6.288494999986142,number2,False,True,True,33,3,2019_Nov_18_1700,MA_Theta_Exp,3.0.7,60.08607932916284,
video/Experiment/zh_sp01_Un_Ro_3_GlobalTheta_NoVideo.avi,globalTheta,noVideo,sp01,Un,Ro,3,0,5,flow/blocks/GlobalTheta_NoVideo_A.csv,,,,,,,,,0,0,0,0,0,1,1,26,-0.4,-0.32314814814814813,1,0,0,5.946515099960379,call4,-0.025,-0.07175925925925926,1,0,0,6.60031219990924,colour3,0.35833333333333334,-0.11481481481481481,1,0,0,7.099980900064111,number3,True,True,True,33,3,2019_Nov_18_1700,MA_Theta_Exp,3.0.7,60.08607932916284,
video/Experiment/zh_sp01_Ti_Ge_3_GlobalTheta_NoVideo.avi,globalTheta,noVideo,sp01,Ti,Ge,3,0,5,flow/blocks/GlobalTheta_NoVideo_A.csv,,,,,,,,,0,0,0,0,0,2,2,18,-0.3972222222222222,-0.10648148148148148,1,0,0,5.2237057000165805,call3,,,,,,,,,,,,,,,True,NO_ANSW,NO_ANSW,33,3,2019_Nov_18_1700,MA_Theta_Exp,3.0.7,60.08607932916284,
video/Experiment/zh_sp01_Dr_Gr_3_GlobalTheta_NoVideo.avi,globalTheta,noVideo,sp01,Dr,Gr,3,0,5,flow/blocks/GlobalTheta_NoVideo_A.csv,,,,,,,,,0,0,0,0,0,3,3,6,-0.3958333333333333,-0.30787037037037035,1,0,0,5.455247099976987,call4,-0.018055555555555554,0.11435185185185186,1,0,0,6.1636351000051945,colour2,0.41944444444444445,-0.07037037037037037,1,0,0,6.753239499987103,number3,False,True,True,33,3,2019_Nov_18_1700,MA_Theta_Exp,3.0.7,60.08607932916284,
video/Experiment/zh_sp01_Un_We_1_GlobalTheta_NoVideo.avi,globalTheta,noVideo,sp01,Un,We,1,0,5,flow/blocks/GlobalTheta_NoVideo_A.csv,,,,,,,,,0,0,0,0,0,4,4,28,-0.4125,-0.3300925925925926,1,0,0,5.603372799931094,call4,0.002777777777777778,-0.3050925925925926,1,0,0,6.385192299960181,colour4,0.3902777777777778,0.30462962962962964,1,0,0,7.1319861999945715,number1,True,True,True,33,3,2019_Nov_18_1700,MA_Theta_Exp,3.0.7,60.08607932916284,
video/Experiment/zh_sp07_Un_Ro_1_GlobalTheta_NoVideo.avi,globalTheta,noVideo,sp07,Un,Ro,1,0,5,flow/blocks/GlobalTheta_NoVideo_A.csv,,,,,,,,,0,0,0,0,0,5,5,24,-0.40555555555555556,-0.3162037037037037,1,0,0,4.20148980000522,call4,0.04027777777777778,-0.15231481481481482,1,0,0,5.456748600001447,colour3,0.3861111111111111,0.2796296296296296,1,0,0,6.2572750999825075,number1,True,True,True,33,3,2019_Nov_18_1700,MA_Theta_Exp,3.0.7,60.08607932916284,
video/Experiment/zh_sp01_Ti_Ro_3_GlobalTheta_NoVideo.avi,globalTheta,noVideo,sp01,Ti,Ro,3,0,5,flow/blocks/GlobalTheta_NoVideo_A.csv,,,,,,,,,0,0,0,0,0,6,6,10,-0.38055555555555554,-0.13425925925925927,1,0,0,5.629770100000314,call3,0.013888888888888888,-0.32037037037037036,1,0,0,8.259912100038491,colour4,0.3972222222222222,-0.053703703703703705,1,0,0,9.07638720003888,number3,True,False,True,33,3,2019_Nov_18_1700,MA_Theta_Exp,3.0.7,60.08607932916284,
video/Experiment/zh_sp07_Un_Gr_1_GlobalTheta_NoVideo.avi,globalTheta,noVideo,sp07,Un,Gr,1,0,5,flow/blocks/GlobalTheta_NoVideo_A.csv,,,,,,,,,0,0,0,0,0,7,7,20,-0.4027777777777778,-0.29398148148148145,1,0,0,4.728506000014022,call4,-0.016666666666666666,0.08796296296296297,1,0,0,5.533809099928476,colour2,0.375,0.3143518518518518,1,0,0,6.198868500068784,number1,True,True,True,33,3,2019_Nov_18_1700,MA_Theta_Exp,3.0.7,60.08607932916284,
video/Experiment/zh_sp01_Un_Ge_2_GlobalTheta_NoVideo.avi,globalTheta,noVideo,sp01,Un,Ge,2,0,5,flow/blocks/GlobalTheta_NoVideo_A.csv,,,,,,,,,0,0,0,0,0,8,8,17,-0.4,-0.27314814814814814,1,0,0,5.268043600022793,call4,-0.015277777777777777,0.3087962962962963,1,0,0,6.083357400028035,colour1,0.4083333333333333,0.10740740740740741,1,0,0,6.752648300025612,number2,True,True,True,33,3,2019_Nov_18_1700,MA_Theta_Exp,3.0.7,60.08607932916284,
video/Experiment/zh_sp01_Dr_Ro_4_GlobalTheta_NoVideo.avi,globalTheta,noVideo,sp01,Dr,Ro,4,0,5,flow/blocks/GlobalTheta_NoVideo_A.csv,,,,,,,,,0,0,0,0,0,9,9,27,-0.3902777777777778,-0.08842592592592592,1,0,0,5.598793900106102,call3,0.008333333333333333,0.08935185185185185,1,0,0,6.256897500017658,colour2,0.3902777777777778,-0.12453703703703704,1,0,0,7.649177600047551,number3,False,False,False,33,3,2019_Nov_18_1700,MA_Theta_Exp,3.0.7,60.08607932916284,
video/Experiment/zh_sp07_Ti_We_4_GlobalTheta_NoVideo.avi,globalTheta,noVideo,sp07,Ti,We,4,0,5,flow/blocks/GlobalTheta_NoVideo_A.csv,,,,,,,,,0,0,0,0,0,10,10,31,-0.41805555555555557,-0.09398148148148149,1,0,0,4.554010899970308,call3,-0.002777777777777778,-0.3148148148148148,1,0,0,8.517618199926801,colour4,0.3888888888888889,-0.08425925925925926,1,0,0,9.890244700014591,number3,True,True,False,33,3,2019_Nov_18_1700,MA_Theta_Exp,3.0.7,60.08607932916284,
video/Experiment/zh_sp01_Ti_Ge_1_GlobalTheta_NoVideo.avi,globalTheta,noVideo,sp01,Ti,Ge,1,0,5,flow/blocks/GlobalTheta_NoVideo_A.csv,,,,,,,,,0,0,0,0,0,11,11,16,-0.3875,-0.10925925925925926,1,0,0,5.297055800096132,call3,-0.025,0.2810185185185185,1,0,0,6.487954800017178,colour1,0.4,0.3226851851851852,1,0,0,7.425573599990457,number1,True,True,True,33,3,2019_Nov_18_1700,MA_Theta_Exp,3.0.7,60.08607932916284,
video/Experiment/zh_sp07_Ad_Gr_2_GlobalTheta_NoVideo.avi,globalTheta,noVideo,sp07,Ad,Gr,2,0,5,flow/blocks/GlobalTheta_NoVideo_A.csv,,,,,,,,,0,0,0,0,0,12,12,21,-0.42916666666666664,-0.12453703703703704,1,0,0,11.046088199946098,call3,0.011111111111111112,0.10185185185185185,1,0,0,11.66467399999965,colour2,0.40555555555555556,0.34629629629629627,1,0,0,12.63143329997547,number1,False,True,False,33,3,2019_Nov_18_1700,MA_Theta_Exp,3.0.7,60.08607932916284,
video/Experiment/zh_sp07_Un_Ge_3_GlobalTheta_NoVideo.avi,globalTheta,noVideo,sp07,Un,Ge,3,0,5,flow/blocks/GlobalTheta_NoVideo_A.csv,,,,,,,,,0,0,0,0,0,13,13,2,-0.4125,-0.3175925925925926,1,0,0,4.554669099976309,call4,0.004166666666666667,0.31296296296296294,1,0,0,5.255484199966304,colour1,0.3888888888888889,-0.09953703703703703,1,0,0,6.088108900003135,number3,True,True,True,33,3,2019_Nov_18_1700,MA_Theta_Exp,3.0.7,60.08607932916284,
video/Experiment/zh_sp07_Dr_Gr_4_GlobalTheta_NoVideo.avi,globalTheta,noVideo,sp07,Dr,Gr,4,0,5,flow/blocks/GlobalTheta_NoVideo_A.csv,,,,,,,,,0,0,0,0,0,14,14,23,-0.37916666666666665,0.10046296296296296,1,0,0,4.729540300089866,call2,0.013888888888888888,0.1685185185185185,1,0,0,5.378844000049867,colour2,0.35,-0.11064814814814815,1,0,0,6.063611699966714,number3,True,True,False,33,3,2019_Nov_18_1700,MA_Theta_Exp,3.0.7,60.08607932916284,
video/Experiment/zh_sp07_Ti_Ge_2_GlobalTheta_NoVideo.avi,globalTheta,noVideo,sp07,Ti,Ge,2,0,5,flow/blocks/GlobalTheta_NoVideo_A.csv,,,,,,,,,0,0,0,0,0,15,15,1,-0.4166666666666667,-0.12037037037037036,1,0,0,4.501077699940652,call3,0.009722222222222222,0.32407407407407407,1,0,0,5.203713499940932,colour1,0.40694444444444444,0.31712962962962965,1,0,0,5.770617099944502,number1,True,True,False,33,3,2019_Nov_18_1700,MA_Theta_Exp,3.0.7,60.08607932916284,
video/Experiment/zh_sp01_Un_We_3_GlobalTheta_NoVideo.avi,globalTheta,noVideo,sp01,Un,We,3,0,5,flow/blocks/GlobalTheta_NoVideo_A.csv,,,,,,,,,0,0,0,0,0,16,16,14,-0.4166666666666667,-0.29398148148148145,1,0,0,6.587758399895392,call4,0.001388888888888889,-0.2773148148148148,1,0,0,7.806881900061853,colour4,0.3902777777777778,-0.1037037037037037,1,0,0,8.350970600033179,number3,True,True,True,33,3,2019_Nov_18_1700,MA_Theta_Exp,3.0.7,60.08607932916284,
video/Experiment/zh_sp07_Dr_Ge_1_GlobalTheta_NoVideo.avi,globalTheta,noVideo,sp07,Dr,Ge,1,0,5,flow/blocks/GlobalTheta_NoVideo_A.csv,,,,,,,,,0,0,0,0,0,17,17,0,-0.39444444444444443,0.30324074074074076,1,0,0,4.91926620004233,call1,0.03333333333333333,0.3199074074074074,1,0,0,5.4899415000109,colour1,0.4041666666666667,0.33101851851851855,1,0,0,6.03380139998626,number1,False,True,True,33,3,2019_Nov_18_1700,MA_Theta_Exp,3.0.7,60.08607932916284,
video/Experiment/zh_sp07_Un_We_4_GlobalTheta_NoVideo.avi,globalTheta,noVideo,sp07,Un,We,4,0,5,flow/blocks/GlobalTheta_NoVideo_A.csv,,,,,,,,,0,0,0,0,0,18,18,15,-0.39166666666666666,-0.32731481481481484,1,0,0,4.7758063999935985,call4,-0.005555555555555556,-0.3050925925925926,1,0,0,5.342725399998017,colour4,0.3486111111111111,-0.274537037037037,1,0,0,5.8393859000643715,number4,True,True,True,33,3,2019_Nov_18_1700,MA_Theta_Exp,3.0.7,60.08607932916284,
video/Experiment/zh_sp07_Ti_Gr_4_GlobalTheta_NoVideo.avi,globalTheta,noVideo,sp07,Ti,Gr,4,0,5,flow/blocks/GlobalTheta_NoVideo_A.csv,,,,,,,,,0,0,0,0,0,19,19,7,-0.39861111111111114,-0.08842592592592592,1,0,0,4.958616600022651,call3,0.058333333333333334,0.10046296296296296,1,0,0,5.574542799964547,colour2,0.4097222222222222,-0.060648148148148145,1,0,0,6.1609398000873625,number3,True,True,False,33,3,2019_Nov_18_1700,MA_Theta_Exp,3.0.7,60.08607932916284,
video/Experiment/zh_sp01_Ad_We_1_GlobalTheta_NoVideo.avi,globalTheta,noVideo,sp01,Ad,We,1,0,5,flow/blocks/GlobalTheta_NoVideo_A.csv,,,,,,,,,0,0,0,0,0,20,20,12,-0.4125,-0.09814814814814815,1,0,0,6.824026099988259,call3,0.005555555555555556,-0.2828703703703704,1,0,0,7.542456700000912,colour4,0.3541666666666667,0.3143518518518518,1,0,0,8.203819300048053,number1,False,True,True,33,3,2019_Nov_18_1700,MA_Theta_Exp,3.0.7,60.08607932916284,
video/Experiment/zh_sp01_Ad_We_2_GlobalTheta_NoVideo.avi,globalTheta,noVideo,sp01,Ad,We,2,0,5,flow/blocks/GlobalTheta_NoVideo_A.csv,,,,,,,,,0,0,0,0,0,21,21,29,-0.41805555555555557,0.30185185185185187,1,0,0,5.102910700021312,call1,0.03333333333333333,-0.3300925925925926,1,0,0,6.016676499973983,colour4,0.39444444444444443,0.11435185185185186,1,0,0,6.650256900000386,number2,True,True,True,33,3,2019_Nov_18_1700,MA_Theta_Exp,3.0.7,60.08607932916284,
video/Experiment/zh_sp01_Dr_We_2_GlobalTheta_NoVideo.avi,globalTheta,noVideo,sp01,Dr,We,2,0,5,flow/blocks/GlobalTheta_NoVideo_A.csv,,,,,,,,,0,0,0,0,0,22,22,13,-0.4,-0.31342592592592594,1,0,0,5.300307200057432,call4,-0.018055555555555554,-0.3023148148148148,1,0,0,5.906436100020073,colour4,0.4111111111111111,0.09074074074074075,1,0,0,6.434553400031291,number2,False,True,True,33,3,2019_Nov_18_1700,MA_Theta_Exp,3.0.7,60.08607932916284,
video/Experiment/zh_sp01_Ad_Ro_4_GlobalTheta_NoVideo.avi,globalTheta,noVideo,sp01,Ad,Ro,4,0,5,flow/blocks/GlobalTheta_NoVideo_A.csv,,,,,,,,,0,0,0,0,0,23,23,11,-0.37777777777777777,0.300462962962963,1,0,0,5.595911200041883,call1,0.0375,-0.09953703703703703,1,0,0,6.296486399951391,colour3,0.39861111111111114,-0.3300925925925926,1,0,0,6.7465674000559375,number4,True,True,True,33,3,2019_Nov_18_1700,MA_Theta_Exp,3.0.7,60.08607932916284,
video/Experiment/zh_sp07_Ti_Ro_2_GlobalTheta_NoVideo.avi,globalTheta,noVideo,sp07,Ti,Ro,2,0,5,flow/blocks/GlobalTheta_NoVideo_A.csv,,,,,,,,,0,0,0,0,0,24,24,25,-0.39861111111111114,-0.07037037037037037,1,0,0,4.88105710002128,call3,-0.004166666666666667,0.30462962962962964,1,0,0,5.560767299961299,colour1,0.3819444444444444,0.11851851851851852,1,0,0,6.03080399997998,number2,True,False,True,33,3,2019_Nov_18_1700,MA_Theta_Exp,3.0.7,60.08607932916284,
video/Experiment/zh_sp07_Ad_Gr_1_GlobalTheta_NoVideo.avi,globalTheta,noVideo,sp07,Ad,Gr,1,0,5,flow/blocks/GlobalTheta_NoVideo_A.csv,,,,,,,,,0,0,0,0,0,25,25,4,-0.375,0.2935185185185185,1,0,0,4.764411100069992,call1,0.006944444444444444,0.12129629629629629,1,0,0,5.305657800054178,colour2,0.4125,0.32685185185185184,1,0,0,5.832982099964283,number1,True,True,True,33,3,2019_Nov_18_1700,MA_Theta_Exp,3.0.7,60.08607932916284,
video/Experiment/zh_sp07_Ad_Gr_3_GlobalTheta_NoVideo.avi,globalTheta,noVideo,sp07,Ad,Gr,3,0,5,flow/blocks/GlobalTheta_NoVideo_A.csv,,,,,,,,,0,0,0,0,0,26,26,22,-0.38333333333333336,0.2824074074074074,1,0,0,4.60778780002147,call1,-0.022222222222222223,0.11712962962962963,1,0,0,5.1322033000178635,colour2,0.36944444444444446,-0.12453703703703704,1,0,0,5.642685600090772,number3,True,True,True,33,3,2019_Nov_18_1700,MA_Theta_Exp,3.0.7,60.08607932916284,
video/Experiment/zh_sp07_Ad_Ro_1_GlobalTheta_NoVideo.avi,globalTheta,noVideo,sp07,Ad,Ro,1,0,5,flow/blocks/GlobalTheta_NoVideo_A.csv,,,,,,,,,0,0,0,0,0,27,27,8,-0.3819444444444444,0.2865740740740741,1,0,0,4.140334099996835,call1,0.02638888888888889,0.1087962962962963,1,0,0,5.111638300004415,colour2,0.35,0.3143518518518518,1,0,0,5.573688999982551,number1,True,False,True,33,3,2019_Nov_18_1700,MA_Theta_Exp,3.0.7,60.08607932916284,
video/Experiment/zh_sp07_Ti_Ge_4_GlobalTheta_NoVideo.avi,globalTheta,noVideo,sp07,Ti,Ge,4,0,5,flow/blocks/GlobalTheta_NoVideo_A.csv,,,,,,,,,0,0,0,0,0,28,28,3,-0.425,0.30185185185185187,1,0,0,5.3872651000274345,call1,0.030555555555555555,-0.16064814814814815,1,0,0,8.254275899962522,colour3,0.3861111111111111,-0.2550925925925926,1,0,0,8.917589800083078,number4,False,False,True,33,3,2019_Nov_18_1700,MA_Theta_Exp,3.0.7,60.08607932916284,
video/Experiment/zh_sp01_Dr_Ge_4_GlobalTheta_NoVideo.avi,globalTheta,noVideo,sp01,Dr,Ge,4,0,5,flow/blocks/GlobalTheta_NoVideo_A.csv,,,,,,,,,0,0,0,0,0,29,29,19,-0.40694444444444444,0.11435185185185186,1,0,0,5.533506100066006,call2,0.009722222222222222,0.07268518518518519,1,0,0,8.26881209993735,colour2,0.44166666666666665,-0.30092592592592593,1,0,0,8.988028699997813,number4,True,False,True,33,3,2019_Nov_18_1700,MA_Theta_Exp,3.0.7,60.08607932916284,
video/Experiment/zh_sp01_Ad_We_3_GlobalTheta_NoVideo.avi,globalTheta,noVideo,sp01,Ad,We,3,0,5,flow/blocks/GlobalTheta_NoVideo_A.csv,,,,,,,,,0,0,0,0,0,30,30,30,-0.38333333333333336,0.2740740740740741,1,0,0,5.03976800001692,call1,0.008333333333333333,-0.3453703703703704,1,0,0,5.753115699975751,colour4,0.40555555555555556,-0.07314814814814814,1,0,0,6.239472699933685,number3,True,True,True,33,3,2019_Nov_18_1700,MA_Theta_Exp,3.0.7,60.08607932916284,
video/Experiment/zh_sp01_Dr_Gr_2_GlobalTheta_NoVideo.avi,globalTheta,noVideo,sp01,Dr,Gr,2,0,5,flow/blocks/GlobalTheta_NoVideo_A.csv,,,,,,,,,0,0,0,0,0,31,31,5,-0.4027777777777778,-0.08842592592592592,1,0,0,6.542757000075653,call3,-0.004166666666666667,0.08518518518518518,1,0,0,7.209085599984974,colour2,0.4666666666666667,0.05740740740740741,1,0,0,7.589905800065026,number2,False,True,True,33,3,2019_Nov_18_1700,MA_Theta_Exp,3.0.7,60.08607932916284,
video/Experiment/zh_sp01_Ad_Gr_4_NVocInAudio_GlobalThetaInVideo.avi,vocoded,plusVideo,sp01,Ad,Gr,4,1,1,flow/blocks/NVocInAudio_GlobalThetaInVideo_B.csv,,,,,,,,,0,1,1,1,0,0,0,7,-0.40555555555555556,0.3060185185185185,1,0,0,6.079365700017661,call1,0.015277777777777777,0.10740740740740741,1,0,0,6.8730756000149995,colour2,0.3861111111111111,-0.25925925925925924,1,0,0,7.545609499909915,number4,True,True,True,33,3,2019_Nov_18_1700,MA_Theta_Exp,3.0.7,60.08607932916284,
video/Experiment/zh_sp01_Un_Ge_1_NVocInAudio_GlobalThetaInVideo.avi,vocoded,plusVideo,sp01,Un,Ge,1,1,1,flow/blocks/NVocInAudio_GlobalThetaInVideo_B.csv,,,,,,,,,0,1,1,1,0,1,1,0,-0.40555555555555556,-0.34814814814814815,1,0,0,5.325214800075628,call4,0.001388888888888889,0.2824074074074074,1,0,0,6.075586899998598,colour1,0.3972222222222222,0.3087962962962963,1,0,0,6.547602299950086,number1,True,True,True,33,3,2019_Nov_18_1700,MA_Theta_Exp,3.0.7,60.08607932916284,
video/Experiment/zh_sp01_Un_Ro_4_NVocInAudio_GlobalThetaInVideo.avi,vocoded,plusVideo,sp01,Un,Ro,4,1,1,flow/blocks/NVocInAudio_GlobalThetaInVideo_B.csv,,,,,,,,,0,1,1,1,0,2,2,27,-0.42083333333333334,-0.30787037037037035,1,0,0,5.171620200038888,call4,-0.015277777777777777,-0.11481481481481481,1,0,0,5.805431500077248,colour3,0.39166666666666666,-0.2675925925925926,1,0,0,6.487589000025764,number4,True,True,True,33,3,2019_Nov_18_1700,MA_Theta_Exp,3.0.7,60.08607932916284,
video/Experiment/zh_sp01_Dr_Ro_1_NVocInAudio_GlobalThetaInVideo.avi,vocoded,plusVideo,sp01,Dr,Ro,1,1,1,flow/blocks/NVocInAudio_GlobalThetaInVideo_B.csv,,,,,,,,,0,1,1,1,0,3,3,24,-0.40555555555555556,0.15185185185185185,1,0,0,5.393510899972171,call2,-0.025,0.3351851851851852,1,0,0,6.05975200003013,colour1,0.3736111111111111,0.30185185185185187,1,0,0,6.489499100018293,number1,True,False,True,33,3,2019_Nov_18_1700,MA_Theta_Exp,3.0.7,60.08607932916284,
video/Experiment/zh_sp07_Un_Gr_3_NVocInAudio_GlobalThetaInVideo.avi,vocoded,plusVideo,sp07,Un,Gr,3,1,1,flow/blocks/NVocInAudio_GlobalThetaInVideo_B.csv,,,,,,,,,0,1,1,1,0,4,4,6,-0.3888888888888889,-0.29953703703703705,1,0,0,4.473874700022861,call4,0.004166666666666667,0.05740740740740741,1,0,0,5.540608300012536,colour2,0.38055555555555554,-0.10231481481481482,1,0,0,6.073955600033514,number3,True,True,True,33,3,2019_Nov_18_1700,MA_Theta_Exp,3.0.7,60.08607932916284,
video/Experiment/zh_sp07_Dr_We_4_NVocInAudio_GlobalThetaInVideo.avi,vocoded,plusVideo,sp07,Dr,We,4,1,1,flow/blocks/NVocInAudio_GlobalThetaInVideo_B.csv,,,,,,,,,0,1,1,1,0,5,5,15,-0.4013888888888889,-0.31203703703703706,1,0,0,4.795558199984953,call4,0.009722222222222222,-0.29398148148148145,1,0,0,6.009189800010063,colour4,0.3819444444444444,-0.28564814814814815,1,0,0,6.379917199956253,number4,False,True,True,33,3,2019_Nov_18_1700,MA_Theta_Exp,3.0.7,60.08607932916284,
video/Experiment/zh_sp01_Dr_We_1_NVocInAudio_GlobalThetaInVideo.avi,vocoded,plusVideo,sp01,Dr,We,1,1,1,flow/blocks/NVocInAudio_GlobalThetaInVideo_B.csv,,,,,,,,,0,1,1,1,0,6,6,28,-0.3638888888888889,-0.2884259259259259,1,0,0,7.54993880004622,call4,0.008333333333333333,-0.32731481481481484,1,0,0,8.033644699957222,colour4,0.3958333333333333,0.31712962962962965,1,0,0,8.746924199978821,number1,False,True,True,33,3,2019_Nov_18_1700,MA_Theta_Exp,3.0.7,60.08607932916284,
video/Experiment/zh_sp07_Ad_We_4_NVocInAudio_GlobalThetaInVideo.avi,vocoded,plusVideo,sp07,Ad,We,4,1,1,flow/blocks/NVocInAudio_GlobalThetaInVideo_B.csv,,,,,,,,,0,1,1,1,0,7,7,31,-0.43333333333333335,0.287962962962963,1,0,0,5.362595200072974,call1,0.002777777777777778,-0.3398148148148148,1,0,0,6.5329418000765145,colour4,0.3861111111111111,-0.32037037037037036,1,0,0,6.913850000011735,number4,True,True,True,33,3,2019_Nov_18_1700,MA_Theta_Exp,3.0.7,60.08607932916284,
video/Experiment/zh_sp07_Ad_Ro_2_NVocInAudio_GlobalThetaInVideo.avi,vocoded,plusVideo,sp07,Ad,Ro,2,1,1,flow/blocks/NVocInAudio_GlobalThetaInVideo_B.csv,,,,,,,,,0,1,1,1,0,8,8,25,-0.4013888888888889,0.2796296296296296,1,0,0,4.359815199975856,call1,0.020833333333333332,-0.08287037037037037,1,0,0,5.010410199989565,colour3,0.425,0.06851851851851852,1,0,0,5.864890799974091,number2,True,True,True,33,3,2019_Nov_18_1700,MA_Theta_Exp,3.0.7,60.08607932916284,
video/Experiment/zh_sp07_Dr_Ge_2_NVocInAudio_GlobalThetaInVideo.avi,vocoded,plusVideo,sp07,Dr,Ge,2,1,1,flow/blocks/NVocInAudio_GlobalThetaInVideo_B.csv,,,,,,,,,0,1,1,1,0,9,9,17,-0.4041666666666667,0.09768518518518518,1,0,0,6.148620899999514,call2,-0.027777777777777776,0.3143518518518518,1,0,0,8.064122800016776,colour1,0.3611111111111111,0.1449074074074074,1,0,0,8.582603199989535,number2,True,True,True,33,3,2019_Nov_18_1700,MA_Theta_Exp,3.0.7,60.08607932916284,
video/Experiment/zh_sp07_Dr_Ro_3_NVocInAudio_GlobalThetaInVideo.avi,vocoded,plusVideo,sp07,Dr,Ro,3,1,1,flow/blocks/NVocInAudio_GlobalThetaInVideo_B.csv,,,,,,,,,0,1,1,1,0,10,10,26,-0.38055555555555554,0.10740740740740741,1,0,0,4.432471700012684,call2,-0.015277777777777777,-0.10925925925925926,1,0,0,5.03308039996773,colour3,0.4625,-0.08287037037037037,1,0,0,5.5833597999298945,number3,True,True,True,33,3,2019_Nov_18_1700,MA_Theta_Exp,3.0.7,60.08607932916284,
video/Experiment/zh_sp01_Ti_Gr_1_NVocInAudio_GlobalThetaInVideo.avi,vocoded,plusVideo,sp01,Ti,Gr,1,1,1,flow/blocks/NVocInAudio_GlobalThetaInVideo_B.csv,,,,,,,,,0,1,1,1,0,11,11,4,-0.4152777777777778,-0.1050925925925926,1,0,0,5.386126900091767,call3,0.03194444444444444,0.12685185185185185,1,0,0,5.907101500080898,colour2,0.4,0.30324074074074076,1,0,0,7.134875699994154,number1,True,True,True,33,3,2019_Nov_18_1700,MA_Theta_Exp,3.0.7,60.08607932916284,
video/Experiment/zh_sp07_Dr_Gr_1_NVocInAudio_GlobalThetaInVideo.avi,vocoded,plusVideo,sp07,Dr,Gr,1,1,1,flow/blocks/NVocInAudio_GlobalThetaInVideo_B.csv,,,,,,,,,0,1,1,1,0,12,12,20,-0.4083333333333333,0.08657407407407407,1,0,0,5.751917400048114,call2,-0.03611111111111111,0.0962962962962963,1,0,0,6.272434700047597,colour2,0.3902777777777778,0.3282407407407407,1,0,0,6.869638300035149,number1,True,True,True,33,3,2019_Nov_18_1700,MA_Theta_Exp,3.0.7,60.08607932916284,
video/Experiment/zh_sp07_Dr_We_3_NVocInAudio_GlobalThetaInVideo.avi,vocoded,plusVideo,sp07,Dr,We,3,1,1,flow/blocks/NVocInAudio_GlobalThetaInVideo_B.csv,,,,,,,,,0,1,1,1,0,13,13,14,-0.4152777777777778,0.09074074074074075,1,0,0,4.485987099935301,call2,-0.05,-0.30648148148148147,1,0,0,5.114471999928355,colour4,0.42083333333333334,-0.11342592592592593,1,0,0,5.6350236000726,number3,True,True,True,33,3,2019_Nov_18_1700,MA_Theta_Exp,3.0.7,60.08607932916284,
video/Experiment/zh_sp07_Un_Gr_2_NVocInAudio_GlobalThetaInVideo.avi,vocoded,plusVideo,sp07,Un,Gr,2,1,1,flow/blocks/NVocInAudio_GlobalThetaInVideo_B.csv,,,,,,,,,0,1,1,1,0,14,14,5,-0.3958333333333333,-0.30787037037037035,1,0,0,4.663052599993534,call4,-0.013888888888888888,0.0962962962962963,1,0,0,5.417077599908225,colour2,0.375,0.11851851851851852,1,0,0,5.8458684999495745,number2,True,True,True,33,3,2019_Nov_18_1700,MA_Theta_Exp,3.0.7,60.08607932916284,
video/Experiment/zh_sp01_Dr_Ge_3_NVocInAudio_GlobalThetaInVideo.avi,vocoded,plusVideo,sp01,Dr,Ge,3,1,1,flow/blocks/NVocInAudio_GlobalThetaInVideo_B.csv,,,,,,,,,0,1,1,1,0,15,15,2,-0.40555555555555556,0.09351851851851851,1,0,0,5.119214600068517,call2,0.004166666666666667,0.2671296296296296,1,0,0,6.123680299962871,colour1,0.39305555555555555,-0.13425925925925927,1,0,0,6.757667399942875,number3,True,True,True,33,3,2019_Nov_18_1700,MA_Theta_Exp,3.0.7,60.08607932916284,
video/Experiment/zh_sp07_Ad_Ge_1_NVocInAudio_GlobalThetaInVideo.avi,vocoded,plusVideo,sp07,Ad,Ge,1,1,1,flow/blocks/NVocInAudio_GlobalThetaInVideo_B.csv,,,,,,,,,0,1,1,1,0,16,16,16,-0.4236111111111111,0.3226851851851852,1,0,0,4.518026600009762,call1,-0.006944444444444444,0.29768518518518516,1,0,0,4.999086000025272,colour1,0.34305555555555556,0.30462962962962964,1,0,0,5.399339900002815,number1,True,True,True,33,3,2019_Nov_18_1700,MA_Theta_Exp,3.0.7,60.08607932916284,
video/Experiment/zh_sp07_Ti_Ro_1_NVocInAudio_GlobalThetaInVideo.avi,vocoded,plusVideo,sp07,Ti,Ro,1,1,1,flow/blocks/NVocInAudio_GlobalThetaInVideo_B.csv,,,,,,,,,0,1,1,1,0,17,17,8,-0.4,-0.13703703703703704,1,0,0,4.944675500039011,call3,0.04722222222222222,-0.11481481481481481,1,0,0,5.433137500076555,colour3,0.3861111111111111,0.300462962962963,1,0,0,6.032793199992739,number1,True,True,True,33,3,2019_Nov_18_1700,MA_Theta_Exp,3.0.7,60.08607932916284,
video/Experiment/zh_sp07_Ti_We_1_NVocInAudio_GlobalThetaInVideo.avi,vocoded,plusVideo,sp07,Ti,We,1,1,1,flow/blocks/NVocInAudio_GlobalThetaInVideo_B.csv,,,,,,,,,0,1,1,1,0,18,18,12,-0.3888888888888889,-0.1259259259259259,1,0,0,4.264594899956137,call3,-0.008333333333333333,-0.3578703703703704,1,0,0,4.850243000080809,colour4,0.4236111111111111,0.32407407407407407,1,0,0,5.513634799979627,number1,True,True,True,33,3,2019_Nov_18_1700,MA_Theta_Exp,3.0.7,60.08607932916284,
video/Experiment/zh_sp07_Un_Ro_2_NVocInAudio_GlobalThetaInVideo.avi,vocoded,plusVideo,sp07,Un,Ro,2,1,1,flow/blocks/NVocInAudio_GlobalThetaInVideo_B.csv,,,,,,,,,0,1,1,1,0,19,19,9,-0.40694444444444444,-0.3023148148148148,1,0,0,5.760016999905929,call4,-0.04027777777777778,-0.1175925925925926,1,0,0,6.304316500085406,colour3,0.3125,0.10185185185185185,1,0,0,6.7493282000068575,number2,True,True,True,33,3,2019_Nov_18_1700,MA_Theta_Exp,3.0.7,60.08607932916284,
video/Experiment/zh_sp07_Un_Ge_4_NVocInAudio_GlobalThetaInVideo.avi,vocoded,plusVideo,sp07,Un,Ge,4,1,1,flow/blocks/NVocInAudio_GlobalThetaInVideo_B.csv,,,,,,,,,0,1,1,1,0,20,20,19,-0.3736111111111111,-0.31342592592592594,1,0,0,4.559161999961361,call4,-0.009722222222222222,0.2726851851851852,1,0,0,5.493941599968821,colour1,0.3819444444444444,-0.3287037037037037,1,0,0,6.429142899927683,number4,True,True,True,33,3,2019_Nov_18_1700,MA_Theta_Exp,3.0.7,60.08607932916284,
video/Experiment/zh_sp01_Ti_Ro_4_NVocInAudio_GlobalThetaInVideo.avi,vocoded,plusVideo,sp01,Ti,Ro,4,1,1,flow/blocks/NVocInAudio_GlobalThetaInVideo_B.csv,,,,,,,,,0,1,1,1,0,21,21,11,-0.3888888888888889,-0.13703703703703704,1,0,0,5.3057541999733075,call3,-0.002777777777777778,0.2671296296296296,1,0,0,6.604978200048208,colour1,0.4041666666666667,-0.30092592592592593,1,0,0,7.6197240999899805,number4,True,False,True,33,3,2019_Nov_18_1700,MA_Theta_Exp,3.0.7,60.08607932916284,
video/Experiment/zh_sp01_Ti_Gr_3_NVocInAudio_GlobalThetaInVideo.avi,vocoded,plusVideo,sp01,Ti,Gr,3,1,1,flow/blocks/NVocInAudio_GlobalThetaInVideo_B.csv,,,,,,,,,0,1,1,1,0,22,22,22,-0.3902777777777778,-0.09814814814814815,1,0,0,5.5945588001050055,call3,0.002777777777777778,0.11018518518518519,1,0,0,7.344495799974538,colour2,0.4,-0.08148148148148149,1,0,0,7.904431900009513,number3,True,True,True,33,3,2019_Nov_18_1700,MA_Theta_Exp,3.0.7,60.08607932916284,
video/Experiment/zh_sp07_Un_We_2_NVocInAudio_GlobalThetaInVideo.avi,vocoded,plusVideo,sp07,Un,We,2,1,1,flow/blocks/NVocInAudio_GlobalThetaInVideo_B.csv,,,,,,,,,0,1,1,1,0,23,23,13,-0.3611111111111111,-0.2967592592592593,1,0,0,4.573610999970697,call4,0.015277777777777777,-0.34120370370370373,1,0,0,5.123196600005031,colour4,0.375,0.10046296296296296,1,0,0,5.717029000050388,number2,True,True,True,33,3,2019_Nov_18_1700,MA_Theta_Exp,3.0.7,60.08607932916284,
video/Experiment/zh_sp01_Ad_Ge_3_NVocInAudio_GlobalThetaInVideo.avi,vocoded,plusVideo,sp01,Ad,Ge,3,1,1,flow/blocks/NVocInAudio_GlobalThetaInVideo_B.csv,,,,,,,,,0,1,1,1,0,24,24,18,-0.36944444444444446,0.25601851851851853,1,0,0,4.776263399980962,call1,0.015277777777777777,0.2824074074074074,1,0,0,5.257344499928877,colour1,0.37916666666666665,-0.11064814814814815,1,0,0,5.861356099951081,number3,True,True,True,33,3,2019_Nov_18_1700,MA_Theta_Exp,3.0.7,60.08607932916284,
video/Experiment/zh_sp07_Ti_We_2_NVocInAudio_GlobalThetaInVideo.avi,vocoded,plusVideo,sp07,Ti,We,2,1,1,flow/blocks/NVocInAudio_GlobalThetaInVideo_B.csv,,,,,,,,,0,1,1,1,0,25,25,29,-0.425,-0.09953703703703703,1,0,0,4.959884799900465,call3,-0.034722222222222224,0.04351851851851852,1,0,0,5.421406000037678,colour2,0.43333333333333335,0.06157407407407407,1,0,0,5.960653800051659,number2,True,False,True,33,3,2019_Nov_18_1700,MA_Theta_Exp,3.0.7,60.08607932916284,
video/Experiment/zh_sp01_Ad_Ge_4_NVocInAudio_GlobalThetaInVideo.avi,vocoded,plusVideo,sp01,Ad,Ge,4,1,1,flow/blocks/NVocInAudio_GlobalThetaInVideo_B.csv,,,,,,,,,0,1,1,1,0,26,26,3,-0.4166666666666667,0.2949074074074074,1,0,0,5.290241899900138,call1,-0.009722222222222222,0.3074074074074074,1,0,0,5.90581160003785,colour1,0.4097222222222222,-0.3148148148148148,1,0,0,6.588767300010659,number4,True,True,True,33,3,2019_Nov_18_1700,MA_Theta_Exp,3.0.7,60.08607932916284,
video/Experiment/zh_sp01_Un_Gr_4_NVocInAudio_GlobalThetaInVideo.avi,vocoded,plusVideo,sp01,Un,Gr,4,1,1,flow/blocks/NVocInAudio_GlobalThetaInVideo_B.csv,,,,,,,,,0,1,1,1,0,27,27,23,-0.4083333333333333,-0.34675925925925927,1,0,0,4.91395089996513,call4,0.0,0.11018518518518519,1,0,0,6.048355499980971,colour2,0.43194444444444446,-0.3162037037037037,1,0,0,6.801259399973787,number4,True,True,True,33,3,2019_Nov_18_1700,MA_Theta_Exp,3.0.7,60.08607932916284,
video/Experiment/zh_sp01_Ti_We_3_NVocInAudio_GlobalThetaInVideo.avi,vocoded,plusVideo,sp01,Ti,We,3,1,1,flow/blocks/NVocInAudio_GlobalThetaInVideo_B.csv,,,,,,,,,0,1,1,1,0,28,28,30,-0.4027777777777778,-0.2953703703703704,1,0,0,5.166070600040257,call4,-0.018055555555555554,-0.262037037037037,1,0,0,6.434167100000195,colour4,0.42083333333333334,-0.06759259259259259,1,0,0,6.962886599940248,number3,False,True,True,33,3,2019_Nov_18_1700,MA_Theta_Exp,3.0.7,60.08607932916284,
video/Experiment/zh_sp01_Ad_Ro_3_NVocInAudio_GlobalThetaInVideo.avi,vocoded,plusVideo,sp01,Ad,Ro,3,1,1,flow/blocks/NVocInAudio_GlobalThetaInVideo_B.csv,,,,,,,,,0,1,1,1,0,29,29,10,-0.3958333333333333,0.31296296296296294,1,0,0,5.7911692999769,call1,-0.02361111111111111,-0.07175925925925926,1,0,0,6.424225499969907,colour3,0.3611111111111111,-0.12453703703703704,1,0,0,6.889124399982393,number3,True,True,True,33,3,2019_Nov_18_1700,MA_Theta_Exp,3.0.7,60.08607932916284,
video/Experiment/zh_sp01_Ti_Gr_2_NVocInAudio_GlobalThetaInVideo.avi,vocoded,plusVideo,sp01,Ti,Gr,2,1,1,flow/blocks/NVocInAudio_GlobalThetaInVideo_B.csv,,,,,,,,,0,1,1,1,0,30,30,21,-0.3736111111111111,-0.1175925925925926,1,0,0,5.598822399973869,call3,0.020833333333333332,0.08935185185185185,1,0,0,6.2368215000024065,colour2,0.3597222222222222,0.10462962962962963,1,0,0,6.653859799960628,number2,True,True,True,33,3,2019_Nov_18_1700,MA_Theta_Exp,3.0.7,60.08607932916284,
video/Experiment/zh_sp01_Ad_Ge_2_NVocInAudio_GlobalThetaInVideo.avi,vocoded,plusVideo,sp01,Ad,Ge,2,1,1,flow/blocks/NVocInAudio_GlobalThetaInVideo_B.csv,,,,,,,,,0,1,1,1,0,31,31,1,-0.3958333333333333,0.287962962962963,1,0,0,5.403730000020005,call1,-0.030555555555555555,0.2337962962962963,1,0,0,6.273584200069308,colour1,0.3541666666666667,0.11435185185185186,1,0,0,7.035198500030674,number2,True,True,True,33,3,2019_Nov_18_1700,MA_Theta_Exp,3.0.7,60.08607932916284,
video/Experiment/zh_sp07_Ad_Ro_4_NoThetaInAudio_NoVideo.avi,noTheta,noVideo,sp07,Ad,Ro,4,2,4,flow/blocks/NoThetaInAudio_NoVideo_A.csv,,,,,,,,,0,2,2,2,0,0,0,11,-0.44027777777777777,0.28935185185185186,1,0,0,5.445132400025614,call1,0.005555555555555556,-0.14953703703703702,1,0,0,6.596548500005156,colour3,0.3875,-0.30787037037037035,1,0,0,8.023450499982573,number4,True,True,True,33,3,2019_Nov_18_1700,MA_Theta_Exp,3.0.7,60.08607932916284,
video/Experiment/zh_sp01_Ti_We_4_NoThetaInAudio_NoVideo.avi,noTheta,noVideo,sp01,Ti,We,4,2,4,flow/blocks/NoThetaInAudio_NoVideo_A.csv,,,,,,,,,0,2,2,2,0,1,1,31,-0.3861111111111111,-0.09398148148148149,1,0,0,5.155621999991126,call3,0.0375,-0.32592592592592595,1,0,0,5.788211300037801,colour4,0.42083333333333334,-0.33564814814814814,1,0,0,6.2998368999687955,number4,True,True,True,33,3,2019_Nov_18_1700,MA_Theta_Exp,3.0.7,60.08607932916284,
video/Experiment/zh_sp07_Dr_Ro_4_NoThetaInAudio_NoVideo.avi,noTheta,noVideo,sp07,Dr,Ro,4,2,4,flow/blocks/NoThetaInAudio_NoVideo_A.csv,,,,,,,,,0,2,2,2,0,2,2,27,-0.35833333333333334,-0.16620370370370371,1,0,0,5.400742599973455,call3,0.004166666666666667,-0.33564814814814814,1,0,0,8.492473299964331,colour4,0.43472222222222223,-0.3037037037037037,1,0,0,9.061983500025235,number4,False,False,True,33,3,2019_Nov_18_1700,MA_Theta_Exp,3.0.7,60.08607932916284,
video/Experiment/zh_sp01_Ad_Ro_1_NoThetaInAudio_NoVideo.avi,noTheta,noVideo,sp01,Ad,Ro,1,2,4,flow/blocks/NoThetaInAudio_NoVideo_A.csv,,,,,,,,,0,2,2,2,0,3,3,8,-0.36527777777777776,0.2601851851851852,1,0,0,5.522180799976923,call1,0.011111111111111112,-0.11481481481481481,1,0,0,6.092327399994247,colour3,0.4,0.2726851851851852,1,0,0,6.658692399971187,number1,True,True,True,33,3,2019_Nov_18_1700,MA_Theta_Exp,3.0.7,60.08607932916284,
video/Experiment/zh_sp01_Un_Ro_1_NoThetaInAudio_NoVideo.avi,noTheta,noVideo,sp01,Un,Ro,1,2,4,flow/blocks/NoThetaInAudio_NoVideo_A.csv,,,,,,,,,0,2,2,2,0,4,4,24,-0.38055555555555554,-0.3148148148148148,1,0,0,7.385114000062458,call4,-0.004166666666666667,-0.003703703703703704,1,0,0,8.547635199967772,colour2,0.4388888888888889,0.29768518518518516,1,0,0,9.719749599928036,number1,True,False,True,33,3,2019_Nov_18_1700,MA_Theta_Exp,3.0.7,60.08607932916284,
video/Experiment/zh_sp07_Ti_Ro_2_NoThetaInAudio_NoVideo.avi,noTheta,noVideo,sp07,Ti,Ro,2,2,4,flow/blocks/NoThetaInAudio_NoVideo_A.csv,,,,,,,,,0,2,2,2,0,5,5,25,-0.3416666666666667,-0.10925925925925926,1,0,0,4.424771100049838,call3,0.06527777777777778,-0.09537037037037037,1,0,0,5.126562800025567,colour3,0.48333333333333334,0.1337962962962963,1,0,0,5.675607100012712,number2,True,True,True,33,3,2019_Nov_18_1700,MA_Theta_Exp,3.0.7,60.08607932916284,
video/Experiment/zh_sp07_Ti_Ge_4_NoThetaInAudio_NoVideo.avi,noTheta,noVideo,sp07,Ti,Ge,4,2,4,flow/blocks/NoThetaInAudio_NoVideo_A.csv,,,,,,,,,0,2,2,2,0,6,6,3,-0.39861111111111114,-0.12037037037037036,1,0,0,4.4272794999415055,call3,0.020833333333333332,0.31712962962962965,1,0,0,5.142762699979357,colour1,0.4083333333333333,-0.2828703703703704,1,0,0,5.860901699983515,number4,True,True,True,33,3,2019_Nov_18_1700,MA_Theta_Exp,3.0.7,60.08607932916284,
video/Experiment/zh_sp01_Ad_We_1_NoThetaInAudio_NoVideo.avi,noTheta,noVideo,sp01,Ad,We,1,2,4,flow/blocks/NoThetaInAudio_NoVideo_A.csv,,,,,,,,,0,2,2,2,0,7,7,12,-0.3527777777777778,0.3449074074074074,1,0,0,5.820646099979058,call1,-0.005555555555555556,-0.3189814814814815,1,0,0,6.640153600019403,colour4,0.38472222222222224,0.3060185185185185,1,0,0,7.309018800035119,number1,True,True,True,33,3,2019_Nov_18_1700,MA_Theta_Exp,3.0.7,60.08607932916284,
video/Experiment/zh_sp07_Dr_Ge_1_NoThetaInAudio_NoVideo.avi,noTheta,noVideo,sp07,Dr,Ge,1,2,4,flow/blocks/NoThetaInAudio_NoVideo_A.csv,,,,,,,,,0,2,2,2,0,8,8,0,-0.3819444444444444,0.2824074074074074,1,0,0,4.545753099955618,call1,-0.034722222222222224,0.26851851851851855,1,0,0,4.997803299920633,colour1,0.43194444444444446,0.31712962962962965,1,0,0,5.511050600092858,number1,False,True,True,33,3,2019_Nov_18_1700,MA_Theta_Exp,3.0.7,60.08607932916284,
video/Experiment/zh_sp07_Ti_Ge_2_NoThetaInAudio_NoVideo.avi,noTheta,noVideo,sp07,Ti,Ge,2,2,4,flow/blocks/NoThetaInAudio_NoVideo_A.csv,,,,,,,,,0,2,2,2,0,9,9,1,-0.40694444444444444,-0.09814814814814815,1,0,0,4.80479910003487,call3,-0.016666666666666666,0.3296296296296296,1,0,0,5.432696299976669,colour1,0.5,0.10046296296296296,1,0,0,5.955190200009383,number2,True,True,True,33,3,2019_Nov_18_1700,MA_Theta_Exp,3.0.7,60.08607932916284,
video/Experiment/zh_sp07_Dr_Ge_4_NoThetaInAudio_NoVideo.avi,noTheta,noVideo,sp07,Dr,Ge,4,2,4,flow/blocks/NoThetaInAudio_NoVideo_A.csv,,,,,,,,,0,2,2,2,0,10,10,19,-0.425,-0.32037037037037036,1,0,0,4.810846999986097,call4,0.05138888888888889,0.28379629629629627,1,0,0,5.6172853000462055,colour1,0.38472222222222224,-0.3648148148148148,1,0,0,6.463922000024468,number4,False,True,True,33,3,2019_Nov_18_1700,MA_Theta_Exp,3.0.7,60.08607932916284,
video/Experiment/zh_sp01_Dr_Ro_2_NoThetaInAudio_NoVideo.avi,noTheta,noVideo,sp01,Dr,Ro,2,2,4,flow/blocks/NoThetaInAudio_NoVideo_A.csv,,,,,,,,,0,2,2,2,0,11,11,9,-0.42777777777777776,-0.06620370370370371,1,0,0,5.349092800053768,call3,-0.07083333333333333,-0.1175925925925926,1,0,0,5.880395699990913,colour3,0.3861111111111111,0.06018518518518518,1,0,0,6.47926659998484,number2,False,True,True,33,3,2019_Nov_18_1700,MA_Theta_Exp,3.0.7,60.08607932916284,
video/Experiment/zh_sp01_Ad_Gr_1_NoThetaInAudio_NoVideo.avi,noTheta,noVideo,sp01,Ad,Gr,1,2,4,flow/blocks/NoThetaInAudio_NoVideo_A.csv,,,,,,,,,0,2,2,2,0,12,12,4,-0.44583333333333336,0.2851851851851852,1,0,0,5.629282700014301,call1,0.005555555555555556,0.08935185185185185,1,0,0,6.331321500008926,colour2,0.38333333333333336,0.3365740740740741,1,0,0,6.866264099953696,number1,True,True,True,33,3,2019_Nov_18_1700,MA_Theta_Exp,3.0.7,60.08607932916284,
video/Experiment/zh_sp01_Un_We_4_NoThetaInAudio_NoVideo.avi,noTheta,noVideo,sp01,Un,We,4,2,4,flow/blocks/NoThetaInAudio_NoVideo_A.csv,,,,,,,,,0,2,2,2,0,13,13,15,-0.4041666666666667,-0.3287037037037037,1,0,0,4.905429199920036,call4,-0.029166666666666667,-0.33287037037037037,1,0,0,6.185743000009097,colour4,0.4638888888888889,-0.30925925925925923,1,0,0,6.677884200005792,number4,True,True,True,33,3,2019_Nov_18_1700,MA_Theta_Exp,3.0.7,60.08607932916284,
video/Experiment/zh_sp07_Ti_Ge_3_NoThetaInAudio_NoVideo.avi,noTheta,noVideo,sp07,Ti,Ge,3,2,4,flow/blocks/NoThetaInAudio_NoVideo_A.csv,,,,,,,,,0,2,2,2,0,14,14,18,-0.3888888888888889,-0.0912037037037037,1,0,0,4.509575700038113,call3,0.004166666666666667,0.29768518518518516,1,0,0,5.260150499991141,colour1,0.3861111111111111,-0.052314814814814814,1,0,0,5.9783858000300825,number3,True,True,True,33,3,2019_Nov_18_1700,MA_Theta_Exp,3.0.7,60.08607932916284,
video/Experiment/zh_sp07_Ad_Gr_2_NoThetaInAudio_NoVideo.avi,noTheta,noVideo,sp07,Ad,Gr,2,2,4,flow/blocks/NoThetaInAudio_NoVideo_A.csv,,,,,,,,,0,2,2,2,0,15,15,21,-0.44583333333333336,-0.08842592592592592,1,0,0,4.603582000010647,call3,0.009722222222222222,0.07685185185185185,1,0,0,5.144414699985646,colour2,0.30833333333333335,0.08796296296296297,1,0,0,5.509208100032993,number2,False,True,True,33,3,2019_Nov_18_1700,MA_Theta_Exp,3.0.7,60.08607932916284,
video/Experiment/zh_sp01_Un_We_3_NoThetaInAudio_NoVideo.avi,noTheta,noVideo,sp01,Un,We,3,2,4,flow/blocks/NoThetaInAudio_NoVideo_A.csv,,,,,,,,,0,2,2,2,0,16,16,14,-0.4166666666666667,-0.3106481481481482,1,0,0,5.014253500034101,call4,0.0,-0.3523148148148148,1,0,0,5.772418500040658,colour4,0.35694444444444445,-0.11064814814814815,1,0,0,6.355801799916662,number3,True,True,True,33,3,2019_Nov_18_1700,MA_Theta_Exp,3.0.7,60.08607932916284,
video/Experiment/zh_sp01_Dr_Gr_3_NoThetaInAudio_NoVideo.avi,noTheta,noVideo,sp01,Dr,Gr,3,2,4,flow/blocks/NoThetaInAudio_NoVideo_A.csv,,,,,,,,,0,2,2,2,0,17,17,6,-0.43194444444444446,0.11574074074074074,1,0,0,5.357426100061275,call2,0.03194444444444444,0.07546296296296297,1,0,0,5.911228200071491,colour2,0.42083333333333334,-0.1050925925925926,1,0,0,6.421459799981676,number3,True,True,True,33,3,2019_Nov_18_1700,MA_Theta_Exp,3.0.7,60.08607932916284,
video/Experiment/zh_sp07_Dr_Gr_2_NoThetaInAudio_NoVideo.avi,noTheta,noVideo,sp07,Dr,Gr,2,2,4,flow/blocks/NoThetaInAudio_NoVideo_A.csv,,,,,,,,,0,2,2,2,0,18,18,5,-0.3972222222222222,0.10601851851851851,1,0,0,4.3961987000657246,call2,0.002777777777777778,0.05324074074074074,1,0,0,4.866786899976432,colour2,0.3875,0.07962962962962963,1,0,0,5.377989899949171,number2,True,True,True,33,3,2019_Nov_18_1700,MA_Theta_Exp,3.0.7,60.08607932916284,
video/Experiment/zh_sp01_Ad_Gr_3_NoThetaInAudio_NoVideo.avi,noTheta,noVideo,sp01,Ad,Gr,3,2,4,flow/blocks/NoThetaInAudio_NoVideo_A.csv,,,,,,,,,0,2,2,2,0,19,19,22,-0.36666666666666664,0.32407407407407407,1,0,0,5.28175680001732,call1,-0.04027777777777778,0.05740740740740741,1,0,0,5.913741800002754,colour2,0.37083333333333335,-0.16064814814814815,1,0,0,6.47614069993142,number3,True,True,True,33,3,2019_Nov_18_1700,MA_Theta_Exp,3.0.7,60.08607932916284,
video/Experiment/zh_sp01_Ti_Ge_1_NoThetaInAudio_NoVideo.avi,noTheta,noVideo,sp01,Ti,Ge,1,2,4,flow/blocks/NoThetaInAudio_NoVideo_A.csv,,,,,,,,,0,2,2,2,0,20,20,16,-0.375,-0.11898148148148148,1,0,0,5.1646703000878915,call3,-0.05277777777777778,0.27546296296296297,1,0,0,5.7340830999892205,colour1,0.45416666666666666,0.29907407407407405,1,0,0,6.250872300006449,number1,True,True,True,33,3,2019_Nov_18_1700,MA_Theta_Exp,3.0.7,60.08607932916284,
video/Experiment/zh_sp01_Un_Gr_1_NoThetaInAudio_NoVideo.avi,noTheta,noVideo,sp01,Un,Gr,1,2,4,flow/blocks/NoThetaInAudio_NoVideo_A.csv,,,,,,,,,0,2,2,2,0,21,21,20,-0.3902777777777778,0.06712962962962964,1,0,0,7.736335399909876,call2,0.005555555555555556,0.05740740740740741,1,0,0,8.451600100030191,colour2,0.3680555555555556,0.3101851851851852,1,0,0,8.973156600026414,number1,False,True,True,33,3,2019_Nov_18_1700,MA_Theta_Exp,3.0.7,60.08607932916284,
video/Experiment/zh_sp07_Un_Ge_2_NoThetaInAudio_NoVideo.avi,noTheta,noVideo,sp07,Un,Ge,2,2,4,flow/blocks/NoThetaInAudio_NoVideo_A.csv,,,,,,,,,0,2,2,2,0,22,22,17,-0.3763888888888889,-0.3300925925925926,1,0,0,4.183225400047377,call4,0.009722222222222222,0.2824074074074074,1,0,0,4.800770299974829,colour1,0.4027777777777778,0.08935185185185185,1,0,0,5.338767500012182,number2,True,True,True,33,3,2019_Nov_18_1700,MA_Theta_Exp,3.0.7,60.08607932916284,
video/Experiment/zh_sp07_Ad_We_2_NoThetaInAudio_NoVideo.avi,noTheta,noVideo,sp07,Ad,We,2,2,4,flow/blocks/NoThetaInAudio_NoVideo_A.csv,,,,,,,,,0,2,2,2,0,23,23,29,-0.39861111111111114,0.3282407407407407,1,0,0,4.38627669995185,call1,-0.005555555555555556,-0.3148148148148148,1,0,0,5.220851099933498,colour4,0.3902777777777778,0.13657407407407407,1,0,0,5.79993189999368,number2,True,True,True,33,3,2019_Nov_18_1700,MA_Theta_Exp,3.0.7,60.08607932916284,
video/Experiment/zh_sp07_Ti_Ro_3_NoThetaInAudio_NoVideo.avi,noTheta,noVideo,sp07,Ti,Ro,3,2,4,flow/blocks/NoThetaInAudio_NoVideo_A.csv,,,,,,,,,0,2,2,2,0,24,24,10,-0.3888888888888889,-0.13564814814814816,1,0,0,4.629745800048113,call3,0.013888888888888888,-0.1050925925925926,1,0,0,5.079985399963334,colour3,0.4111111111111111,-0.10648148148148148,1,0,0,5.577751399949193,number3,True,True,True,33,3,2019_Nov_18_1700,MA_Theta_Exp,3.0.7,60.08607932916284,
video/Experiment/zh_sp01_Ad_We_3_NoThetaInAudio_NoVideo.avi,noTheta,noVideo,sp01,Ad,We,3,2,4,flow/blocks/NoThetaInAudio_NoVideo_A.csv,,,,,,,,,0,2,2,2,0,25,25,30,-0.3486111111111111,0.31574074074074077,1,0,0,5.437530800001696,call1,-0.020833333333333332,-0.3175925925925926,1,0,0,6.241375099983998,colour4,0.35138888888888886,-0.11481481481481481,1,0,0,6.735326200025156,number3,True,True,True,33,3,2019_Nov_18_1700,MA_Theta_Exp,3.0.7,60.08607932916284,
video/Experiment/zh_sp07_Un_Ge_3_NoThetaInAudio_NoVideo.avi,noTheta,noVideo,sp07,Un,Ge,3,2,4,flow/blocks/NoThetaInAudio_NoVideo_A.csv,,,,,,,,,0,2,2,2,0,26,26,2,-0.4027777777777778,0.13796296296296295,1,0,0,4.434375199954957,call2,0.008333333333333333,0.31712962962962965,1,0,0,4.898206499987282,colour1,0.44305555555555554,-0.10925925925925926,1,0,0,5.465901399962604,number3,False,True,True,33,3,2019_Nov_18_1700,MA_Theta_Exp,3.0.7,60.08607932916284,
video/Experiment/zh_sp01_Dr_We_2_NoThetaInAudio_NoVideo.avi,noTheta,noVideo,sp01,Dr,We,2,2,4,flow/blocks/NoThetaInAudio_NoVideo_A.csv,,,,,,,,,0,2,2,2,0,27,27,13,-0.3763888888888889,0.3101851851851852,1,0,0,5.053153599961661,call1,0.020833333333333332,-0.3314814814814815,1,0,0,5.855905200005509,colour4,0.3972222222222222,0.10046296296296296,1,0,0,6.535671199904755,number2,False,True,True,33,3,2019_Nov_18_1700,MA_Theta_Exp,3.0.7,60.08607932916284,
video/Experiment/zh_sp01_Un_Ro_3_NoThetaInAudio_NoVideo.avi,noTheta,noVideo,sp01,Un,Ro,3,2,4,flow/blocks/NoThetaInAudio_NoVideo_A.csv,,,,,,,,,0,2,2,2,0,28,28,26,-0.41388888888888886,-0.2953703703703704,1,0,0,5.430394900031388,call4,-0.05,-0.12453703703703704,1,0,0,5.9247043000068516,colour3,0.4111111111111111,-0.1287037037037037,1,0,0,6.476059600012377,number3,True,True,True,33,3,2019_Nov_18_1700,MA_Theta_Exp,3.0.7,60.08607932916284,
video/Experiment/zh_sp01_Dr_Gr_4_NoThetaInAudio_NoVideo.avi,noTheta,noVideo,sp01,Dr,Gr,4,2,4,flow/blocks/NoThetaInAudio_NoVideo_A.csv,,,,,,,,,0,2,2,2,0,29,29,23,-0.43472222222222223,-0.3037037037037037,1,0,0,5.39047300000675,call4,-0.42777777777777776,0.08796296296296297,1,0,0,6.407481399946846,colour2,0.37916666666666665,-0.31203703703703706,1,0,0,9.527592899976298,number4,False,True,True,33,3,2019_Nov_18_1700,MA_Theta_Exp,3.0.7,60.08607932916284,
video/Experiment/zh_sp07_Un_We_1_NoThetaInAudio_NoVideo.avi,noTheta,noVideo,sp07,Un,We,1,2,4,flow/blocks/NoThetaInAudio_NoVideo_A.csv,,,,,,,,,0,2,2,2,0,30,30,28,-0.3888888888888889,-0.29259259259259257,1,0,0,4.660789999994449,call4,-0.05,-0.2967592592592593,1,0,0,5.255659400019795,colour4,0.4027777777777778,0.3212962962962963,1,0,0,6.105706400005147,number1,True,True,True,33,3,2019_Nov_18_1700,MA_Theta_Exp,3.0.7,60.08607932916284,
video/Experiment/zh_sp07_Ti_Gr_4_NoThetaInAudio_NoVideo.avi,noTheta,noVideo,sp07,Ti,Gr,4,2,4,flow/blocks/NoThetaInAudio_NoVideo_A.csv,,,,,,,,,0,2,2,2,0,31,31,7,-0.37777777777777777,-0.3148148148148148,1,0,0,4.918923199991696,call4,0.019444444444444445,0.0837962962962963,1,0,0,5.585420199902728,colour2,0.3736111111111111,-0.31342592592592594,1,0,0,6.2860673000104725,number4,False,True,True,33,3,2019_Nov_18_1700,MA_Theta_Exp,3.0.7,60.08607932916284,
video/Experiment/zh_sp01_Un_Ro_4_NVocInAudio_NoVideo.avi,vocoded,noVideo,sp01,Un,Ro,4,3,2,flow/blocks/NVocInAudio_NoVideo_B.csv,,,,,,,,,0,3,3,3,0,0,0,27,-0.42916666666666664,-0.2898148148148148,1,0,0,5.10871890000999,call4,0.0,-0.07314814814814814,1,0,0,5.661597799975425,colour3,0.4236111111111111,-0.34120370370370373,1,0,0,6.3434844999574125,number4,True,True,True,33,3,2019_Nov_18_1700,MA_Theta_Exp,3.0.7,60.08607932916284,
video/Experiment/zh_sp01_Ti_We_1_NVocInAudio_NoVideo.avi,vocoded,noVideo,sp01,Ti,We,1,3,2,flow/blocks/NVocInAudio_NoVideo_B.csv,,,,,,,,,0,3,3,3,0,1,1,12,-0.39166666666666666,-0.11203703703703703,1,0,0,5.526275699958205,call3,0.030555555555555555,-0.30092592592592593,1,0,0,6.138877199962735,colour4,0.39861111111111114,0.287962962962963,1,0,0,6.823586700018495,number1,True,True,True,33,3,2019_Nov_18_1700,MA_Theta_Exp,3.0.7,60.08607932916284,
video/Experiment/zh_sp07_Dr_Ge_3_NVocInAudio_NoVideo.avi,vocoded,noVideo,sp07,Dr,Ge,3,3,2,flow/blocks/NVocInAudio_NoVideo_B.csv,,,,,,,,,0,3,3,3,0,2,2,2,-0.39861111111111114,0.10324074074074074,1,0,0,4.451936600031331,call2,-0.09583333333333334,0.27824074074074073,1,0,0,5.052060500020161,colour1,0.46111111111111114,-0.1398148148148148,1,0,0,6.30324269994162,number3,True,True,True,33,3,2019_Nov_18_1700,MA_Theta_Exp,3.0.7,60.08607932916284,
video/Experiment/zh_sp07_Dr_Ro_1_NVocInAudio_NoVideo.avi,vocoded,noVideo,sp07,Dr,Ro,1,3,2,flow/blocks/NVocInAudio_NoVideo_B.csv,,,,,,,,,0,3,3,3,0,3,3,24,-0.40694444444444444,0.11574074074074074,1,0,0,5.597987300017849,call2,-0.022222222222222223,0.32546296296296295,1,0,0,6.262156800017692,colour1,0.39861111111111114,0.28935185185185186,1,0,0,6.8019398000324145,number1,True,False,True,33,3,2019_Nov_18_1700,MA_Theta_Exp,3.0.7,60.08607932916284,
video/Experiment/zh_sp01_Ti_Ro_4_NVocInAudio_NoVideo.avi,vocoded,noVideo,sp01,Ti,Ro,4,3,2,flow/blocks/NVocInAudio_NoVideo_B.csv,,,,,,,,,0,3,3,3,0,4,4,11,-0.4125,-0.09259259259259259,1,0,0,5.12047690001782,call3,-0.013888888888888888,-0.10092592592592593,1,0,0,5.755269999965094,colour3,0.43194444444444446,-0.33287037037037037,1,0,0,6.336733800009824,number4,True,True,True,33,3,2019_Nov_18_1700,MA_Theta_Exp,3.0.7,60.08607932916284,
video/Experiment/zh_sp01_Ti_Gr_3_NVocInAudio_NoVideo.avi,vocoded,noVideo,sp01,Ti,Gr,3,3,2,flow/blocks/NVocInAudio_NoVideo_B.csv,,,,,,,,,0,3,3,3,0,5,5,22,-0.43472222222222223,-0.09398148148148149,1,0,0,5.124830799992196,call3,-0.001388888888888889,0.07962962962962963,1,0,0,5.928975299932063,colour2,0.4097222222222222,-0.1300925925925926,1,0,0,6.724158699973486,number3,True,True,True,33,3,2019_Nov_18_1700,MA_Theta_Exp,3.0.7,60.08607932916284,
video/Experiment/zh_sp07_Dr_Ro_3_NVocInAudio_NoVideo.avi,vocoded,noVideo,sp07,Dr,Ro,3,3,2,flow/blocks/NVocInAudio_NoVideo_B.csv,,,,,,,,,0,3,3,3,0,6,6,26,-0.38472222222222224,0.08796296296296297,1,0,0,4.805651600006968,call2,-0.018055555555555554,-0.12314814814814815,1,0,0,5.6395156000507995,colour3,0.33611111111111114,-0.13148148148148148,1,0,0,6.025769600062631,number3,True,True,True,33,3,2019_Nov_18_1700,MA_Theta_Exp,3.0.7,60.08607932916284,
video/Experiment/zh_sp07_Dr_We_1_NVocInAudio_NoVideo.avi,vocoded,noVideo,sp07,Dr,We,1,3,2,flow/blocks/NVocInAudio_NoVideo_B.csv,,,,,,,,,0,3,3,3,0,7,7,28,-0.3972222222222222,0.10324074074074074,1,0,0,4.514577400055714,call2,-0.018055555555555554,-0.2912037037037037,1,0,0,5.600990100065246,colour4,0.37777777777777777,0.30185185185185187,1,0,0,6.415032599936239,number1,True,True,True,33,3,2019_Nov_18_1700,MA_Theta_Exp,3.0.7,60.08607932916284,
video/Experiment/zh_sp01_Ad_Ge_2_NVocInAudio_NoVideo.avi,vocoded,noVideo,sp01,Ad,Ge,2,3,2,flow/blocks/NVocInAudio_NoVideo_B.csv,,,,,,,,,0,3,3,3,0,8,8,1,-0.4597222222222222,0.33796296296296297,1,0,0,5.385343699948862,call1,-0.027777777777777776,0.3365740740740741,1,0,0,6.097686399938539,colour1,0.36666666666666664,0.1449074074074074,1,0,0,6.851891300058924,number2,True,True,True,33,3,2019_Nov_18_1700,MA_Theta_Exp,3.0.7,60.08607932916284,
video/Experiment/zh_sp01_Ti_Gr_1_NVocInAudio_NoVideo.avi,vocoded,noVideo,sp01,Ti,Gr,1,3,2,flow/blocks/NVocInAudio_NoVideo_B.csv,,,,,,,,,0,3,3,3,0,9,9,4,-0.40555555555555556,-0.07592592592592592,1,0,0,5.384898399934173,call3,0.019444444444444445,0.11018518518518519,1,0,0,5.9211598000256345,colour2,0.37916666666666665,0.29212962962962963,1,0,0,6.504854300059378,number1,True,True,True,33,3,2019_Nov_18_1700,MA_Theta_Exp,3.0.7,60.08607932916284,
video/Experiment/zh_sp07_Ad_We_4_NVocInAudio_NoVideo.avi,vocoded,noVideo,sp07,Ad,We,4,3,2,flow/blocks/NVocInAudio_NoVideo_B.csv,,,,,,,,,0,3,3,3,0,10,10,31,-0.3875,0.2810185185185185,1,0,0,4.644354299991392,call1,-0.020833333333333332,-0.33564814814814814,1,0,0,5.509659899980761,colour4,0.4027777777777778,-0.3300925925925926,1,0,0,6.088256899965927,number4,True,True,True,33,3,2019_Nov_18_1700,MA_Theta_Exp,3.0.7,60.08607932916284,
video/Experiment/zh_sp07_Un_Ro_2_NVocInAudio_NoVideo.avi,vocoded,noVideo,sp07,Un,Ro,2,3,2,flow/blocks/NVocInAudio_NoVideo_B.csv,,,,,,,,,0,3,3,3,0,11,11,9,-0.4111111111111111,0.287962962962963,1,0,0,5.785554299945943,call1,0.044444444444444446,-0.055092592592592596,1,0,0,6.487729600048624,colour3,0.42777777777777776,0.09490740740740741,1,0,0,7.7152801000047475,number2,False,True,True,33,3,2019_Nov_18_1700,MA_Theta_Exp,3.0.7,60.08607932916284,
video/Experiment/zh_sp01_Un_We_2_NVocInAudio_NoVideo.avi,vocoded,noVideo,sp01,Un,We,2,3,2,flow/blocks/NVocInAudio_NoVideo_B.csv,,,,,,,,,0,3,3,3,0,12,12,13,-0.39166666666666666,-0.3148148148148148,1,0,0,5.360805600066669,call4,0.011111111111111112,-0.32314814814814813,1,0,0,6.19142470008228,colour4,0.44166666666666665,0.10185185185185185,1,0,0,6.842639500042424,number2,True,True,True,33,3,2019_Nov_18_1700,MA_Theta_Exp,3.0.7,60.08607932916284,
video/Experiment/zh_sp01_Un_Gr_2_NVocInAudio_NoVideo.avi,vocoded,noVideo,sp01,Un,Gr,2,3,2,flow/blocks/NVocInAudio_NoVideo_B.csv,,,,,,,,,0,3,3,3,0,13,13,5,-0.4,-0.36064814814814816,1,0,0,5.83848269993905,call4,-0.020833333333333332,0.09907407407407408,1,0,0,6.388845399953425,colour2,0.4444444444444444,0.11574074074074074,1,0,0,6.910919499932788,number2,True,True,True,33,3,2019_Nov_18_1700,MA_Theta_Exp,3.0.7,60.08607932916284,
video/Experiment/zh_sp07_Un_Ge_1_NVocInAudio_NoVideo.avi,vocoded,noVideo,sp07,Un,Ge,1,3,2,flow/blocks/NVocInAudio_NoVideo_B.csv,,,,,,,,,0,3,3,3,0,14,14,0,-0.37777777777777777,-0.3189814814814815,1,0,0,4.391678299987689,call4,-0.06111111111111111,0.24768518518518517,1,0,0,5.104708799975924,colour1,0.4708333333333333,0.30324074074074076,1,0,0,5.603829299914651,number1,True,True,True,33,3,2019_Nov_18_1700,MA_Theta_Exp,3.0.7,60.08607932916284,
video/Experiment/zh_sp01_Un_Gr_4_NVocInAudio_NoVideo.avi,vocoded,noVideo,sp01,Un,Gr,4,3,2,flow/blocks/NVocInAudio_NoVideo_B.csv,,,,,,,,,0,3,3,3,0,15,15,23,-0.4041666666666667,-0.2912037037037037,1,0,0,4.899923700024374,call4,0.008333333333333333,0.07546296296296297,1,0,0,5.719476699945517,colour2,0.3402777777777778,-0.30925925925925923,1,0,0,6.40038570004981,number4,True,True,True,33,3,2019_Nov_18_1700,MA_Theta_Exp,3.0.7,60.08607932916284,
video/Experiment/zh_sp01_Ad_Ro_3_NVocInAudio_NoVideo.avi,vocoded,noVideo,sp01,Ad,Ro,3,3,2,flow/blocks/NVocInAudio_NoVideo_B.csv,,,,,,,,,0,3,3,3,0,16,16,10,-0.40694444444444444,0.2935185185185185,1,0,0,5.872830300009809,call1,0.008333333333333333,-0.14953703703703702,1,0,0,6.67638950003311,colour3,0.3888888888888889,-0.1287037037037037,1,0,0,7.260779100004584,number3,True,True,True,33,3,2019_Nov_18_1700,MA_Theta_Exp,3.0.7,60.08607932916284,
video/Experiment/zh_sp07_Ti_We_2_NVocInAudio_NoVideo.avi,vocoded,noVideo,sp07,Ti,We,2,3,2,flow/blocks/NVocInAudio_NoVideo_B.csv,,,,,,,,,0,3,3,3,0,17,17,29,-0.41805555555555557,0.2587962962962963,1,0,0,5.105753400013782,call1,-0.002777777777777778,-0.3050925925925926,1,0,0,6.244969999999739,colour4,0.3638888888888889,0.08101851851851852,1,0,0,6.991349200019613,number2,False,True,True,33,3,2019_Nov_18_1700,MA_Theta_Exp,3.0.7,60.08607932916284,
video/Experiment/zh_sp07_Ad_Gr_4_NVocInAudio_NoVideo.avi,vocoded,noVideo,sp07,Ad,Gr,4,3,2,flow/blocks/NVocInAudio_NoVideo_B.csv,,,,,,,,,0,3,3,3,0,18,18,7,-0.3861111111111111,0.3101851851851852,1,0,0,4.3756869999924675,call1,-0.03194444444444444,0.10185185185185185,1,0,0,5.009138499968685,colour2,0.3625,-0.2689814814814815,1,0,0,6.1200340000214055,number4,True,True,True,33,3,2019_Nov_18_1700,MA_Theta_Exp,3.0.7,60.08607932916284,
video/Experiment/zh_sp07_Ti_Ro_1_NVocInAudio_NoVideo.avi,vocoded,noVideo,sp07,Ti,Ro,1,3,2,flow/blocks/NVocInAudio_NoVideo_B.csv,,,,,,,,,0,3,3,3,0,19,19,8,-0.39861111111111114,0.3143518518518518,1,0,0,5.628314099973068,call1,0.016666666666666666,-0.3425925925925926,1,0,0,6.414650799939409,colour4,0.3902777777777778,0.28379629629629627,1,0,0,7.981596899917349,number1,False,False,True,33,3,2019_Nov_18_1700,MA_Theta_Exp,3.0.7,60.08607932916284,
video/Experiment/zh_sp01_Un_Gr_3_NVocInAudio_NoVideo.avi,vocoded,noVideo,sp01,Un,Gr,3,3,2,flow/blocks/NVocInAudio_NoVideo_B.csv,,,,,,,,,0,3,3,3,0,20,20,6,-0.3958333333333333,-0.30925925925925923,1,0,0,5.147386000026017,call4,-0.03888888888888889,0.10462962962962963,1,0,0,6.1467888000188395,colour2,0.39305555555555555,-0.09814814814814815,1,0,0,6.796392499934882,number3,True,True,True,33,3,2019_Nov_18_1700,MA_Theta_Exp,3.0.7,60.08607932916284,
video/Experiment/zh_sp01_Un_Ge_4_NVocInAudio_NoVideo.avi,vocoded,noVideo,sp01,Un,Ge,4,3,2,flow/blocks/NVocInAudio_NoVideo_B.csv,,,,,,,,,0,3,3,3,0,21,21,19,-0.4111111111111111,-0.32731481481481484,1,0,0,5.151796099962667,call4,-0.002777777777777778,0.300462962962963,1,0,0,5.868167600012384,colour1,0.3736111111111111,-0.2967592592592593,1,0,0,6.58363449992612,number4,True,True,True,33,3,2019_Nov_18_1700,MA_Theta_Exp,3.0.7,60.08607932916284,
video/Experiment/zh_sp07_Dr_Ge_2_NVocInAudio_NoVideo.avi,vocoded,noVideo,sp07,Dr,Ge,2,3,2,flow/blocks/NVocInAudio_NoVideo_B.csv,,,,,,,,,0,3,3,3,0,22,22,17,-0.39861111111111114,0.06712962962962964,1,0,0,4.81623919995036,call2,-0.05416666666666667,0.3212962962962963,1,0,0,5.377348199952394,colour1,0.3458333333333333,0.09212962962962963,1,0,0,5.8816324000945315,number2,True,True,True,33,3,2019_Nov_18_1700,MA_Theta_Exp,3.0.7,60.08607932916284,
video/Experiment/zh_sp01_Ad_Ge_4_NVocInAudio_NoVideo.avi,vocoded,noVideo,sp01,Ad,Ge,4,3,2,flow/blocks/NVocInAudio_NoVideo_B.csv,,,,,,,,,0,3,3,3,0,23,23,3,-0.41944444444444445,0.3351851851851852,1,0,0,4.927723600063473,call1,0.06527777777777778,0.29907407407407405,1,0,0,5.4158343999879435,colour1,0.4111111111111111,-0.2884259259259259,1,0,0,6.426737200003117,number4,True,True,True,33,3,2019_Nov_18_1700,MA_Theta_Exp,3.0.7,60.08607932916284,
video/Experiment/zh_sp01_Dr_We_3_NVocInAudio_NoVideo.avi,vocoded,noVideo,sp01,Dr,We,3,3,2,flow/blocks/NVocInAudio_NoVideo_B.csv,,,,,,,,,0,3,3,3,0,24,24,14,-0.41805555555555557,0.10185185185185185,1,0,0,5.125709599931724,call2,-0.008333333333333333,-0.32037037037037036,1,0,0,6.190960100037046,colour4,0.43333333333333335,-0.1398148148148148,1,0,0,7.088971900055185,number3,True,True,True,33,3,2019_Nov_18_1700,MA_Theta_Exp,3.0.7,60.08607932916284,
video/Experiment/zh_sp07_Dr_We_4_NVocInAudio_NoVideo.avi,vocoded,noVideo,sp07,Dr,We,4,3,2,flow/blocks/NVocInAudio_NoVideo_B.csv,,,,,,,,,0,3,3,3,0,25,25,15,-0.40555555555555556,0.10601851851851851,1,0,0,4.727101300028153,call2,-0.015277777777777777,-0.3287037037037037,1,0,0,5.461036500055343,colour4,0.3611111111111111,-0.31203703703703706,1,0,0,5.99568349996116,number4,True,True,True,33,3,2019_Nov_18_1700,MA_Theta_Exp,3.0.7,60.08607932916284,
video/Experiment/zh_sp01_Dr_Gr_1_NVocInAudio_NoVideo.avi,vocoded,noVideo,sp01,Dr,Gr,1,3,2,flow/blocks/NVocInAudio_NoVideo_B.csv,,,,,,,,,0,3,3,3,0,26,26,20,-0.39861111111111114,0.12407407407407407,1,0,0,5.249791499925777,call2,0.030555555555555555,0.0712962962962963,1,0,0,5.85306950006634,colour2,0.37777777777777777,0.31574074074074077,1,0,0,6.435212600044906,number1,True,True,True,33,3,2019_Nov_18_1700,MA_Theta_Exp,3.0.7,60.08607932916284,
video/Experiment/zh_sp07_Ti_Gr_2_NVocInAudio_NoVideo.avi,vocoded,noVideo,sp07,Ti,Gr,2,3,2,flow/blocks/NVocInAudio_NoVideo_B.csv,,,,,,,,,0,3,3,3,0,27,27,21,-0.4361111111111111,-0.10231481481481482,1,0,0,4.589547600015067,call3,-0.03333333333333333,0.09490740740740741,1,0,0,5.235254499944858,colour2,0.35,0.10046296296296296,1,0,0,5.802850600099191,number2,True,True,True,33,3,2019_Nov_18_1700,MA_Theta_Exp,3.0.7,60.08607932916284,
video/Experiment/zh_sp01_Ad_Ge_1_NVocInAudio_NoVideo.avi,vocoded,noVideo,sp01,Ad,Ge,1,3,2,flow/blocks/NVocInAudio_NoVideo_B.csv,,,,,,,,,0,3,3,3,0,28,28,16,-0.375,0.3074074074074074,1,0,0,5.672167700016871,call1,-0.030555555555555555,0.30462962962962964,1,0,0,6.442108400049619,colour1,0.40694444444444444,0.2851851851851852,1,0,0,6.997438599937595,number1,True,True,True,33,3,2019_Nov_18_1700,MA_Theta_Exp,3.0.7,60.08607932916284,
video/Experiment/zh_sp07_Ad_Ge_3_NVocInAudio_NoVideo.avi,vocoded,noVideo,sp07,Ad,Ge,3,3,2,flow/blocks/NVocInAudio_NoVideo_B.csv,,,,,,,,,0,3,3,3,0,29,29,18,-0.3972222222222222,0.3087962962962963,1,0,0,4.373962800018489,call1,-0.020833333333333332,0.32546296296296295,1,0,0,4.844309599953704,colour1,0.4236111111111111,-0.0912037037037037,1,0,0,5.57137799996417,number3,True,True,True,33,3,2019_Nov_18_1700,MA_Theta_Exp,3.0.7,60.08607932916284,
video/Experiment/zh_sp07_Ad_Ro_2_NVocInAudio_NoVideo.avi,vocoded,noVideo,sp07,Ad,Ro,2,3,2,flow/blocks/NVocInAudio_NoVideo_B.csv,,,,,,,,,0,3,3,3,0,30,30,25,-0.42083333333333334,0.3282407407407407,1,0,0,4.291065800003707,call1,0.013888888888888888,-0.1162037037037037,1,0,0,4.960803500027396,colour3,0.38333333333333336,0.11157407407407408,1,0,0,5.559552199905738,number2,True,True,True,33,3,2019_Nov_18_1700,MA_Theta_Exp,3.0.7,60.08607932916284,
video/Experiment/zh_sp07_Ti_We_3_NVocInAudio_NoVideo.avi,vocoded,noVideo,sp07,Ti,We,3,3,2,flow/blocks/NVocInAudio_NoVideo_B.csv,,,,,,,,,0,3,3,3,0,31,31,30,-0.42083333333333334,-0.10648148148148148,1,0,0,4.610883199959062,call3,-0.009722222222222222,-0.31342592592592594,1,0,0,5.46065699995961,colour4,0.4444444444444444,-0.08425925925925926,1,0,0,6.106575599987991,number3,True,True,True,33,3,2019_Nov_18_1700,MA_Theta_Exp,3.0.7,60.08607932916284,
video/Experiment/zh_sp01_Un_Ro_1_NoThetaInAudio_GlobalThetaInVideo.avi,noTheta,plusVideo,sp01,Un,Ro,1,4,3,flow/blocks/NoThetaInAudio_GlobalThetaInVideo_A.csv,,,,,,,,,0,4,4,4,0,0,0,24,-0.4152777777777778,-0.3106481481481482,1,0,0,5.40894550003577,call4,-0.03194444444444444,0.09768518518518518,1,0,0,6.209761500009336,colour2,0.38055555555555554,0.3143518518518518,1,0,0,6.8733859999338165,number1,True,False,True,33,3,2019_Nov_18_1700,MA_Theta_Exp,3.0.7,60.08607932916284,
video/Experiment/zh_sp07_Dr_Gr_2_NoThetaInAudio_GlobalThetaInVideo.avi,noTheta,plusVideo,sp07,Dr,Gr,2,4,3,flow/blocks/NoThetaInAudio_GlobalThetaInVideo_A.csv,,,,,,,,,0,4,4,4,0,1,1,5,-0.37777777777777777,0.1087962962962963,1,0,0,4.824279299937189,call2,-0.013888888888888888,0.08101851851851852,1,0,0,5.404320900095627,colour2,0.38055555555555554,0.10601851851851851,1,0,0,6.088674600003287,number2,True,True,True,33,3,2019_Nov_18_1700,MA_Theta_Exp,3.0.7,60.08607932916284,
video/Experiment/zh_sp01_Ad_Gr_3_NoThetaInAudio_GlobalThetaInVideo.avi,noTheta,plusVideo,sp01,Ad,Gr,3,4,3,flow/blocks/NoThetaInAudio_GlobalThetaInVideo_A.csv,,,,,,,,,0,4,4,4,0,2,2,22,-0.39166666666666666,0.31851851851851853,1,0,0,5.247496200026944,call1,-0.027777777777777776,0.10324074074074074,1,0,0,5.808508999994956,colour2,0.37916666666666665,-0.09814814814814815,1,0,0,6.360778699978255,number3,True,True,True,33,3,2019_Nov_18_1700,MA_Theta_Exp,3.0.7,60.08607932916284,
video/Experiment/zh_sp07_Dr_Ge_1_NoThetaInAudio_GlobalThetaInVideo.avi,noTheta,plusVideo,sp07,Dr,Ge,1,4,3,flow/blocks/NoThetaInAudio_GlobalThetaInVideo_A.csv,,,,,,,,,0,4,4,4,0,3,3,0,-0.4027777777777778,-0.33564814814814814,1,0,0,4.586019900045358,call4,0.0,0.30185185185185187,1,0,0,5.362452200031839,colour1,0.38333333333333336,0.29074074074074074,1,0,0,5.898595500038937,number1,False,True,True,33,3,2019_Nov_18_1700,MA_Theta_Exp,3.0.7,60.08607932916284,
video/Experiment/zh_sp07_Dr_We_2_NoThetaInAudio_GlobalThetaInVideo.avi,noTheta,plusVideo,sp07,Dr,We,2,4,3,flow/blocks/NoThetaInAudio_GlobalThetaInVideo_A.csv,,,,,,,,,0,4,4,4,0,4,4,13,-0.3888888888888889,0.10185185185185185,1,0,0,4.970216899993829,call2,-0.02361111111111111,-0.35509259259259257,1,0,0,5.866185500053689,colour4,0.38055555555555554,0.09907407407407408,1,0,0,6.553139099967666,number2,True,True,True,33,3,2019_Nov_18_1700,MA_Theta_Exp,3.0.7,60.08607932916284,
video/Experiment/zh_sp01_Un_We_1_NoThetaInAudio_GlobalThetaInVideo.avi,noTheta,plusVideo,sp01,Un,We,1,4,3,flow/blocks/NoThetaInAudio_GlobalThetaInVideo_A.csv,,,,,,,,,0,4,4,4,0,5,5,28,-0.4097222222222222,0.11851851851851852,1,0,0,5.869235799997114,call2,0.0125,-0.31203703703703706,1,0,0,6.668130500009283,colour4,0.4083333333333333,0.27824074074074073,1,0,0,7.517492100014351,number1,False,True,True,33,3,2019_Nov_18_1700,MA_Theta_Exp,3.0.7,60.08607932916284,
video/Experiment/zh_sp07_Un_We_3_NoThetaInAudio_GlobalThetaInVideo.avi,noTheta,plusVideo,sp07,Un,We,3,4,3,flow/blocks/NoThetaInAudio_GlobalThetaInVideo_A.csv,,,,,,,,,0,4,4,4,0,6,6,14,-0.39861111111111114,-0.3050925925925926,1,0,0,4.577572499983944,call4,-0.030555555555555555,-0.3398148148148148,1,0,0,5.09276539995335,colour4,0.4236111111111111,-0.12453703703703704,1,0,0,5.55932220001705,number3,True,True,True,33,3,2019_Nov_18_1700,MA_Theta_Exp,3.0.7,60.08607932916284,
video/Experiment/zh_sp07_Un_Ge_2_NoThetaInAudio_GlobalThetaInVideo.avi,noTheta,plusVideo,sp07,Un,Ge,2,4,3,flow/blocks/NoThetaInAudio_GlobalThetaInVideo_A.csv,,,,,,,,,0,4,4,4,0,7,7,17,-0.40555555555555556,-0.30092592592592593,1,0,0,4.878070399980061,call4,-0.006944444444444444,0.2740740740740741,1,0,0,5.644972800044343,colour1,0.4305555555555556,0.08657407407407407,1,0,0,6.231221100082621,number2,True,True,True,33,3,2019_Nov_18_1700,MA_Theta_Exp,3.0.7,60.08607932916284,
video/Experiment/zh_sp07_Dr_Ro_2_NoThetaInAudio_GlobalThetaInVideo.avi,noTheta,plusVideo,sp07,Dr,Ro,2,4,3,flow/blocks/NoThetaInAudio_GlobalThetaInVideo_A.csv,,,,,,,,,0,4,4,4,0,8,8,9,-0.39861111111111114,0.12268518518518519,1,0,0,4.6127852000063285,call2,0.008333333333333333,-0.11898148148148148,1,0,0,5.169199600000866,colour3,0.43333333333333335,0.09212962962962963,1,0,0,5.681472700089216,number2,True,True,True,33,3,2019_Nov_18_1700,MA_Theta_Exp,3.0.7,60.08607932916284,
video/Experiment/zh_sp07_Un_We_4_NoThetaInAudio_GlobalThetaInVideo.avi,noTheta,plusVideo,sp07,Un,We,4,4,3,flow/blocks/NoThetaInAudio_GlobalThetaInVideo_A.csv,,,,,,,,,0,4,4,4,0,9,9,15,-0.4361111111111111,-0.3384259259259259,1,0,0,4.945813400088809,call4,-0.043055555555555555,-0.3106481481481482,1,0,0,5.776947500067763,colour4,0.38472222222222224,-0.3037037037037037,1,0,0,6.360151799977757,number4,True,True,True,33,3,2019_Nov_18_1700,MA_Theta_Exp,3.0.7,60.08607932916284,
video/Experiment/zh_sp01_Ti_Ro_2_NoThetaInAudio_GlobalThetaInVideo.avi,noTheta,plusVideo,sp01,Ti,Ro,2,4,3,flow/blocks/NoThetaInAudio_GlobalThetaInVideo_A.csv,,,,,,,,,0,4,4,4,0,10,10,25,-0.37083333333333335,-0.08564814814814815,1,0,0,5.564896999974735,call3,0.07777777777777778,-0.1300925925925926,1,0,0,6.116633499972522,colour3,0.37222222222222223,0.10185185185185185,1,0,0,7.161100100027397,number2,True,True,True,33,3,2019_Nov_18_1700,MA_Theta_Exp,3.0.7,60.08607932916284,
video/Experiment/zh_sp01_Un_Ro_3_NoThetaInAudio_GlobalThetaInVideo.avi,noTheta,plusVideo,sp01,Un,Ro,3,4,3,flow/blocks/NoThetaInAudio_GlobalThetaInVideo_A.csv,,,,,,,,,0,4,4,4,0,11,11,26,-0.4152777777777778,-0.2662037037037037,1,0,0,6.139801200013608,call4,-0.005555555555555556,-0.13842592592592592,1,0,0,6.726247899932787,colour3,0.3819444444444444,-0.10787037037037037,1,0,0,7.409540799912065,number3,True,True,True,33,3,2019_Nov_18_1700,MA_Theta_Exp,3.0.7,60.08607932916284,
video/Experiment/zh_sp01_Dr_Gr_3_NoThetaInAudio_GlobalThetaInVideo.avi,noTheta,plusVideo,sp01,Dr,Gr,3,4,3,flow/blocks/NoThetaInAudio_GlobalThetaInVideo_A.csv,,,,,,,,,0,4,4,4,0,12,12,6,-0.3972222222222222,0.09351851851851851,1,0,0,5.512474299990572,call2,0.025,0.0712962962962963,1,0,0,6.2624904999975115,colour2,0.3736111111111111,-0.15092592592592594,1,0,0,6.911491799983196,number3,True,True,True,33,3,2019_Nov_18_1700,MA_Theta_Exp,3.0.7,60.08607932916284,
video/Experiment/zh_sp07_Ti_Gr_4_NoThetaInAudio_GlobalThetaInVideo.avi,noTheta,plusVideo,sp07,Ti,Gr,4,4,3,flow/blocks/NoThetaInAudio_GlobalThetaInVideo_A.csv,,,,,,,,,0,4,4,4,0,13,13,7,-0.4,-0.12175925925925926,1,0,0,5.071284300065599,call3,0.02638888888888889,0.09907407407407408,1,0,0,5.620706300018355,colour2,0.3763888888888889,-0.29814814814814816,1,0,0,6.204805099987425,number4,True,True,True,33,3,2019_Nov_18_1700,MA_Theta_Exp,3.0.7,60.08607932916284,
video/Experiment/zh_sp07_Ti_Ge_3_NoThetaInAudio_GlobalThetaInVideo.avi,noTheta,plusVideo,sp07,Ti,Ge,3,4,3,flow/blocks/NoThetaInAudio_GlobalThetaInVideo_A.csv,,,,,,,,,0,4,4,4,0,14,14,18,-0.4125,-0.10092592592592593,1,0,0,4.637093199999072,call3,-0.027777777777777776,0.27824074074074073,1,0,0,5.532882499974221,colour1,0.3958333333333333,-0.07592592592592592,1,0,0,6.383983199950308,number3,True,True,True,33,3,2019_Nov_18_1700,MA_Theta_Exp,3.0.7,60.08607932916284,
video/Experiment/zh_sp01_Un_Gr_1_NoThetaInAudio_GlobalThetaInVideo.avi,noTheta,plusVideo,sp01,Un,Gr,1,4,3,flow/blocks/NoThetaInAudio_GlobalThetaInVideo_A.csv,,,,,,,,,0,4,4,4,0,15,15,20,-0.38333333333333336,-0.24953703703703703,1,0,0,5.030092500033788,call4,-0.027777777777777776,0.0962962962962963,1,0,0,5.893401900073513,colour2,0.3416666666666667,0.2962962962962963,1,0,0,6.576405399944633,number1,True,True,True,33,3,2019_Nov_18_1700,MA_Theta_Exp,3.0.7,60.08607932916284,
video/Experiment/zh_sp01_Ti_Ge_1_NoThetaInAudio_GlobalThetaInVideo.avi,noTheta,plusVideo,sp01,Ti,Ge,1,4,3,flow/blocks/NoThetaInAudio_GlobalThetaInVideo_A.csv,,,,,,,,,0,4,4,4,0,16,16,16,-0.4166666666666667,-0.13842592592592592,1,0,0,5.386016800068319,call3,0.011111111111111112,0.26435185185185184,1,0,0,6.549848199938424,colour1,0.4013888888888889,0.29907407407407405,1,0,0,7.198167899972759,number1,True,True,True,33,3,2019_Nov_18_1700,MA_Theta_Exp,3.0.7,60.08607932916284,
video/Experiment/zh_sp07_Dr_Gr_4_NoThetaInAudio_GlobalThetaInVideo.avi,noTheta,plusVideo,sp07,Dr,Gr,4,4,3,flow/blocks/NoThetaInAudio_GlobalThetaInVideo_A.csv,,,,,,,,,0,4,4,4,0,17,17,23,-0.37083333333333335,-0.2898148148148148,1,0,0,5.066894099931233,call4,-0.05555555555555555,0.0962962962962963,1,0,0,5.72109929996077,colour2,0.36666666666666664,-0.3037037037037037,1,0,0,6.450342199997976,number4,False,True,True,33,3,2019_Nov_18_1700,MA_Theta_Exp,3.0.7,60.08607932916284,
video/Experiment/zh_sp01_Dr_Ge_4_NoThetaInAudio_GlobalThetaInVideo.avi,noTheta,plusVideo,sp01,Dr,Ge,4,4,3,flow/blocks/NoThetaInAudio_GlobalThetaInVideo_A.csv,,,,,,,,,0,4,4,4,0,18,18,19,-0.4013888888888889,-0.2773148148148148,1,0,0,5.852950599975884,call4,0.02638888888888889,0.29212962962962963,1,0,0,6.68530239991378,colour1,0.4097222222222222,-0.2967592592592593,1,0,0,7.524003400001675,number4,False,True,True,33,3,2019_Nov_18_1700,MA_Theta_Exp,3.0.7,60.08607932916284,
video/Experiment/zh_sp01_Dr_Ro_4_NoThetaInAudio_GlobalThetaInVideo.avi,noTheta,plusVideo,sp01,Dr,Ro,4,4,3,flow/blocks/NoThetaInAudio_GlobalThetaInVideo_A.csv,,,,,,,,,0,4,4,4,0,19,19,27,-0.4305555555555556,0.14907407407407408,1,0,0,5.746754199964926,call2,-0.04027777777777778,-0.07453703703703704,1,0,0,6.468450999935158,colour3,0.4041666666666667,-0.2564814814814815,1,0,0,7.119410200044513,number4,True,True,True,33,3,2019_Nov_18_1700,MA_Theta_Exp,3.0.7,60.08607932916284,
video/Experiment/zh_sp07_Ad_Gr_1_NoThetaInAudio_GlobalThetaInVideo.avi,noTheta,plusVideo,sp07,Ad,Gr,1,4,3,flow/blocks/NoThetaInAudio_GlobalThetaInVideo_A.csv,,,,,,,,,0,4,4,4,0,20,20,4,-0.3902777777777778,0.31712962962962965,1,0,0,4.720865200040862,call1,0.03888888888888889,0.08657407407407407,1,0,0,5.33564900001511,colour2,0.4111111111111111,0.31574074074074077,1,0,0,5.902803699951619,number1,True,True,True,33,3,2019_Nov_18_1700,MA_Theta_Exp,3.0.7,60.08607932916284,
video/Experiment/zh_sp07_Un_Ge_3_NoThetaInAudio_GlobalThetaInVideo.avi,noTheta,plusVideo,sp07,Un,Ge,3,4,3,flow/blocks/NoThetaInAudio_GlobalThetaInVideo_A.csv,,,,,,,,,0,4,4,4,0,21,21,2,-0.4041666666666667,-0.31342592592592594,1,0,0,4.6236010999418795,call4,-0.019444444444444445,0.31851851851851853,1,0,0,5.589811899932101,colour1,0.40555555555555556,-0.08148148148148149,1,0,0,6.349600000074133,number3,True,True,True,33,3,2019_Nov_18_1700,MA_Theta_Exp,3.0.7,60.08607932916284,
video/Experiment/zh_sp07_Ad_We_3_NoThetaInAudio_GlobalThetaInVideo.avi,noTheta,plusVideo,sp07,Ad,We,3,4,3,flow/blocks/NoThetaInAudio_GlobalThetaInVideo_A.csv,,,,,,,,,0,4,4,4,0,22,22,30,-0.4305555555555556,0.29768518518518516,1,0,0,4.8275037000421435,call1,0.05138888888888889,-0.2537037037037037,1,0,0,6.243655700003728,colour4,0.4513888888888889,-0.04398148148148148,1,0,0,6.86391780001577,number3,True,True,True,33,3,2019_Nov_18_1700,MA_Theta_Exp,3.0.7,60.08607932916284,
video/Experiment/zh_sp07_Ti_Ge_2_NoThetaInAudio_GlobalThetaInVideo.avi,noTheta,plusVideo,sp07,Ti,Ge,2,4,3,flow/blocks/NoThetaInAudio_GlobalThetaInVideo_A.csv,,,,,,,,,0,4,4,4,0,23,23,1,-0.4,-0.12037037037037036,1,0,0,5.325767999980599,call3,-0.05277777777777778,0.30462962962962964,1,0,0,5.97622670000419,colour1,0.26944444444444443,0.11296296296296296,1,0,0,6.512947400100529,number2,True,True,True,33,3,2019_Nov_18_1700,MA_Theta_Exp,3.0.7,60.08607932916284,
video/Experiment/zh_sp01_Ti_Ge_4_NoThetaInAudio_GlobalThetaInVideo.avi,noTheta,plusVideo,sp01,Ti,Ge,4,4,3,flow/blocks/NoThetaInAudio_GlobalThetaInVideo_A.csv,,,,,,,,,0,4,4,4,0,24,24,3,-0.3680555555555556,-0.11898148148148148,1,0,0,5.445670899935067,call3,-0.03611111111111111,0.2851851851851852,1,0,0,6.295779799926095,colour1,0.44027777777777777,-0.29398148148148145,1,0,0,7.211145200068131,number4,True,True,True,33,3,2019_Nov_18_1700,MA_Theta_Exp,3.0.7,60.08607932916284,
video/Experiment/zh_sp07_Ti_Ro_3_NoThetaInAudio_GlobalThetaInVideo.avi,noTheta,plusVideo,sp07,Ti,Ro,3,4,3,flow/blocks/NoThetaInAudio_GlobalThetaInVideo_A.csv,,,,,,,,,0,4,4,4,0,25,25,10,-0.43333333333333335,-0.12037037037037036,1,0,0,4.784973100060597,call3,0.022222222222222223,-0.12037037037037036,1,0,0,5.452285600011237,colour3,0.375,-0.1259259259259259,1,0,0,6.636833399999887,number3,True,True,True,33,3,2019_Nov_18_1700,MA_Theta_Exp,3.0.7,60.08607932916284,
video/Experiment/zh_sp01_Ad_Ro_1_NoThetaInAudio_GlobalThetaInVideo.avi,noTheta,plusVideo,sp01,Ad,Ro,1,4,3,flow/blocks/NoThetaInAudio_GlobalThetaInVideo_A.csv,,,,,,,,,0,4,4,4,0,26,26,8,-0.4083333333333333,0.10046296296296296,1,0,0,7.13092789996881,call2,-0.39861111111111114,0.2740740740740741,1,0,0,8.93602479994297,colour3,0.3527777777777778,0.2726851851851852,1,0,0,11.00479399994947,number1,False,True,True,33,3,2019_Nov_18_1700,MA_Theta_Exp,3.0.7,60.08607932916284,
video/Experiment/zh_sp01_Ad_Ro_4_NoThetaInAudio_GlobalThetaInVideo.avi,noTheta,plusVideo,sp01,Ad,Ro,4,4,3,flow/blocks/NoThetaInAudio_GlobalThetaInVideo_A.csv,,,,,,,,,0,4,4,4,0,27,27,11,-0.39861111111111114,0.3101851851851852,1,0,0,5.41420829994604,call1,-0.018055555555555554,-0.09398148148148149,1,0,0,6.1482839999953285,colour3,0.39444444444444443,-0.30787037037037035,1,0,0,6.947285000002012,number4,True,True,True,33,3,2019_Nov_18_1700,MA_Theta_Exp,3.0.7,60.08607932916284,
video/Experiment/zh_sp01_Ad_Gr_2_NoThetaInAudio_GlobalThetaInVideo.avi,noTheta,plusVideo,sp01,Ad,Gr,2,4,3,flow/blocks/NoThetaInAudio_GlobalThetaInVideo_A.csv,,,,,,,,,0,4,4,4,0,28,28,21,-0.40694444444444444,0.3060185185185185,1,0,0,5.405864599975757,call1,0.03888888888888889,0.11157407407407408,1,0,0,6.0765543999150395,colour2,0.3902777777777778,0.10462962962962963,1,0,0,6.654961500084028,number2,True,True,True,33,3,2019_Nov_18_1700,MA_Theta_Exp,3.0.7,60.08607932916284,
video/Experiment/zh_sp01_Ad_We_2_NoThetaInAudio_GlobalThetaInVideo.avi,noTheta,plusVideo,sp01,Ad,We,2,4,3,flow/blocks/NoThetaInAudio_GlobalThetaInVideo_A.csv,,,,,,,,,0,4,4,4,0,29,29,29,-0.4125,0.2851851851851852,1,0,0,5.110103699960746,call1,-0.018055555555555554,-0.30648148148148147,1,0,0,6.046245799981989,colour4,0.375,0.07546296296296297,1,0,0,6.674269300070591,number2,True,True,True,33,3,2019_Nov_18_1700,MA_Theta_Exp,3.0.7,60.08607932916284,
video/Experiment/zh_sp01_Ad_We_1_NoThetaInAudio_GlobalThetaInVideo.avi,noTheta,plusVideo,sp01,Ad,We,1,4,3,flow/blocks/NoThetaInAudio_GlobalThetaInVideo_A.csv,,,,,,,,,0,4,4,4,0,30,30,12,-0.42083333333333334,0.2810185185185185,1,0,0,5.056825799983926,call1,0.016666666666666666,-0.3175925925925926,1,0,0,5.957285700016655,colour4,0.4486111111111111,0.34629629629629627,1,0,0,6.844400199945085,number1,True,True,True,33,3,2019_Nov_18_1700,MA_Theta_Exp,3.0.7,60.08607932916284,
video/Experiment/zh_sp07_Ti_We_4_NoThetaInAudio_GlobalThetaInVideo.avi,noTheta,plusVideo,sp07,Ti,We,4,4,3,flow/blocks/NoThetaInAudio_GlobalThetaInVideo_A.csv,,,,,,,,,0,4,4,4,0,31,31,31,-0.3972222222222222,-0.14814814814814814,1,0,0,4.685209200019017,call3,0.002777777777777778,-0.3314814814814815,1,0,0,5.337963499943726,colour4,0.35694444444444445,-0.32731481481481484,1,0,0,5.999764399952255,number4,True,True,True,33,3,2019_Nov_18_1700,MA_Theta_Exp,3.0.7,60.08607932916284,
