videoFile,condition,video,speaker,callSign,colour,number,seq,id,block,exp.thisRepN,exp.thisTrialN,exp.thisN,exp.thisIndex,training.thisRepN,training.thisTrialN,training.thisN,training.thisIndex,firstHalf.thisRepN,firstHalf.thisTrialN,firstHalf.thisN,firstHalf.thisIndex,blocksA.thisRepN,blocksA.thisTrialN,blocksA.thisN,blocksA.thisIndex,secondHalf.thisRepN,secondHalf.thisTrialN,secondHalf.thisN,secondHalf.thisIndex,blocksB.thisRepN,blocksB.thisTrialN,blocksB.thisN,blocksB.thisIndex,mouseClickOnCall.x,mouseClickOnCall.y,mouseClickOnCall.leftButton,mouseClickOnCall.midButton,mouseClickOnCall.rightButton,mouseClickOnCall.time,mouseClickOnCall.clicked_name,mouseClickOnColour.x,mouseClickOnColour.y,mouseClickOnColour.leftButton,mouseClickOnColour.midButton,mouseClickOnColour.rightButton,mouseClickOnColour.time,mouseClickOnColour.clicked_name,mouseClickOnNumber.x,mouseClickOnNumber.y,mouseClickOnNumber.leftButton,mouseClickOnNumber.midButton,mouseClickOnNumber.rightButton,mouseClickOnNumber.time,mouseClickOnNumber.clicked_name,callSignCorrect,colourCorrect,numberCorrect,participant,order,date,expName,psychopyVersion,frameRate,
video/Training/zh_sp01_Ad_We_4_NVocInAudio_NoVideo.avi,vocoded,noVideo,sp01,Ad,We,4,,,,,,,,0,0,0,0,,,,,,,,,,,,,,,,,-0.46435185185185185,0.30833333333333335,1,0,0,5.896046800000477,call1,0.037037037037037035,-0.3138888888888889,1,0,0,6.645644499998525,colour4,0.3162037037037037,-0.3138888888888889,1,0,0,7.096409400000994,number4,True,True,True,38,3,2019_Nov_19_1605,MA_Theta_Exp,3.0.7,60.0974179141861,
video/Training/zh_sp07_Ad_Ge_3_NVocInAudio_NoVideo.avi,vocoded,noVideo,sp07,Ad,Ge,3,,,,,,,,0,1,1,1,,,,,,,,,,,,,,,,,-0.3976851851851852,0.30694444444444446,1,0,0,4.71534530000099,call1,0.03981481481481482,0.26666666666666666,1,0,0,6.042779300001712,colour1,0.43148148148148147,-0.1375,1,0,0,6.731167899999491,number3,True,True,True,38,3,2019_Nov_19_1605,MA_Theta_Exp,3.0.7,60.0974179141861,
video/Training/zh_sp01_Dr_Ro_3_NVocInAudio_GlobalThetaInVideo.avi,vocoded,plusVideo,sp01,Dr,Ro,3,,,,,,,,0,2,2,2,,,,,,,,,,,,,,,,,-0.40324074074074073,0.2986111111111111,1,0,0,5.0633360000010725,call1,-0.012962962962962963,-0.08333333333333333,1,0,0,5.661746099998709,colour3,0.3509259259259259,-0.1388888888888889,1,0,0,6.228751399999965,number3,False,True,True,38,3,2019_Nov_19_1605,MA_Theta_Exp,3.0.7,60.0974179141861,
video/Training/zh_sp07_Dr_Gr_4_NVocInAudio_GlobalThetaInVideo.avi,vocoded,plusVideo,sp07,Dr,Gr,4,,,,,,,,0,3,3,3,,,,,,,,,,,,,,,,,-0.40185185185185185,0.09583333333333334,1,0,0,4.42538550000063,call2,-0.02962962962962963,0.025,1,0,0,5.876223799999934,colour2,0.4287037037037037,-0.31805555555555554,1,0,0,6.607086699999854,number4,True,True,True,38,3,2019_Nov_19_1605,MA_Theta_Exp,3.0.7,60.0974179141861,
video/Training/zh_sp01_Ti_Gr_2_NoThetaInAudio_NoVideo.avi,noTheta,noVideo,sp01,Ti,Gr,2,,,,,,,,0,4,4,4,,,,,,,,,,,,,,,,,0.023148148148148147,-0.12083333333333333,1,0,0,5.16003339999952,call1,0.0412037037037037,-0.1486111111111111,1,0,0,8.528217600000062,colour3,0.34675925925925927,0.09166666666666666,1,0,0,9.145350799999505,number2,False,False,True,38,3,2019_Nov_19_1605,MA_Theta_Exp,3.0.7,60.0974179141861,
video/Training/zh_sp07_Ti_Ro_1_NoThetaInAudio_NoVideo.avi,noTheta,noVideo,sp07,Ti,Ro,1,,,,,,,,0,5,5,5,,,,,,,,,,,,,,,,,-0.3962962962962963,0.25,1,0,0,4.897143099999084,call1,0.03981481481481482,-0.15833333333333333,1,0,0,8.746049800000037,colour3,0.3509259259259259,0.25972222222222224,1,0,0,10.261839099999634,number1,False,True,True,38,3,2019_Nov_19_1605,MA_Theta_Exp,3.0.7,60.0974179141861,
video/Training/zh_sp01_Un_Ge_1_NoThetaInAudio_GlobalThetaInVideo.avi,noTheta,plusVideo,sp01,Un,Ge,1,,,,,,,,0,6,6,6,,,,,,,,,,,,,,,,,-0.3726851851851852,0.30277777777777776,1,0,0,5.35874640000111,call1,0.03287037037037037,0.2791666666666667,1,0,0,5.974968000000445,colour1,0.3384259259259259,0.27361111111111114,1,0,0,6.541506499999741,number1,False,True,True,38,3,2019_Nov_19_1605,MA_Theta_Exp,3.0.7,60.0974179141861,
video/Training/zh_sp07_Un_We_2_NoThetaInAudio_GlobalThetaInVideo.avi,noTheta,plusVideo,sp07,Un,We,2,,,,,,,,0,7,7,7,,,,,,,,,,,,,,,,,-0.40879629629629627,0.2902777777777778,1,0,0,4.33633319999899,call1,0.03009259259259259,-0.28055555555555556,1,0,0,5.401628300000084,colour4,0.3453703703703704,0.29305555555555557,1,0,0,6.2406700999999885,number1,False,True,False,38,3,2019_Nov_19_1605,MA_Theta_Exp,3.0.7,60.0974179141861,
video/Training/zh_sp01_Ad_Ge_1_GlobalTheta_NoVideo.avi,globalTheta,noVideo,sp01,Ad,Ge,1,,,,,,,,0,8,8,8,,,,,,,,,,,,,,,,,-0.3726851851851852,0.28888888888888886,1,0,0,5.032652599998983,call1,0.02175925925925926,0.275,1,0,0,5.815982500000246,colour1,0.37037037037037035,0.2638888888888889,1,0,0,6.334312199998749,number1,True,True,True,38,3,2019_Nov_19_1605,MA_Theta_Exp,3.0.7,60.0974179141861,
video/Training/zh_sp07_Ad_Ro_3_GlobalTheta_NoVideo.avi,globalTheta,noVideo,sp07,Ad,Ro,3,,,,,,,,0,9,9,9,,,,,,,,,,,,,,,,,-0.3476851851851852,0.2638888888888889,1,0,0,4.442819799998688,call1,0.0023148148148148147,-0.3472222222222222,1,0,0,9.792933900000207,colour4,0.3578703703703704,0.3111111111111111,1,0,0,10.706576999999015,number1,True,False,False,38,3,2019_Nov_19_1605,MA_Theta_Exp,3.0.7,60.0974179141861,
video/Experiment/zh_sp07_Ti_Gr_4_GlobalTheta_NoVideo.avi,globalTheta,noVideo,sp07,Ti,Gr,4,0,5,flow/blocks/GlobalTheta_NoVideo_A.csv,,,,,,,,,0,0,0,0,0,0,0,7,,,,,,,,,-0.40324074074074073,0.2652777777777778,1,0,0,4.914107399999921,call1,-0.008796296296296297,0.05,1,0,0,5.591262500000084,colour2,0.42453703703703705,-0.3013888888888889,1,0,0,6.246497600001021,number4,False,True,True,38,3,2019_Nov_19_1605,MA_Theta_Exp,3.0.7,60.0974179141861,
video/Experiment/zh_sp01_Dr_We_2_GlobalTheta_NoVideo.avi,globalTheta,noVideo,sp01,Dr,We,2,0,5,flow/blocks/GlobalTheta_NoVideo_A.csv,,,,,,,,,0,0,0,0,0,1,1,13,,,,,,,,,-0.4101851851851852,0.30694444444444446,1,0,0,5.562756799999988,call1,-0.0060185185185185185,0.1527777777777778,1,0,0,7.758517300000676,colour2,0.4412037037037037,0.06111111111111111,1,0,0,8.428693900001235,number2,False,False,True,38,3,2019_Nov_19_1605,MA_Theta_Exp,3.0.7,60.0974179141861,
video/Experiment/zh_sp07_Ti_Ge_4_GlobalTheta_NoVideo.avi,globalTheta,noVideo,sp07,Ti,Ge,4,0,5,flow/blocks/GlobalTheta_NoVideo_A.csv,,,,,,,,,0,0,0,0,0,2,2,3,,,,,,,,,-0.41435185185185186,0.2722222222222222,1,0,0,4.8084937000003265,call1,0.03564814814814815,-0.2777777777777778,1,0,0,7.574659100000645,colour4,0.41203703703703703,-0.3013888888888889,1,0,0,8.090765999999348,number4,False,False,True,38,3,2019_Nov_19_1605,MA_Theta_Exp,3.0.7,60.0974179141861,
video/Experiment/zh_sp07_Un_Gr_1_GlobalTheta_NoVideo.avi,globalTheta,noVideo,sp07,Un,Gr,1,0,5,flow/blocks/GlobalTheta_NoVideo_A.csv,,,,,,,,,0,0,0,0,0,3,3,20,,,,,,,,,-0.3560185185185185,-0.07777777777777778,1,0,0,6.5658163000007335,call3,-0.0060185185185185185,0.08333333333333333,1,0,0,7.450915100000202,colour2,0.4023148148148148,0.25277777777777777,1,0,0,8.831546699999308,number1,False,True,True,38,3,2019_Nov_19_1605,MA_Theta_Exp,3.0.7,60.0974179141861,
video/Experiment/zh_sp01_Dr_Gr_2_GlobalTheta_NoVideo.avi,globalTheta,noVideo,sp01,Dr,Gr,2,0,5,flow/blocks/GlobalTheta_NoVideo_A.csv,,,,,,,,,0,0,0,0,0,4,4,5,,,,,,,,,-0.37962962962962965,0.26666666666666666,1,0,0,5.234475199998997,call1,0.017592592592592594,0.07916666666666666,1,0,0,5.814381599999251,colour2,0.4050925925925926,0.04861111111111111,1,0,0,6.314791799999512,number2,False,True,True,38,3,2019_Nov_19_1605,MA_Theta_Exp,3.0.7,60.0974179141861,
video/Experiment/zh_sp07_Ti_We_4_GlobalTheta_NoVideo.avi,globalTheta,noVideo,sp07,Ti,We,4,0,5,flow/blocks/GlobalTheta_NoVideo_A.csv,,,,,,,,,0,0,0,0,0,5,5,31,,,,,,,,,-0.3699074074074074,-0.11666666666666667,1,0,0,4.646496400000615,call3,0.06342592592592593,-0.10277777777777777,1,0,0,6.429321600000549,colour3,0.46064814814814814,-0.1638888888888889,1,0,0,7.378902899999957,number3,True,False,False,38,3,2019_Nov_19_1605,MA_Theta_Exp,3.0.7,60.0974179141861,
video/Experiment/zh_sp01_Un_We_3_GlobalTheta_NoVideo.avi,globalTheta,noVideo,sp01,Un,We,3,0,5,flow/blocks/GlobalTheta_NoVideo_A.csv,,,,,,,,,0,0,0,0,0,6,6,14,,,,,,,,,-0.37407407407407406,-0.2916666666666667,1,0,0,6.69479020000108,call4,-0.001851851851851852,0.04722222222222222,1,0,0,7.422988899999837,colour2,0.449537037037037,-0.1597222222222222,1,0,0,7.925862500000221,number3,True,False,True,38,3,2019_Nov_19_1605,MA_Theta_Exp,3.0.7,60.0974179141861,
video/Experiment/zh_sp07_Ad_Gr_2_GlobalTheta_NoVideo.avi,globalTheta,noVideo,sp07,Ad,Gr,2,0,5,flow/blocks/GlobalTheta_NoVideo_A.csv,,,,,,,,,0,0,0,0,0,7,7,21,,,,,,,,,-0.3837962962962963,0.1111111111111111,1,0,0,5.4263852999993105,call2,0.04537037037037037,-0.12222222222222222,1,0,0,6.128451000000496,colour3,0.4064814814814815,0.06805555555555555,1,0,0,6.709501999999702,number2,False,False,True,38,3,2019_Nov_19_1605,MA_Theta_Exp,3.0.7,60.0974179141861,
video/Experiment/zh_sp07_Dr_Gr_4_GlobalTheta_NoVideo.avi,globalTheta,noVideo,sp07,Dr,Gr,4,0,5,flow/blocks/GlobalTheta_NoVideo_A.csv,,,,,,,,,0,0,0,0,0,8,8,23,,,,,,,,,-0.3851851851851852,0.2388888888888889,1,0,0,4.492133800000374,call1,-0.022685185185185187,-0.12361111111111112,1,0,0,5.596483799999987,colour3,0.4064814814814815,-0.15138888888888888,1,0,0,6.144081300000835,number3,False,False,False,38,3,2019_Nov_19_1605,MA_Theta_Exp,3.0.7,60.0974179141861,
video/Experiment/zh_sp01_Ad_We_1_GlobalTheta_NoVideo.avi,globalTheta,noVideo,sp01,Ad,We,1,0,5,flow/blocks/GlobalTheta_NoVideo_A.csv,,,,,,,,,0,0,0,0,0,9,9,12,,,,,,,,,-0.40324074074074073,0.25555555555555554,1,0,0,5.024695699999938,call1,-0.001851851851851852,-0.09166666666666666,1,0,0,5.679246700001386,colour3,0.39814814814814814,0.29444444444444445,1,0,0,6.328427700000248,number1,True,False,True,38,3,2019_Nov_19_1605,MA_Theta_Exp,3.0.7,60.0974179141861,
video/Experiment/zh_sp07_Ad_Ro_1_GlobalTheta_NoVideo.avi,globalTheta,noVideo,sp07,Ad,Ro,1,0,5,flow/blocks/GlobalTheta_NoVideo_A.csv,,,,,,,,,0,0,0,0,0,10,10,8,,,,,,,,,-0.36157407407407405,0.06111111111111111,1,0,0,8.749451099998623,call2,0.028703703703703703,0.05,1,0,0,9.436475000000428,colour2,0.38564814814814813,0.25555555555555554,1,0,0,11.214476600000125,number1,False,False,True,38,3,2019_Nov_19_1605,MA_Theta_Exp,3.0.7,60.0974179141861,
video/Experiment/zh_sp01_Un_Ge_2_GlobalTheta_NoVideo.avi,globalTheta,noVideo,sp01,Un,Ge,2,0,5,flow/blocks/GlobalTheta_NoVideo_A.csv,,,,,,,,,0,0,0,0,0,11,11,17,,,,,,,,,-0.3490740740740741,-0.27361111111111114,1,0,0,5.140091400000529,call4,0.08842592592592592,-0.0625,1,0,0,5.639877199999319,colour3,0.4787037037037037,0.08888888888888889,1,0,0,6.219539199999417,number2,True,False,True,38,3,2019_Nov_19_1605,MA_Theta_Exp,3.0.7,60.0974179141861,
video/Experiment/zh_sp07_Un_Ge_3_GlobalTheta_NoVideo.avi,globalTheta,noVideo,sp07,Un,Ge,3,0,5,flow/blocks/GlobalTheta_NoVideo_A.csv,,,,,,,,,0,0,0,0,0,12,12,2,,,,,,,,,-0.34074074074074073,-0.29583333333333334,1,0,0,4.244402399999672,call4,0.003703703703703704,-0.07777777777777778,1,0,0,4.713634300000194,colour3,0.4703703703703704,-0.13472222222222222,1,0,0,5.197344700000031,number3,True,False,True,38,3,2019_Nov_19_1605,MA_Theta_Exp,3.0.7,60.0974179141861,
video/Experiment/zh_sp01_Dr_Gr_3_GlobalTheta_NoVideo.avi,globalTheta,noVideo,sp01,Dr,Gr,3,0,5,flow/blocks/GlobalTheta_NoVideo_A.csv,,,,,,,,,0,0,0,0,0,13,13,6,,,,,,,,,-0.38657407407407407,-0.08472222222222223,1,0,0,5.39958999999908,call3,-0.032407407407407406,-0.1,1,0,0,6.030327899999975,colour3,0.41898148148148145,-0.1,1,0,0,6.569479699999647,number3,False,False,True,38,3,2019_Nov_19_1605,MA_Theta_Exp,3.0.7,60.0974179141861,
video/Experiment/zh_sp01_Un_We_1_GlobalTheta_NoVideo.avi,globalTheta,noVideo,sp01,Un,We,1,0,5,flow/blocks/GlobalTheta_NoVideo_A.csv,,,,,,,,,0,0,0,0,0,14,14,28,,,,,,,,,-0.43796296296296294,0.09166666666666666,1,0,0,5.296015899999475,call2,-0.007407407407407408,-0.29444444444444445,1,0,0,7.190379800000301,colour4,-0.0032407407407407406,-0.12361111111111112,1,0,0,8.839941800000815,number1,False,True,True,38,3,2019_Nov_19_1605,MA_Theta_Exp,3.0.7,60.0974179141861,
video/Experiment/zh_sp01_Ti_Ge_1_GlobalTheta_NoVideo.avi,globalTheta,noVideo,sp01,Ti,Ge,1,0,5,flow/blocks/GlobalTheta_NoVideo_A.csv,,,,,,,,,0,0,0,0,0,15,15,16,,,,,,,,,-0.39490740740740743,-0.08333333333333333,1,0,0,5.12777079999978,call3,-0.01990740740740741,0.28194444444444444,1,0,0,5.8283737000001565,colour1,0.44675925925925924,0.28194444444444444,1,0,0,6.914538199998788,number1,True,True,True,38,3,2019_Nov_19_1605,MA_Theta_Exp,3.0.7,60.0974179141861,
video/Experiment/zh_sp01_Ti_Ge_3_GlobalTheta_NoVideo.avi,globalTheta,noVideo,sp01,Ti,Ge,3,0,5,flow/blocks/GlobalTheta_NoVideo_A.csv,,,,,,,,,0,0,0,0,0,16,16,18,,,,,,,,,-0.35185185185185186,0.09166666666666666,1,0,0,5.194361099998787,call2,0.020370370370370372,-0.07916666666666666,1,0,0,6.327989899999011,colour3,0.4078703703703704,-0.11805555555555555,1,0,0,6.911861399999907,number3,False,False,True,38,3,2019_Nov_19_1605,MA_Theta_Exp,3.0.7,60.0974179141861,
video/Experiment/zh_sp07_Ti_Ge_2_GlobalTheta_NoVideo.avi,globalTheta,noVideo,sp07,Ti,Ge,2,0,5,flow/blocks/GlobalTheta_NoVideo_A.csv,,,,,,,,,0,0,0,0,0,17,17,1,,,,,,,,,-0.3712962962962963,0.2763888888888889,1,0,0,6.098035600000003,call1,0.00787037037037037,0.2777777777777778,1,0,0,9.59832070000084,colour1,0.42592592592592593,0.14305555555555555,1,0,0,10.393242699999973,number2,False,True,True,38,3,2019_Nov_19_1605,MA_Theta_Exp,3.0.7,60.0974179141861,
video/Experiment/zh_sp07_Ad_Gr_1_GlobalTheta_NoVideo.avi,globalTheta,noVideo,sp07,Ad,Gr,1,0,5,flow/blocks/GlobalTheta_NoVideo_A.csv,,,,,,,,,0,0,0,0,0,18,18,4,,,,,,,,,-0.3824074074074074,0.2861111111111111,1,0,0,4.370174300000144,call1,-0.032407407407407406,0.07222222222222222,1,0,0,4.812663099999554,colour2,0.4425925925925926,0.06527777777777778,1,0,0,5.29736160000175,number2,True,True,False,38,3,2019_Nov_19_1605,MA_Theta_Exp,3.0.7,60.0974179141861,
video/Experiment/zh_sp01_Ad_Ro_4_GlobalTheta_NoVideo.avi,globalTheta,noVideo,sp01,Ad,Ro,4,0,5,flow/blocks/GlobalTheta_NoVideo_A.csv,,,,,,,,,0,0,0,0,0,19,19,11,,,,,,,,,-0.38796296296296295,0.29444444444444445,1,0,0,4.953751000000921,call1,0.01898148148148148,-0.14027777777777778,1,0,0,5.57064260000152,colour3,0.41203703703703703,-0.31805555555555554,1,0,0,6.090160099998684,number4,True,True,True,38,3,2019_Nov_19_1605,MA_Theta_Exp,3.0.7,60.0974179141861,
video/Experiment/zh_sp07_Ad_Gr_3_GlobalTheta_NoVideo.avi,globalTheta,noVideo,sp07,Ad,Gr,3,0,5,flow/blocks/GlobalTheta_NoVideo_A.csv,,,,,,,,,0,0,0,0,0,20,20,22,,,,,,,,,-0.40324074074074073,0.2875,1,0,0,4.426590600000054,call1,0.00787037037037037,0.09027777777777778,1,0,0,5.293928099999903,colour2,0.4287037037037037,-0.09583333333333334,1,0,0,5.905095199999778,number3,True,True,True,38,3,2019_Nov_19_1605,MA_Theta_Exp,3.0.7,60.0974179141861,
video/Experiment/zh_sp01_Ad_We_2_GlobalTheta_NoVideo.avi,globalTheta,noVideo,sp01,Ad,We,2,0,5,flow/blocks/GlobalTheta_NoVideo_A.csv,,,,,,,,,0,0,0,0,0,21,21,29,,,,,,,,,-0.40185185185185185,0.29305555555555557,1,0,0,4.934632400001647,call1,0.04675925925925926,-0.12083333333333333,1,0,0,5.566654000000199,colour3,0.3731481481481482,0.11388888888888889,1,0,0,6.13588720000007,number2,True,False,True,38,3,2019_Nov_19_1605,MA_Theta_Exp,3.0.7,60.0974179141861,
video/Experiment/zh_sp07_Un_Ro_1_GlobalTheta_NoVideo.avi,globalTheta,noVideo,sp07,Un,Ro,1,0,5,flow/blocks/GlobalTheta_NoVideo_A.csv,,,,,,,,,0,0,0,0,0,22,22,24,,,,,,,,,-0.4185185185185185,0.08472222222222223,1,0,0,4.579401700000744,call2,-0.0060185185185185185,-0.12222222222222222,1,0,0,5.364247499999692,colour3,0.38564814814814813,0.12638888888888888,1,0,0,9.260700599999836,number2,False,True,False,38,3,2019_Nov_19_1605,MA_Theta_Exp,3.0.7,60.0974179141861,
video/Experiment/zh_sp01_Ad_We_3_GlobalTheta_NoVideo.avi,globalTheta,noVideo,sp01,Ad,We,3,0,5,flow/blocks/GlobalTheta_NoVideo_A.csv,,,,,,,,,0,0,0,0,0,23,23,30,,,,,,,,,-0.36574074074074076,-0.0763888888888889,1,0,0,7.6207935999991605,call3,0.052314814814814814,-0.11944444444444445,1,0,0,8.121304099999179,colour3,0.40370370370370373,-0.12638888888888888,1,0,0,8.991079499999614,number3,False,False,True,38,3,2019_Nov_19_1605,MA_Theta_Exp,3.0.7,60.0974179141861,
video/Experiment/zh_sp07_Dr_Ro_2_GlobalTheta_NoVideo.avi,globalTheta,noVideo,sp07,Dr,Ro,2,0,5,flow/blocks/GlobalTheta_NoVideo_A.csv,,,,,,,,,0,0,0,0,0,24,24,9,,,,,,,,,-0.38101851851851853,0.2763888888888889,1,0,0,4.341509900001256,call1,-0.011574074074074073,-0.1,1,0,0,5.137385100000756,colour3,0.3800925925925926,0.08333333333333333,1,0,0,6.191070500000933,number2,False,True,True,38,3,2019_Nov_19_1605,MA_Theta_Exp,3.0.7,60.0974179141861,
video/Experiment/zh_sp01_Dr_Ge_4_GlobalTheta_NoVideo.avi,globalTheta,noVideo,sp01,Dr,Ge,4,0,5,flow/blocks/GlobalTheta_NoVideo_A.csv,,,,,,,,,0,0,0,0,0,25,25,19,,,,,,,,,-0.36435185185185187,-0.30833333333333335,1,0,0,7.597909799998888,call4,0.005092592592592593,-0.12222222222222222,1,0,0,8.49855319999915,colour3,0.38981481481481484,-0.08194444444444444,1,0,0,9.278095899999244,number3,False,False,False,38,3,2019_Nov_19_1605,MA_Theta_Exp,3.0.7,60.0974179141861,
video/Experiment/zh_sp07_Dr_Ge_1_GlobalTheta_NoVideo.avi,globalTheta,noVideo,sp07,Dr,Ge,1,0,5,flow/blocks/GlobalTheta_NoVideo_A.csv,,,,,,,,,0,0,0,0,0,26,26,0,,,,,,,,,-0.3490740740740741,-0.34444444444444444,1,0,0,6.153497599998445,call4,0.00787037037037037,-0.16666666666666666,1,0,0,6.636063100000683,colour3,0.37453703703703706,0.29444444444444445,1,0,0,7.256968300000153,number1,False,False,True,38,3,2019_Nov_19_1605,MA_Theta_Exp,3.0.7,60.0974179141861,
video/Experiment/zh_sp01_Un_Ro_3_GlobalTheta_NoVideo.avi,globalTheta,noVideo,sp01,Un,Ro,3,0,5,flow/blocks/GlobalTheta_NoVideo_A.csv,,,,,,,,,0,0,0,0,0,27,27,26,,,,,,,,,-0.3990740740740741,0.12083333333333333,1,0,0,5.088395499999024,call2,-0.007407407407407408,-0.125,1,0,0,5.625555200000235,colour3,0.34120370370370373,-0.07361111111111111,1,0,0,6.545552500001577,number3,False,True,True,38,3,2019_Nov_19_1605,MA_Theta_Exp,3.0.7,60.0974179141861,
video/Experiment/zh_sp01_Ti_Ro_3_GlobalTheta_NoVideo.avi,globalTheta,noVideo,sp01,Ti,Ro,3,0,5,flow/blocks/GlobalTheta_NoVideo_A.csv,,,,,,,,,0,0,0,0,0,28,28,10,,,,,,,,,-0.3824074074074074,0.25277777777777777,1,0,0,5.477731799999674,call1,0.03009259259259259,-0.09444444444444444,1,0,0,6.156115200001295,colour3,0.39814814814814814,-0.14305555555555555,1,0,0,6.707102500000474,number3,False,True,True,38,3,2019_Nov_19_1605,MA_Theta_Exp,3.0.7,60.0974179141861,
video/Experiment/zh_sp07_Un_We_4_GlobalTheta_NoVideo.avi,globalTheta,noVideo,sp07,Un,We,4,0,5,flow/blocks/GlobalTheta_NoVideo_A.csv,,,,,,,,,0,0,0,0,0,29,29,15,,,,,,,,,-0.38935185185185184,-0.13055555555555556,1,0,0,5.887137800000346,call3,0.053703703703703705,-0.10416666666666667,1,0,0,7.9646993999995175,colour3,0.4009259259259259,-0.11805555555555555,1,0,0,8.55942739999955,number3,False,False,False,38,3,2019_Nov_19_1605,MA_Theta_Exp,3.0.7,60.0974179141861,
video/Experiment/zh_sp01_Dr_Ro_4_GlobalTheta_NoVideo.avi,globalTheta,noVideo,sp01,Dr,Ro,4,0,5,flow/blocks/GlobalTheta_NoVideo_A.csv,,,,,,,,,0,0,0,0,0,30,30,27,,,,,,,,,-0.3990740740740741,-0.30416666666666664,1,0,0,6.321917200000826,call4,0.020370370370370372,-0.13055555555555556,1,0,0,7.372701899999811,colour3,0.39675925925925926,-0.3125,1,0,0,7.993332699999883,number4,False,True,True,38,3,2019_Nov_19_1605,MA_Theta_Exp,3.0.7,60.0974179141861,
video/Experiment/zh_sp07_Ti_Ro_2_GlobalTheta_NoVideo.avi,globalTheta,noVideo,sp07,Ti,Ro,2,0,5,flow/blocks/GlobalTheta_NoVideo_A.csv,,,,,,,,,0,0,0,0,0,31,31,25,,,,,,,,,-0.40879629629629627,0.10694444444444444,1,0,0,5.427152000000206,call2,0.0023148148148148147,0.08472222222222223,1,0,0,6.627369399999225,colour2,0.4300925925925926,0.3013888888888889,1,0,0,7.4647436999985075,number1,False,False,False,38,3,2019_Nov_19_1605,MA_Theta_Exp,3.0.7,60.0974179141861,
video/Experiment/zh_sp07_Ad_Ro_2_NVocInAudio_GlobalThetaInVideo.avi,vocoded,plusVideo,sp07,Ad,Ro,2,1,1,flow/blocks/NVocInAudio_GlobalThetaInVideo_B.csv,,,,,,,,,0,1,1,1,0,0,0,25,,,,,,,,,-0.40046296296296297,0.2916666666666667,1,0,0,4.528669799999989,call1,-0.01574074074074074,-0.1111111111111111,1,0,0,5.182808600000499,colour3,0.38842592592592595,0.11388888888888889,1,0,0,5.815870499998709,number2,True,True,True,38,3,2019_Nov_19_1605,MA_Theta_Exp,3.0.7,60.0974179141861,
video/Experiment/zh_sp01_Ti_Gr_2_NVocInAudio_GlobalThetaInVideo.avi,vocoded,plusVideo,sp01,Ti,Gr,2,1,1,flow/blocks/NVocInAudio_GlobalThetaInVideo_B.csv,,,,,,,,,0,1,1,1,0,1,1,21,,,,,,,,,-0.4046296296296296,-0.08888888888888889,1,0,0,5.258405499998844,call3,-0.04351851851851852,0.07083333333333333,1,0,0,5.838338900000963,colour2,0.4217592592592593,0.09722222222222222,1,0,0,6.673386200000095,number2,True,True,True,38,3,2019_Nov_19_1605,MA_Theta_Exp,3.0.7,60.0974179141861,
video/Experiment/zh_sp07_Ad_We_4_NVocInAudio_GlobalThetaInVideo.avi,vocoded,plusVideo,sp07,Ad,We,4,1,1,flow/blocks/NVocInAudio_GlobalThetaInVideo_B.csv,,,,,,,,,0,1,1,1,0,2,2,31,,,,,,,,,-0.3990740740740741,0.3527777777777778,1,0,0,4.712786599999163,call1,-0.000462962962962963,-0.31666666666666665,1,0,0,5.467533499999263,colour4,0.43703703703703706,-0.31805555555555554,1,0,0,5.975050099999862,number4,True,True,True,38,3,2019_Nov_19_1605,MA_Theta_Exp,3.0.7,60.0974179141861,
video/Experiment/zh_sp07_Un_Gr_3_NVocInAudio_GlobalThetaInVideo.avi,vocoded,plusVideo,sp07,Un,Gr,3,1,1,flow/blocks/NVocInAudio_GlobalThetaInVideo_B.csv,,,,,,,,,0,1,1,1,0,3,3,6,,,,,,,,,-0.41574074074074074,-0.3,1,0,0,4.525672299998405,call4,0.016203703703703703,0.08333333333333333,1,0,0,5.188344000000143,colour2,0.3537037037037037,-0.09027777777777778,1,0,0,5.826077499999883,number3,True,True,True,38,3,2019_Nov_19_1605,MA_Theta_Exp,3.0.7,60.0974179141861,
video/Experiment/zh_sp01_Ti_Gr_3_NVocInAudio_GlobalThetaInVideo.avi,vocoded,plusVideo,sp01,Ti,Gr,3,1,1,flow/blocks/NVocInAudio_GlobalThetaInVideo_B.csv,,,,,,,,,0,1,1,1,0,4,4,22,,,,,,,,,-0.3824074074074074,-0.11805555555555555,1,0,0,5.059047900000223,call3,-0.050462962962962966,0.09583333333333334,1,0,0,5.55413899999985,colour2,0.41203703703703703,-0.1,1,0,0,6.090475000000879,number3,True,True,True,38,3,2019_Nov_19_1605,MA_Theta_Exp,3.0.7,60.0974179141861,
video/Experiment/zh_sp07_Un_Gr_2_NVocInAudio_GlobalThetaInVideo.avi,vocoded,plusVideo,sp07,Un,Gr,2,1,1,flow/blocks/NVocInAudio_GlobalThetaInVideo_B.csv,,,,,,,,,0,1,1,1,0,5,5,5,,,,,,,,,-0.3712962962962963,-0.3013888888888889,1,0,0,4.591404599999805,call4,0.04675925925925926,-0.3347222222222222,1,0,0,9.594995800000106,colour4,0.34120370370370373,0.059722222222222225,1,0,0,10.159112999999707,number2,True,False,True,38,3,2019_Nov_19_1605,MA_Theta_Exp,3.0.7,60.0974179141861,
video/Experiment/zh_sp07_Un_We_2_NVocInAudio_GlobalThetaInVideo.avi,vocoded,plusVideo,sp07,Un,We,2,1,1,flow/blocks/NVocInAudio_GlobalThetaInVideo_B.csv,,,,,,,,,0,1,1,1,0,6,6,13,,,,,,,,,-0.40046296296296297,-0.3111111111111111,1,0,0,4.438019999999597,call4,0.037037037037037035,-0.3125,1,0,0,4.905811399999948,colour4,0.42453703703703705,0.10833333333333334,1,0,0,5.473899900000106,number2,True,True,True,38,3,2019_Nov_19_1605,MA_Theta_Exp,3.0.7,60.0974179141861,
video/Experiment/zh_sp01_Dr_Ro_1_NVocInAudio_GlobalThetaInVideo.avi,vocoded,plusVideo,sp01,Dr,Ro,1,1,1,flow/blocks/NVocInAudio_GlobalThetaInVideo_B.csv,,,,,,,,,0,1,1,1,0,7,7,24,,,,,,,,,-0.36574074074074076,0.10416666666666667,1,0,0,5.165188400000261,call2,-0.03796296296296296,-0.10416666666666667,1,0,0,5.648516400000517,colour3,0.4009259259259259,0.29583333333333334,1,0,0,6.244168499999432,number1,True,True,True,38,3,2019_Nov_19_1605,MA_Theta_Exp,3.0.7,60.0974179141861,
video/Experiment/zh_sp07_Dr_Ro_3_NVocInAudio_GlobalThetaInVideo.avi,vocoded,plusVideo,sp07,Dr,Ro,3,1,1,flow/blocks/NVocInAudio_GlobalThetaInVideo_B.csv,,,,,,,,,0,1,1,1,0,8,8,26,,,,,,,,,-0.3574074074074074,0.13055555555555556,1,0,0,4.375409800000853,call2,-0.02962962962962963,-0.10555555555555556,1,0,0,4.856777000000875,colour3,0.4537037037037037,-0.14027777777777778,1,0,0,5.394578100000217,number3,True,True,True,38,3,2019_Nov_19_1605,MA_Theta_Exp,3.0.7,60.0974179141861,
video/Experiment/zh_sp07_Un_Ro_2_NVocInAudio_GlobalThetaInVideo.avi,vocoded,plusVideo,sp07,Un,Ro,2,1,1,flow/blocks/NVocInAudio_GlobalThetaInVideo_B.csv,,,,,,,,,0,1,1,1,0,9,9,9,,,,,,,,,-0.40046296296296297,-0.3,1,0,0,4.4621017999998,call4,0.017592592592592594,-0.1111111111111111,1,0,0,4.9761914999999135,colour3,0.3800925925925926,0.1125,1,0,0,5.51101540000127,number2,True,True,True,38,3,2019_Nov_19_1605,MA_Theta_Exp,3.0.7,60.0974179141861,
video/Experiment/zh_sp01_Dr_Ge_3_NVocInAudio_GlobalThetaInVideo.avi,vocoded,plusVideo,sp01,Dr,Ge,3,1,1,flow/blocks/NVocInAudio_GlobalThetaInVideo_B.csv,,,,,,,,,0,1,1,1,0,10,10,2,,,,,,,,,-0.39351851851851855,0.08194444444444444,1,0,0,4.990702400000373,call2,-0.03796296296296296,0.3125,1,0,0,5.462400500000513,colour1,0.41898148148148145,-0.10555555555555556,1,0,0,6.107372000000396,number3,True,True,True,38,3,2019_Nov_19_1605,MA_Theta_Exp,3.0.7,60.0974179141861,
video/Experiment/zh_sp01_Un_Gr_4_NVocInAudio_GlobalThetaInVideo.avi,vocoded,plusVideo,sp01,Un,Gr,4,1,1,flow/blocks/NVocInAudio_GlobalThetaInVideo_B.csv,,,,,,,,,0,1,1,1,0,11,11,23,,,,,,,,,-0.39351851851851855,-0.3472222222222222,1,0,0,4.893843300000299,call4,0.000925925925925926,0.11388888888888889,1,0,0,5.46671090000018,colour2,0.3787037037037037,-0.30694444444444446,1,0,0,6.000384699998904,number4,True,True,True,38,3,2019_Nov_19_1605,MA_Theta_Exp,3.0.7,60.0974179141861,
video/Experiment/zh_sp01_Ti_Ro_4_NVocInAudio_GlobalThetaInVideo.avi,vocoded,plusVideo,sp01,Ti,Ro,4,1,1,flow/blocks/NVocInAudio_GlobalThetaInVideo_B.csv,,,,,,,,,0,1,1,1,0,12,12,11,,,,,,,,,-0.40324074074074073,-0.11388888888888889,1,0,0,4.946326600000248,call3,0.017592592592592594,-0.11527777777777778,1,0,0,5.675019700000121,colour3,0.3814814814814815,-0.30416666666666664,1,0,0,6.2091020999996545,number4,True,True,True,38,3,2019_Nov_19_1605,MA_Theta_Exp,3.0.7,60.0974179141861,
video/Experiment/zh_sp07_Dr_Gr_1_NVocInAudio_GlobalThetaInVideo.avi,vocoded,plusVideo,sp07,Dr,Gr,1,1,1,flow/blocks/NVocInAudio_GlobalThetaInVideo_B.csv,,,,,,,,,0,1,1,1,0,13,13,20,,,,,,,,,-0.37546296296296294,0.13055555555555556,1,0,0,4.297218699999576,call2,-0.014351851851851852,0.09583333333333334,1,0,0,5.0783910999998625,colour2,0.36342592592592593,0.28194444444444444,1,0,0,5.613725900000645,number1,True,True,True,38,3,2019_Nov_19_1605,MA_Theta_Exp,3.0.7,60.0974179141861,
video/Experiment/zh_sp07_Dr_We_3_NVocInAudio_GlobalThetaInVideo.avi,vocoded,plusVideo,sp07,Dr,We,3,1,1,flow/blocks/NVocInAudio_GlobalThetaInVideo_B.csv,,,,,,,,,0,1,1,1,0,14,14,14,,,,,,,,,-0.37962962962962965,0.09583333333333334,1,0,0,4.38678549999895,call2,0.010648148148148148,-0.3388888888888889,1,0,0,4.97439089999898,colour4,0.37453703703703706,-0.11805555555555555,1,0,0,5.522490400000606,number3,True,True,True,38,3,2019_Nov_19_1605,MA_Theta_Exp,3.0.7,60.0974179141861,
video/Experiment/zh_sp07_Ad_Ge_1_NVocInAudio_GlobalThetaInVideo.avi,vocoded,plusVideo,sp07,Ad,Ge,1,1,1,flow/blocks/NVocInAudio_GlobalThetaInVideo_B.csv,,,,,,,,,0,1,1,1,0,15,15,16,,,,,,,,,-0.3907407407407407,0.31805555555555554,1,0,0,4.25626740000007,call1,-0.008796296296296297,0.3125,1,0,0,4.737670700000308,colour1,0.3731481481481482,0.29305555555555557,1,0,0,5.233373099999881,number1,True,True,True,38,3,2019_Nov_19_1605,MA_Theta_Exp,3.0.7,60.0974179141861,
video/Experiment/zh_sp01_Ad_Ro_3_NVocInAudio_GlobalThetaInVideo.avi,vocoded,plusVideo,sp01,Ad,Ro,3,1,1,flow/blocks/NVocInAudio_GlobalThetaInVideo_B.csv,,,,,,,,,0,1,1,1,0,16,16,10,,,,,,,,,-0.350462962962963,0.2986111111111111,1,0,0,4.967039099999965,call1,-0.04212962962962963,-0.14583333333333334,1,0,0,5.500980900000286,colour3,0.4050925925925926,-0.10694444444444444,1,0,0,6.01947250000012,number3,True,True,True,38,3,2019_Nov_19_1605,MA_Theta_Exp,3.0.7,60.0974179141861,
video/Experiment/zh_sp07_Ti_Ro_1_NVocInAudio_GlobalThetaInVideo.avi,vocoded,plusVideo,sp07,Ti,Ro,1,1,1,flow/blocks/NVocInAudio_GlobalThetaInVideo_B.csv,,,,,,,,,0,1,1,1,0,17,17,8,,,,,,,,,-0.37407407407407406,-0.06527777777777778,1,0,0,6.672079500000109,call3,0.024537037037037038,-0.1361111111111111,1,0,0,7.095167499999661,colour3,0.37592592592592594,0.2972222222222222,1,0,0,7.667675800001234,number1,True,True,True,38,3,2019_Nov_19_1605,MA_Theta_Exp,3.0.7,60.0974179141861,
video/Experiment/zh_sp01_Dr_We_1_NVocInAudio_GlobalThetaInVideo.avi,vocoded,plusVideo,sp01,Dr,We,1,1,1,flow/blocks/NVocInAudio_GlobalThetaInVideo_B.csv,,,,,,,,,0,1,1,1,0,18,18,28,,,,,,,,,-0.4074074074074074,0.3055555555555556,1,0,0,5.050569099999848,call1,-0.010185185185185186,-0.31805555555555554,1,0,0,6.053302399999666,colour4,0.3800925925925926,0.3236111111111111,1,0,0,6.739833600000566,number1,False,True,True,38,3,2019_Nov_19_1605,MA_Theta_Exp,3.0.7,60.0974179141861,
video/Experiment/zh_sp07_Ti_We_1_NVocInAudio_GlobalThetaInVideo.avi,vocoded,plusVideo,sp07,Ti,We,1,1,1,flow/blocks/NVocInAudio_GlobalThetaInVideo_B.csv,,,,,,,,,0,1,1,1,0,19,19,12,,,,,,,,,-0.38796296296296295,-0.09722222222222222,1,0,0,4.852484099999856,call3,0.03009259259259259,-0.32222222222222224,1,0,0,5.302637500000856,colour4,0.37453703703703706,0.3236111111111111,1,0,0,5.971863099999609,number1,True,True,True,38,3,2019_Nov_19_1605,MA_Theta_Exp,3.0.7,60.0974179141861,
video/Experiment/zh_sp01_Ad_Ge_3_NVocInAudio_GlobalThetaInVideo.avi,vocoded,plusVideo,sp01,Ad,Ge,3,1,1,flow/blocks/NVocInAudio_GlobalThetaInVideo_B.csv,,,,,,,,,0,1,1,1,0,20,20,18,,,,,,,,,-0.4074074074074074,0.30277777777777776,1,0,0,4.769036199999391,call1,0.024537037037037038,0.3,1,0,0,5.3174873999996635,colour1,0.37175925925925923,-0.10138888888888889,1,0,0,6.122992799999338,number3,True,True,True,38,3,2019_Nov_19_1605,MA_Theta_Exp,3.0.7,60.0974179141861,
video/Experiment/zh_sp07_Dr_Ge_2_NVocInAudio_GlobalThetaInVideo.avi,vocoded,plusVideo,sp07,Dr,Ge,2,1,1,flow/blocks/NVocInAudio_GlobalThetaInVideo_B.csv,,,,,,,,,0,1,1,1,0,21,21,17,,,,,,,,,-0.3976851851851852,0.11527777777777778,1,0,0,4.427482900000541,call2,-0.010185185185185186,0.2763888888888889,1,0,0,4.964329099999304,colour1,0.38981481481481484,0.09583333333333334,1,0,0,5.459305600001244,number2,True,True,True,38,3,2019_Nov_19_1605,MA_Theta_Exp,3.0.7,60.0974179141861,
video/Experiment/zh_sp07_Un_Ge_4_NVocInAudio_GlobalThetaInVideo.avi,vocoded,plusVideo,sp07,Un,Ge,4,1,1,flow/blocks/NVocInAudio_GlobalThetaInVideo_B.csv,,,,,,,,,0,1,1,1,0,22,22,19,,,,,,,,,-0.3837962962962963,-0.32916666666666666,1,0,0,4.108403599999292,call4,-0.021296296296296296,0.3375,1,0,0,5.392965799999729,colour1,0.37453703703703706,-0.3013888888888889,1,0,0,6.17467570000008,number4,True,True,True,38,3,2019_Nov_19_1605,MA_Theta_Exp,3.0.7,60.0974179141861,
video/Experiment/zh_sp07_Dr_We_4_NVocInAudio_GlobalThetaInVideo.avi,vocoded,plusVideo,sp07,Dr,We,4,1,1,flow/blocks/NVocInAudio_GlobalThetaInVideo_B.csv,,,,,,,,,0,1,1,1,0,23,23,15,,,,,,,,,-0.3685185185185185,-0.30277777777777776,1,0,0,5.796680800000104,call4,0.016203703703703703,-0.31805555555555554,1,0,0,6.23521719999917,colour4,0.37592592592592594,-0.34444444444444444,1,0,0,6.82952909999949,number4,False,True,True,38,3,2019_Nov_19_1605,MA_Theta_Exp,3.0.7,60.0974179141861,
video/Experiment/zh_sp01_Ad_Ge_4_NVocInAudio_GlobalThetaInVideo.avi,vocoded,plusVideo,sp01,Ad,Ge,4,1,1,flow/blocks/NVocInAudio_GlobalThetaInVideo_B.csv,,,,,,,,,0,1,1,1,0,24,24,3,,,,,,,,,-0.3587962962962963,0.3125,1,0,0,4.822840599999836,call1,-0.049074074074074076,0.3,1,0,0,5.5064129999991565,colour1,0.4064814814814815,-0.3111111111111111,1,0,0,6.205918100000417,number4,True,True,True,38,3,2019_Nov_19_1605,MA_Theta_Exp,3.0.7,60.0974179141861,
video/Experiment/zh_sp01_Ti_We_3_NVocInAudio_GlobalThetaInVideo.avi,vocoded,plusVideo,sp01,Ti,We,3,1,1,flow/blocks/NVocInAudio_GlobalThetaInVideo_B.csv,,,,,,,,,0,1,1,1,0,25,25,30,,,,,,,,,-0.3962962962962963,-0.09722222222222222,1,0,0,6.106665999999677,call3,0.03009259259259259,-0.32222222222222224,1,0,0,6.707000099999277,colour4,0.36203703703703705,-0.0875,1,0,0,7.323343699999896,number3,True,True,True,38,3,2019_Nov_19_1605,MA_Theta_Exp,3.0.7,60.0974179141861,
video/Experiment/zh_sp01_Un_Ro_4_NVocInAudio_GlobalThetaInVideo.avi,vocoded,plusVideo,sp01,Un,Ro,4,1,1,flow/blocks/NVocInAudio_GlobalThetaInVideo_B.csv,,,,,,,,,0,1,1,1,0,26,26,27,,,,,,,,,-0.3907407407407407,-0.2861111111111111,1,0,0,5.38432660000035,call4,0.017592592592592594,0.29444444444444445,1,0,0,7.2139853999997285,colour1,0.38425925925925924,-0.3263888888888889,1,0,0,7.814284100000805,number4,True,False,True,38,3,2019_Nov_19_1605,MA_Theta_Exp,3.0.7,60.0974179141861,
video/Experiment/zh_sp01_Ti_Gr_1_NVocInAudio_GlobalThetaInVideo.avi,vocoded,plusVideo,sp01,Ti,Gr,1,1,1,flow/blocks/NVocInAudio_GlobalThetaInVideo_B.csv,,,,,,,,,0,1,1,1,0,27,27,4,,,,,,,,,-0.4046296296296296,-0.10138888888888889,1,0,0,5.4374685999991925,call3,0.014814814814814815,-0.12638888888888888,1,0,0,7.006857399999717,colour3,0.36203703703703705,0.2861111111111111,1,0,0,7.822158599999966,number1,True,False,True,38,3,2019_Nov_19_1605,MA_Theta_Exp,3.0.7,60.0974179141861,
video/Experiment/zh_sp01_Un_Ge_1_NVocInAudio_GlobalThetaInVideo.avi,vocoded,plusVideo,sp01,Un,Ge,1,1,1,flow/blocks/NVocInAudio_GlobalThetaInVideo_B.csv,,,,,,,,,0,1,1,1,0,28,28,0,,,,,,,,,-0.35462962962962963,-0.3277777777777778,1,0,0,5.121739700000035,call4,-0.000462962962962963,0.25555555555555554,1,0,0,5.802691699998832,colour1,0.4078703703703704,0.29444444444444445,1,0,0,6.500793300001533,number1,True,True,True,38,3,2019_Nov_19_1605,MA_Theta_Exp,3.0.7,60.0974179141861,
video/Experiment/zh_sp07_Ti_We_2_NVocInAudio_GlobalThetaInVideo.avi,vocoded,plusVideo,sp07,Ti,We,2,1,1,flow/blocks/NVocInAudio_GlobalThetaInVideo_B.csv,,,,,,,,,0,1,1,1,0,29,29,29,,,,,,,,,-0.4115740740740741,-0.09861111111111111,1,0,0,4.404813600000125,call3,0.016203703703703703,-0.29444444444444445,1,0,0,5.237048200000572,colour4,0.4162037037037037,0.09722222222222222,1,0,0,5.7755163999991055,number2,True,True,True,38,3,2019_Nov_19_1605,MA_Theta_Exp,3.0.7,60.0974179141861,
video/Experiment/zh_sp01_Ad_Gr_4_NVocInAudio_GlobalThetaInVideo.avi,vocoded,plusVideo,sp01,Ad,Gr,4,1,1,flow/blocks/NVocInAudio_GlobalThetaInVideo_B.csv,,,,,,,,,0,1,1,1,0,30,30,7,,,,,,,,,-0.3851851851851852,0.29444444444444445,1,0,0,6.939014499999757,call1,0.052314814814814814,-0.3458333333333333,1,0,0,7.72182679999969,colour4,0.3912037037037037,-0.31805555555555554,1,0,0,8.143578600000183,number4,True,False,True,38,3,2019_Nov_19_1605,MA_Theta_Exp,3.0.7,60.0974179141861,
video/Experiment/zh_sp01_Ad_Ge_2_NVocInAudio_GlobalThetaInVideo.avi,vocoded,plusVideo,sp01,Ad,Ge,2,1,1,flow/blocks/NVocInAudio_GlobalThetaInVideo_B.csv,,,,,,,,,0,1,1,1,0,31,31,1,,,,,,,,,-0.36018518518518516,0.30277777777777776,1,0,0,5.2036183000000165,call1,0.038425925925925926,0.2986111111111111,1,0,0,5.83164989999932,colour1,0.3509259259259259,0.10277777777777777,1,0,0,6.465434699999605,number2,True,True,True,38,3,2019_Nov_19_1605,MA_Theta_Exp,3.0.7,60.0974179141861,
video/Experiment/zh_sp01_Ti_Ge_1_NoThetaInAudio_NoVideo.avi,noTheta,noVideo,sp01,Ti,Ge,1,2,4,flow/blocks/NoThetaInAudio_NoVideo_A.csv,,,,,,,,,0,2,2,2,0,0,0,16,,,,,,,,,-0.3574074074074074,0.30416666666666664,1,0,0,6.8708422999989125,call1,0.08009259259259259,0.3013888888888889,1,0,0,7.999283600000126,colour1,0.4412037037037037,0.3,1,0,0,8.366647700000613,number1,False,True,True,38,3,2019_Nov_19_1605,MA_Theta_Exp,3.0.7,60.0974179141861,
video/Experiment/zh_sp07_Ti_Ro_3_NoThetaInAudio_NoVideo.avi,noTheta,noVideo,sp07,Ti,Ro,3,2,4,flow/blocks/NoThetaInAudio_NoVideo_A.csv,,,,,,,,,0,2,2,2,0,1,1,10,,,,,,,,,-0.36435185185185187,0.11388888888888889,1,0,0,5.923565099999905,call2,0.006481481481481481,-0.07222222222222222,1,0,0,7.023671400000239,colour3,0.40925925925925927,-0.09861111111111111,1,0,0,7.536727100001372,number3,False,True,True,38,3,2019_Nov_19_1605,MA_Theta_Exp,3.0.7,60.0974179141861,
video/Experiment/zh_sp07_Un_Ge_3_NoThetaInAudio_NoVideo.avi,noTheta,noVideo,sp07,Un,Ge,3,2,4,flow/blocks/NoThetaInAudio_NoVideo_A.csv,,,,,,,,,0,2,2,2,0,2,2,2,,,,,,,,,-0.45601851851851855,-0.3013888888888889,1,0,0,4.369458099999974,call4,-0.03518518518518519,0.2763888888888889,1,0,0,4.965986999999586,colour1,0.38425925925925924,-0.12083333333333333,1,0,0,5.453256200000396,number3,True,True,True,38,3,2019_Nov_19_1605,MA_Theta_Exp,3.0.7,60.0974179141861,
video/Experiment/zh_sp01_Dr_Gr_4_NoThetaInAudio_NoVideo.avi,noTheta,noVideo,sp01,Dr,Gr,4,2,4,flow/blocks/NoThetaInAudio_NoVideo_A.csv,,,,,,,,,0,2,2,2,0,3,3,23,,,,,,,,,-0.38657407407407407,-0.12083333333333333,1,0,0,5.937343899999178,call3,0.01898148148148148,0.10833333333333334,1,0,0,6.402984700000161,colour2,0.4273148148148148,-0.34305555555555556,1,0,0,6.875337400000717,number4,False,True,True,38,3,2019_Nov_19_1605,MA_Theta_Exp,3.0.7,60.0974179141861,
video/Experiment/zh_sp07_Ad_Gr_2_NoThetaInAudio_NoVideo.avi,noTheta,noVideo,sp07,Ad,Gr,2,2,4,flow/blocks/NoThetaInAudio_NoVideo_A.csv,,,,,,,,,0,2,2,2,0,4,4,21,,,,,,,,,-0.3851851851851852,-0.09166666666666666,1,0,0,4.613813100000698,call3,0.006481481481481481,0.08472222222222223,1,0,0,5.011052900001232,colour2,0.39537037037037037,0.07222222222222222,1,0,0,5.525807800000621,number2,False,True,True,38,3,2019_Nov_19_1605,MA_Theta_Exp,3.0.7,60.0974179141861,
video/Experiment/zh_sp01_Ad_We_3_NoThetaInAudio_NoVideo.avi,noTheta,noVideo,sp01,Ad,We,3,2,4,flow/blocks/NoThetaInAudio_NoVideo_A.csv,,,,,,,,,0,2,2,2,0,5,5,30,,,,,,,,,-0.3560185185185185,0.31527777777777777,1,0,0,4.9258845999993355,call1,-0.004629629629629629,-0.3125,1,0,0,5.624049399999421,colour4,0.45092592592592595,-0.12222222222222222,1,0,0,6.208021200000076,number3,True,True,True,38,3,2019_Nov_19_1605,MA_Theta_Exp,3.0.7,60.0974179141861,
video/Experiment/zh_sp01_Ad_We_1_NoThetaInAudio_NoVideo.avi,noTheta,noVideo,sp01,Ad,We,1,2,4,flow/blocks/NoThetaInAudio_NoVideo_A.csv,,,,,,,,,0,2,2,2,0,6,6,12,,,,,,,,,-0.42407407407407405,0.32916666666666666,1,0,0,5.017705600001136,call1,-0.02962962962962963,-0.3055555555555556,1,0,0,5.699215500000719,colour4,0.39675925925925926,0.31666666666666665,1,0,0,6.63397150000128,number1,True,True,True,38,3,2019_Nov_19_1605,MA_Theta_Exp,3.0.7,60.0974179141861,
video/Experiment/zh_sp01_Un_We_4_NoThetaInAudio_NoVideo.avi,noTheta,noVideo,sp01,Un,We,4,2,4,flow/blocks/NoThetaInAudio_NoVideo_A.csv,,,,,,,,,0,2,2,2,0,7,7,15,,,,,,,,,-0.41435185185185186,-0.3138888888888889,1,0,0,4.822314799999731,call4,-0.008796296296296297,-0.3055555555555556,1,0,0,5.32324940000035,colour4,0.4412037037037037,-0.30833333333333335,1,0,0,6.076463499999591,number4,True,True,True,38,3,2019_Nov_19_1605,MA_Theta_Exp,3.0.7,60.0974179141861,
video/Experiment/zh_sp01_Un_Ro_1_NoThetaInAudio_NoVideo.avi,noTheta,noVideo,sp01,Un,Ro,1,2,4,flow/blocks/NoThetaInAudio_NoVideo_A.csv,,,,,,,,,0,2,2,2,0,8,8,24,,,,,,,,,-0.37546296296296294,-0.2875,1,0,0,5.206736899999669,call4,-0.01574074074074074,-0.13333333333333333,1,0,0,5.640936399999191,colour3,0.38425925925925924,0.3111111111111111,1,0,0,6.174425299999712,number1,True,True,True,38,3,2019_Nov_19_1605,MA_Theta_Exp,3.0.7,60.0974179141861,
video/Experiment/zh_sp07_Un_We_1_NoThetaInAudio_NoVideo.avi,noTheta,noVideo,sp07,Un,We,1,2,4,flow/blocks/NoThetaInAudio_NoVideo_A.csv,,,,,,,,,0,2,2,2,0,9,9,28,,,,,,,,,-0.3574074074074074,-0.3194444444444444,1,0,0,4.332894700000907,call4,0.024537037037037038,-0.31527777777777777,1,0,0,4.793878500000574,colour4,0.3787037037037037,0.2972222222222222,1,0,0,5.347874400000364,number1,True,True,True,38,3,2019_Nov_19_1605,MA_Theta_Exp,3.0.7,60.0974179141861,
video/Experiment/zh_sp07_Dr_Ge_4_NoThetaInAudio_NoVideo.avi,noTheta,noVideo,sp07,Dr,Ge,4,2,4,flow/blocks/NoThetaInAudio_NoVideo_A.csv,,,,,,,,,0,2,2,2,0,10,10,19,,,,,,,,,-0.4101851851851852,-0.12222222222222222,1,0,0,4.872152500000084,call3,0.03981481481481482,-0.125,1,0,0,5.88785039999857,colour3,0.4439814814814815,-0.3402777777777778,1,0,0,6.433099099998799,number4,False,False,True,38,3,2019_Nov_19_1605,MA_Theta_Exp,3.0.7,60.0974179141861,
video/Experiment/zh_sp07_Un_Ge_2_NoThetaInAudio_NoVideo.avi,noTheta,noVideo,sp07,Un,Ge,2,2,4,flow/blocks/NoThetaInAudio_NoVideo_A.csv,,,,,,,,,0,2,2,2,0,11,11,17,,,,,,,,,-0.3712962962962963,-0.32222222222222224,1,0,0,4.385160099998757,call4,0.00787037037037037,0.3013888888888889,1,0,0,5.004420699999173,colour1,0.37592592592592594,0.11944444444444445,1,0,0,5.563456699999733,number2,True,True,True,38,3,2019_Nov_19_1605,MA_Theta_Exp,3.0.7,60.0974179141861,
video/Experiment/zh_sp07_Ti_Ge_2_NoThetaInAudio_NoVideo.avi,noTheta,noVideo,sp07,Ti,Ge,2,2,4,flow/blocks/NoThetaInAudio_NoVideo_A.csv,,,,,,,,,0,2,2,2,0,12,12,1,,,,,,,,,-0.36018518518518516,-0.12916666666666668,1,0,0,4.6067856999998185,call3,0.006481481481481481,0.2972222222222222,1,0,0,5.109940300000744,colour1,0.34675925925925927,0.07777777777777778,1,0,0,5.594987399999809,number2,True,True,True,38,3,2019_Nov_19_1605,MA_Theta_Exp,3.0.7,60.0974179141861,
video/Experiment/zh_sp07_Ad_Ro_4_NoThetaInAudio_NoVideo.avi,noTheta,noVideo,sp07,Ad,Ro,4,2,4,flow/blocks/NoThetaInAudio_NoVideo_A.csv,,,,,,,,,0,2,2,2,0,13,13,11,,,,,,,,,-0.3907407407407407,-0.3333333333333333,1,0,0,5.238919400000668,call4,-0.001851851851851852,-0.09861111111111111,1,0,0,5.788792299999841,colour3,0.3675925925925926,-0.32222222222222224,1,0,0,6.255229300000792,number4,False,True,True,38,3,2019_Nov_19_1605,MA_Theta_Exp,3.0.7,60.0974179141861,
video/Experiment/zh_sp01_Un_Ro_3_NoThetaInAudio_NoVideo.avi,noTheta,noVideo,sp01,Un,Ro,3,2,4,flow/blocks/NoThetaInAudio_NoVideo_A.csv,,,,,,,,,0,2,2,2,0,14,14,26,,,,,,,,,-0.3365740740740741,0.13055555555555556,1,0,0,4.969789799999489,call2,0.017592592592592594,-0.07777777777777778,1,0,0,5.402685899998687,colour3,0.43425925925925923,-0.14722222222222223,1,0,0,5.88489109999864,number3,False,True,True,38,3,2019_Nov_19_1605,MA_Theta_Exp,3.0.7,60.0974179141861,
video/Experiment/zh_sp07_Dr_Ge_1_NoThetaInAudio_NoVideo.avi,noTheta,noVideo,sp07,Dr,Ge,1,2,4,flow/blocks/NoThetaInAudio_NoVideo_A.csv,,,,,,,,,0,2,2,2,0,15,15,0,,,,,,,,,-0.3421296296296296,0.10277777777777777,1,0,0,4.375703300000168,call2,-0.0032407407407407406,0.275,1,0,0,4.811836500000936,colour1,0.4300925925925926,0.28888888888888886,1,0,0,5.263261000000057,number1,True,True,True,38,3,2019_Nov_19_1605,MA_Theta_Exp,3.0.7,60.0974179141861,
video/Experiment/zh_sp01_Ti_We_4_NoThetaInAudio_NoVideo.avi,noTheta,noVideo,sp01,Ti,We,4,2,4,flow/blocks/NoThetaInAudio_NoVideo_A.csv,,,,,,,,,0,2,2,2,0,16,16,31,,,,,,,,,-0.3712962962962963,-0.10277777777777777,1,0,0,5.057108099999823,call3,0.055092592592592596,0.28055555555555556,1,0,0,7.205561700000544,colour1,0.3773148148148148,-0.30694444444444446,1,0,0,7.808626000000004,number4,True,False,True,38,3,2019_Nov_19_1605,MA_Theta_Exp,3.0.7,60.0974179141861,
video/Experiment/zh_sp07_Ad_We_2_NoThetaInAudio_NoVideo.avi,noTheta,noVideo,sp07,Ad,We,2,2,4,flow/blocks/NoThetaInAudio_NoVideo_A.csv,,,,,,,,,0,2,2,2,0,17,17,29,,,,,,,,,-0.37824074074074077,0.27361111111111114,1,0,0,4.796893200000341,call1,0.020370370370370372,-0.3236111111111111,1,0,0,5.41071539999939,colour4,0.399537037037037,0.10555555555555556,1,0,0,5.92878969999947,number2,True,True,True,38,3,2019_Nov_19_1605,MA_Theta_Exp,3.0.7,60.0974179141861,
video/Experiment/zh_sp07_Ti_Ro_2_NoThetaInAudio_NoVideo.avi,noTheta,noVideo,sp07,Ti,Ro,2,2,4,flow/blocks/NoThetaInAudio_NoVideo_A.csv,,,,,,,,,0,2,2,2,0,18,18,25,,,,,,,,,-0.41712962962962963,-0.11388888888888889,1,0,0,4.47143320000032,call3,0.013425925925925926,-0.08194444444444444,1,0,0,5.091910600000119,colour3,0.3648148148148148,0.12083333333333333,1,0,0,5.738095599999724,number2,True,True,True,38,3,2019_Nov_19_1605,MA_Theta_Exp,3.0.7,60.0974179141861,
video/Experiment/zh_sp07_Dr_Gr_2_NoThetaInAudio_NoVideo.avi,noTheta,noVideo,sp07,Dr,Gr,2,2,4,flow/blocks/NoThetaInAudio_NoVideo_A.csv,,,,,,,,,0,2,2,2,0,19,19,5,,,,,,,,,-0.35324074074074074,0.11527777777777778,1,0,0,5.027205299998968,call2,-0.000462962962962963,0.10138888888888889,1,0,0,5.579161400000885,colour2,0.4078703703703704,0.06944444444444445,1,0,0,6.075779500000863,number2,True,True,True,38,3,2019_Nov_19_1605,MA_Theta_Exp,3.0.7,60.0974179141861,
video/Experiment/zh_sp01_Un_Gr_1_NoThetaInAudio_NoVideo.avi,noTheta,noVideo,sp01,Un,Gr,1,2,4,flow/blocks/NoThetaInAudio_NoVideo_A.csv,,,,,,,,,0,2,2,2,0,20,20,20,,,,,,,,,-0.40879629629629627,0.35138888888888886,1,0,0,4.934568599999693,call1,-0.026851851851851852,0.10833333333333334,1,0,0,5.45463970000128,colour2,0.38287037037037036,0.2847222222222222,1,0,0,6.086178199999267,number1,False,True,True,38,3,2019_Nov_19_1605,MA_Theta_Exp,3.0.7,60.0974179141861,
video/Experiment/zh_sp01_Dr_We_2_NoThetaInAudio_NoVideo.avi,noTheta,noVideo,sp01,Dr,We,2,2,4,flow/blocks/NoThetaInAudio_NoVideo_A.csv,,,,,,,,,0,2,2,2,0,21,21,13,,,,,,,,,-0.34629629629629627,-0.3333333333333333,1,0,0,5.249190999998973,call4,-0.01574074074074074,0.059722222222222225,1,0,0,5.8027979000016785,colour2,0.4564814814814815,0.11805555555555555,1,0,0,6.281600399999661,number2,False,False,True,38,3,2019_Nov_19_1605,MA_Theta_Exp,3.0.7,60.0974179141861,
video/Experiment/zh_sp01_Ad_Gr_1_NoThetaInAudio_NoVideo.avi,noTheta,noVideo,sp01,Ad,Gr,1,2,4,flow/blocks/NoThetaInAudio_NoVideo_A.csv,,,,,,,,,0,2,2,2,0,22,22,4,,,,,,,,,-0.350462962962963,0.28055555555555556,1,0,0,5.154896100000769,call1,-0.0032407407407407406,0.09027777777777778,1,0,0,5.683887699999104,colour2,0.42592592592592593,0.2902777777777778,1,0,0,6.2092673999995895,number1,True,True,True,38,3,2019_Nov_19_1605,MA_Theta_Exp,3.0.7,60.0974179141861,
video/Experiment/zh_sp07_Ti_Ge_3_NoThetaInAudio_NoVideo.avi,noTheta,noVideo,sp07,Ti,Ge,3,2,4,flow/blocks/NoThetaInAudio_NoVideo_A.csv,,,,,,,,,0,2,2,2,0,23,23,18,,,,,,,,,-0.38935185185185184,0.08888888888888889,1,0,0,5.8079603999995015,call2,0.020370370370370372,-0.11944444444444445,1,0,0,7.408828199999334,colour3,0.37592592592592594,-0.12638888888888888,1,0,0,7.946021599998858,number3,False,False,True,38,3,2019_Nov_19_1605,MA_Theta_Exp,3.0.7,60.0974179141861,
video/Experiment/zh_sp01_Ad_Gr_3_NoThetaInAudio_NoVideo.avi,noTheta,noVideo,sp01,Ad,Gr,3,2,4,flow/blocks/NoThetaInAudio_NoVideo_A.csv,,,,,,,,,0,2,2,2,0,24,24,22,,,,,,,,,-0.3990740740740741,0.35555555555555557,1,0,0,5.083300700000109,call1,-0.0060185185185185185,0.06944444444444445,1,0,0,5.569822900000872,colour2,0.39537037037037037,-0.08472222222222223,1,0,0,6.087333699999363,number3,True,True,True,38,3,2019_Nov_19_1605,MA_Theta_Exp,3.0.7,60.0974179141861,
video/Experiment/zh_sp01_Ad_Ro_1_NoThetaInAudio_NoVideo.avi,noTheta,noVideo,sp01,Ad,Ro,1,2,4,flow/blocks/NoThetaInAudio_NoVideo_A.csv,,,,,,,,,0,2,2,2,0,25,25,8,,,,,,,,,-0.38796296296296295,0.2902777777777778,1,0,0,5.11339930000031,call1,-0.040740740740740744,-0.09444444444444444,1,0,0,5.647985499999777,colour3,0.38564814814814813,0.3138888888888889,1,0,0,6.244152999999642,number1,True,True,True,38,3,2019_Nov_19_1605,MA_Theta_Exp,3.0.7,60.0974179141861,
video/Experiment/zh_sp01_Un_We_3_NoThetaInAudio_NoVideo.avi,noTheta,noVideo,sp01,Un,We,3,2,4,flow/blocks/NoThetaInAudio_NoVideo_A.csv,,,,,,,,,0,2,2,2,0,26,26,14,,,,,,,,,-0.43657407407407406,-0.2986111111111111,1,0,0,4.833591800001159,call4,-0.05185185185185185,-0.2972222222222222,1,0,0,5.2878251999991335,colour4,0.37592592592592594,-0.12222222222222222,1,0,0,5.80090459999883,number3,True,True,True,38,3,2019_Nov_19_1605,MA_Theta_Exp,3.0.7,60.0974179141861,
video/Experiment/zh_sp07_Dr_Ro_4_NoThetaInAudio_NoVideo.avi,noTheta,noVideo,sp07,Dr,Ro,4,2,4,flow/blocks/NoThetaInAudio_NoVideo_A.csv,,,,,,,,,0,2,2,2,0,27,27,27,,,,,,,,,-0.3976851851851852,0.3458333333333333,1,0,0,4.676868999998987,call1,0.005092592592592593,-0.10833333333333334,1,0,0,5.2109168999995745,colour3,0.4009259259259259,-0.29583333333333334,1,0,0,5.709292199999254,number4,False,True,True,38,3,2019_Nov_19_1605,MA_Theta_Exp,3.0.7,60.0974179141861,
video/Experiment/zh_sp01_Dr_Gr_3_NoThetaInAudio_NoVideo.avi,noTheta,noVideo,sp01,Dr,Gr,3,2,4,flow/blocks/NoThetaInAudio_NoVideo_A.csv,,,,,,,,,0,2,2,2,0,28,28,6,,,,,,,,,-0.35462962962962963,0.13055555555555556,1,0,0,4.98217140000088,call2,-0.011574074074074073,0.06944444444444445,1,0,0,5.4316171999998915,colour2,0.43425925925925923,-0.1388888888888889,1,0,0,5.980616999999256,number3,True,True,True,38,3,2019_Nov_19_1605,MA_Theta_Exp,3.0.7,60.0974179141861,
video/Experiment/zh_sp07_Ti_Gr_4_NoThetaInAudio_NoVideo.avi,noTheta,noVideo,sp07,Ti,Gr,4,2,4,flow/blocks/NoThetaInAudio_NoVideo_A.csv,,,,,,,,,0,2,2,2,0,29,29,7,,,,,,,,,-0.3476851851851852,-0.10833333333333334,1,0,0,6.004228600000715,call3,0.010648148148148148,0.08194444444444444,1,0,0,6.43276060000062,colour2,0.3925925925925926,-0.325,1,0,0,6.885112799998751,number4,True,True,True,38,3,2019_Nov_19_1605,MA_Theta_Exp,3.0.7,60.0974179141861,
video/Experiment/zh_sp07_Ti_Ge_4_NoThetaInAudio_NoVideo.avi,noTheta,noVideo,sp07,Ti,Ge,4,2,4,flow/blocks/NoThetaInAudio_NoVideo_A.csv,,,,,,,,,0,2,2,2,0,30,30,3,,,,,,,,,-0.4199074074074074,-0.1388888888888889,1,0,0,4.695857099999557,call3,-0.01990740740740741,-0.14722222222222223,1,0,0,5.148204200000691,colour3,0.3787037037037037,-0.3055555555555556,1,0,0,5.603257800001302,number4,True,False,True,38,3,2019_Nov_19_1605,MA_Theta_Exp,3.0.7,60.0974179141861,
video/Experiment/zh_sp01_Dr_Ro_2_NoThetaInAudio_NoVideo.avi,noTheta,noVideo,sp01,Dr,Ro,2,2,4,flow/blocks/NoThetaInAudio_NoVideo_A.csv,,,,,,,,,0,2,2,2,0,31,31,9,,,,,,,,,-0.3560185185185185,-0.3138888888888889,1,0,0,5.183737499999552,call4,0.03009259259259259,-0.08055555555555556,1,0,0,5.750583700000789,colour3,0.3731481481481482,0.09305555555555556,1,0,0,6.335387600000104,number2,False,True,True,38,3,2019_Nov_19_1605,MA_Theta_Exp,3.0.7,60.0974179141861,
video/Experiment/zh_sp07_Dr_Ge_3_NVocInAudio_NoVideo.avi,vocoded,noVideo,sp07,Dr,Ge,3,3,2,flow/blocks/NVocInAudio_NoVideo_B.csv,,,,,,,,,0,3,3,3,0,0,0,2,,,,,,,,,-0.4074074074074074,0.10277777777777777,1,0,0,4.812712299999475,call2,0.017592592592592594,0.28055555555555556,1,0,0,6.258051300001171,colour1,0.3814814814814815,-0.0763888888888889,1,0,0,6.779742400000032,number3,True,True,True,38,3,2019_Nov_19_1605,MA_Theta_Exp,3.0.7,60.0974179141861,
video/Experiment/zh_sp07_Ad_Ge_3_NVocInAudio_NoVideo.avi,vocoded,noVideo,sp07,Ad,Ge,3,3,2,flow/blocks/NVocInAudio_NoVideo_B.csv,,,,,,,,,0,3,3,3,0,1,1,18,,,,,,,,,-0.3587962962962963,0.2902777777777778,1,0,0,4.189671500000259,call1,-0.022685185185185187,0.3013888888888889,1,0,0,4.773436600000423,colour1,0.4134259259259259,-0.09305555555555556,1,0,0,5.372330199999851,number3,True,True,True,38,3,2019_Nov_19_1605,MA_Theta_Exp,3.0.7,60.0974179141861,
video/Experiment/zh_sp01_Ti_Ro_4_NVocInAudio_NoVideo.avi,vocoded,noVideo,sp01,Ti,Ro,4,3,2,flow/blocks/NVocInAudio_NoVideo_B.csv,,,,,,,,,0,3,3,3,0,2,2,11,,,,,,,,,-0.35462962962962963,-0.09305555555555556,1,0,0,5.023850999999922,call3,-0.010185185185185186,-0.08888888888888889,1,0,0,5.487705600000481,colour3,0.42314814814814816,-0.32916666666666666,1,0,0,5.940575700000409,number4,True,True,True,38,3,2019_Nov_19_1605,MA_Theta_Exp,3.0.7,60.0974179141861,
video/Experiment/zh_sp01_Un_Ge_4_NVocInAudio_NoVideo.avi,vocoded,noVideo,sp01,Un,Ge,4,3,2,flow/blocks/NVocInAudio_NoVideo_B.csv,,,,,,,,,0,3,3,3,0,3,3,19,,,,,,,,,-0.41712962962962963,-0.31666666666666665,1,0,0,5.128995199998826,call4,-0.010185185185185186,0.3472222222222222,1,0,0,5.7060312000012345,colour1,0.38981481481481484,-0.32083333333333336,1,0,0,6.327976999999009,number4,True,True,True,38,3,2019_Nov_19_1605,MA_Theta_Exp,3.0.7,60.0974179141861,
video/Experiment/zh_sp01_Dr_Gr_1_NVocInAudio_NoVideo.avi,vocoded,noVideo,sp01,Dr,Gr,1,3,2,flow/blocks/NVocInAudio_NoVideo_B.csv,,,,,,,,,0,3,3,3,0,4,4,20,,,,,,,,,-0.38101851851851853,0.13194444444444445,1,0,0,5.208006700000624,call2,-0.02546296296296296,0.08333333333333333,1,0,0,5.641561300000831,colour2,0.4064814814814815,0.31805555555555554,1,0,0,6.12915140000041,number1,True,True,True,38,3,2019_Nov_19_1605,MA_Theta_Exp,3.0.7,60.0974179141861,
video/Experiment/zh_sp01_Ad_Ge_4_NVocInAudio_NoVideo.avi,vocoded,noVideo,sp01,Ad,Ge,4,3,2,flow/blocks/NVocInAudio_NoVideo_B.csv,,,,,,,,,0,3,3,3,0,5,5,3,,,,,,,,,-0.42407407407407405,0.2916666666666667,1,0,0,4.819051599999511,call1,-0.007407407407407408,0.27361111111111114,1,0,0,5.8387270999992325,colour1,0.4064814814814815,-0.2833333333333333,1,0,0,6.707532300000821,number4,True,True,True,38,3,2019_Nov_19_1605,MA_Theta_Exp,3.0.7,60.0974179141861,
video/Experiment/zh_sp07_Dr_Ro_3_NVocInAudio_NoVideo.avi,vocoded,noVideo,sp07,Dr,Ro,3,3,2,flow/blocks/NVocInAudio_NoVideo_B.csv,,,,,,,,,0,3,3,3,0,6,6,26,,,,,,,,,-0.4115740740740741,0.06805555555555555,1,0,0,4.5748521000004985,call2,0.006481481481481481,-0.12777777777777777,1,0,0,5.045023599999695,colour3,0.3675925925925926,-0.13333333333333333,1,0,0,5.544700799999191,number3,True,True,True,38,3,2019_Nov_19_1605,MA_Theta_Exp,3.0.7,60.0974179141861,
video/Experiment/zh_sp01_Ti_Gr_1_NVocInAudio_NoVideo.avi,vocoded,noVideo,sp01,Ti,Gr,1,3,2,flow/blocks/NVocInAudio_NoVideo_B.csv,,,,,,,,,0,3,3,3,0,7,7,4,,,,,,,,,-0.35324074074074074,-0.08194444444444444,1,0,0,5.340416900000491,call3,0.012037037037037037,0.0875,1,0,0,5.855528000000049,colour2,0.4009259259259259,0.2861111111111111,1,0,0,6.456794899999295,number1,True,True,True,38,3,2019_Nov_19_1605,MA_Theta_Exp,3.0.7,60.0974179141861,
video/Experiment/zh_sp07_Ti_We_3_NVocInAudio_NoVideo.avi,vocoded,noVideo,sp07,Ti,We,3,3,2,flow/blocks/NVocInAudio_NoVideo_B.csv,,,,,,,,,0,3,3,3,0,8,8,30,,,,,,,,,-0.4115740740740741,-0.07361111111111111,1,0,0,4.337606900000537,call3,-0.014351851851851852,-0.30972222222222223,1,0,0,4.799030899999707,colour4,0.40370370370370373,-0.08611111111111111,1,0,0,5.351541199999701,number3,True,True,True,38,3,2019_Nov_19_1605,MA_Theta_Exp,3.0.7,60.0974179141861,
video/Experiment/zh_sp01_Un_Gr_4_NVocInAudio_NoVideo.avi,vocoded,noVideo,sp01,Un,Gr,4,3,2,flow/blocks/NVocInAudio_NoVideo_B.csv,,,,,,,,,0,3,3,3,0,9,9,23,,,,,,,,,-0.4074074074074074,-0.3236111111111111,1,0,0,4.885043499998574,call4,0.003703703703703704,0.06388888888888888,1,0,0,5.5400942999986,colour2,0.38842592592592595,-0.3236111111111111,1,0,0,6.140298500000426,number4,True,True,True,38,3,2019_Nov_19_1605,MA_Theta_Exp,3.0.7,60.0974179141861,
video/Experiment/zh_sp01_Ti_Gr_3_NVocInAudio_NoVideo.avi,vocoded,noVideo,sp01,Ti,Gr,3,3,2,flow/blocks/NVocInAudio_NoVideo_B.csv,,,,,,,,,0,3,3,3,0,10,10,22,,,,,,,,,-0.3824074074074074,-0.11666666666666667,1,0,0,4.830679200000304,call3,0.03148148148148148,0.041666666666666664,1,0,0,5.542272599999706,colour2,0.4134259259259259,-0.1486111111111111,1,0,0,6.111091799999485,number3,True,True,True,38,3,2019_Nov_19_1605,MA_Theta_Exp,3.0.7,60.0974179141861,
video/Experiment/zh_sp01_Ti_We_1_NVocInAudio_NoVideo.avi,vocoded,noVideo,sp01,Ti,We,1,3,2,flow/blocks/NVocInAudio_NoVideo_B.csv,,,,,,,,,0,3,3,3,0,11,11,12,,,,,,,,,-0.412962962962963,-0.11805555555555555,1,0,0,4.913008499999705,call3,-0.040740740740740744,-0.2875,1,0,0,5.380748999999923,colour4,0.36898148148148147,0.2722222222222222,1,0,0,6.0152085999998235,number1,True,True,True,38,3,2019_Nov_19_1605,MA_Theta_Exp,3.0.7,60.0974179141861,
video/Experiment/zh_sp01_Ad_Ge_1_NVocInAudio_NoVideo.avi,vocoded,noVideo,sp01,Ad,Ge,1,3,2,flow/blocks/NVocInAudio_NoVideo_B.csv,,,,,,,,,0,3,3,3,0,12,12,16,,,,,,,,,-0.39490740740740743,0.31666666666666665,1,0,0,5.246505999999499,call1,0.060648148148148145,0.33055555555555555,1,0,0,5.64857850000044,colour1,0.3939814814814815,0.28055555555555556,1,0,0,6.0641461000013805,number1,True,True,True,38,3,2019_Nov_19_1605,MA_Theta_Exp,3.0.7,60.0974179141861,
video/Experiment/zh_sp07_Dr_We_4_NVocInAudio_NoVideo.avi,vocoded,noVideo,sp07,Dr,We,4,3,2,flow/blocks/NVocInAudio_NoVideo_B.csv,,,,,,,,,0,3,3,3,0,13,13,15,,,,,,,,,-0.40324074074074073,-0.33611111111111114,1,0,0,4.504192799999146,call4,0.07175925925925926,-0.2972222222222222,1,0,0,5.218398999999408,colour4,0.44537037037037036,-0.34305555555555556,1,0,0,5.818439799999396,number4,False,True,True,38,3,2019_Nov_19_1605,MA_Theta_Exp,3.0.7,60.0974179141861,
video/Experiment/zh_sp07_Ti_Gr_2_NVocInAudio_NoVideo.avi,vocoded,noVideo,sp07,Ti,Gr,2,3,2,flow/blocks/NVocInAudio_NoVideo_B.csv,,,,,,,,,0,3,3,3,0,14,14,21,,,,,,,,,-0.4074074074074074,-0.12638888888888888,1,0,0,4.49997970000004,call3,0.016203703703703703,0.10972222222222222,1,0,0,5.119302799999787,colour2,0.5203703703703704,0.1111111111111111,1,0,0,5.563558600000761,number2,True,True,True,38,3,2019_Nov_19_1605,MA_Theta_Exp,3.0.7,60.0974179141861,
video/Experiment/zh_sp07_Un_Ge_1_NVocInAudio_NoVideo.avi,vocoded,noVideo,sp07,Un,Ge,1,3,2,flow/blocks/NVocInAudio_NoVideo_B.csv,,,,,,,,,0,3,3,3,0,15,15,0,,,,,,,,,-0.3199074074074074,-0.3125,1,0,0,4.238847100001294,call4,0.006481481481481481,0.29444444444444445,1,0,0,4.819835699998293,colour1,0.41064814814814815,0.2791666666666667,1,0,0,5.586604599999191,number1,True,True,True,38,3,2019_Nov_19_1605,MA_Theta_Exp,3.0.7,60.0974179141861,
video/Experiment/zh_sp07_Ad_Ro_2_NVocInAudio_NoVideo.avi,vocoded,noVideo,sp07,Ad,Ro,2,3,2,flow/blocks/NVocInAudio_NoVideo_B.csv,,,,,,,,,0,3,3,3,0,16,16,25,,,,,,,,,-0.36018518518518516,0.28194444444444444,1,0,0,4.454263300000093,call1,-0.010185185185185186,-0.0625,1,0,0,4.93755500000043,colour3,0.5023148148148148,0.1361111111111111,1,0,0,5.465317300000606,number2,True,True,True,38,3,2019_Nov_19_1605,MA_Theta_Exp,3.0.7,60.0974179141861,
video/Experiment/zh_sp07_Ti_Ro_1_NVocInAudio_NoVideo.avi,vocoded,noVideo,sp07,Ti,Ro,1,3,2,flow/blocks/NVocInAudio_NoVideo_B.csv,,,,,,,,,0,3,3,3,0,17,17,8,,,,,,,,,-0.35324074074074074,-0.14444444444444443,1,0,0,4.4997588000005635,call3,0.0412037037037037,-0.12361111111111112,1,0,0,4.946845200000098,colour3,0.38564814814814813,0.2833333333333333,1,0,0,5.535832300000038,number1,True,True,True,38,3,2019_Nov_19_1605,MA_Theta_Exp,3.0.7,60.0974179141861,
video/Experiment/zh_sp01_Ad_Ge_2_NVocInAudio_NoVideo.avi,vocoded,noVideo,sp01,Ad,Ge,2,3,2,flow/blocks/NVocInAudio_NoVideo_B.csv,,,,,,,,,0,3,3,3,0,18,18,1,,,,,,,,,-0.36018518518518516,0.24583333333333332,1,0,0,5.088283799999772,call1,-0.022685185185185187,-0.13055555555555556,1,0,0,5.569634200001019,colour3,0.3787037037037037,0.10972222222222222,1,0,0,6.29846759999964,number2,True,False,True,38,3,2019_Nov_19_1605,MA_Theta_Exp,3.0.7,60.0974179141861,
video/Experiment/zh_sp01_Ad_Ro_3_NVocInAudio_NoVideo.avi,vocoded,noVideo,sp01,Ad,Ro,3,3,2,flow/blocks/NVocInAudio_NoVideo_B.csv,,,,,,,,,0,3,3,3,0,19,19,10,,,,,,,,,-0.36018518518518516,0.30694444444444446,1,0,0,5.1476901000005455,call1,-0.010185185185185186,-0.08333333333333333,1,0,0,5.599211700000524,colour3,0.38842592592592595,-0.12361111111111112,1,0,0,6.04989150000074,number3,True,True,True,38,3,2019_Nov_19_1605,MA_Theta_Exp,3.0.7,60.0974179141861,
video/Experiment/zh_sp07_Dr_Ro_1_NVocInAudio_NoVideo.avi,vocoded,noVideo,sp07,Dr,Ro,1,3,2,flow/blocks/NVocInAudio_NoVideo_B.csv,,,,,,,,,0,3,3,3,0,20,20,24,,,,,,,,,-0.36018518518518516,0.10277777777777777,1,0,0,4.395136000001003,call2,-0.026851851851851852,-0.08333333333333333,1,0,0,4.841330999999627,colour3,0.38981481481481484,0.30416666666666664,1,0,0,5.479126500000348,number1,True,True,True,38,3,2019_Nov_19_1605,MA_Theta_Exp,3.0.7,60.0974179141861,
video/Experiment/zh_sp07_Ad_We_4_NVocInAudio_NoVideo.avi,vocoded,noVideo,sp07,Ad,We,4,3,2,flow/blocks/NVocInAudio_NoVideo_B.csv,,,,,,,,,0,3,3,3,0,21,21,31,,,,,,,,,-0.3449074074074074,0.11805555555555555,1,0,0,4.255854999999428,call2,0.005092592592592593,-0.34444444444444444,1,0,0,4.8335719000006065,colour4,0.45787037037037037,-0.3347222222222222,1,0,0,5.305819300001531,number4,False,True,True,38,3,2019_Nov_19_1605,MA_Theta_Exp,3.0.7,60.0974179141861,
video/Experiment/zh_sp07_Un_Ro_2_NVocInAudio_NoVideo.avi,vocoded,noVideo,sp07,Un,Ro,2,3,2,flow/blocks/NVocInAudio_NoVideo_B.csv,,,,,,,,,0,3,3,3,0,22,22,9,,,,,,,,,-0.38101851851851853,-0.3236111111111111,1,0,0,4.4449069000002055,call4,0.04814814814814815,-0.11805555555555555,1,0,0,4.91168689999904,colour3,0.38842592592592595,0.08888888888888889,1,0,0,5.578188299999965,number2,True,True,True,38,3,2019_Nov_19_1605,MA_Theta_Exp,3.0.7,60.0974179141861,
video/Experiment/zh_sp07_Ad_Gr_4_NVocInAudio_NoVideo.avi,vocoded,noVideo,sp07,Ad,Gr,4,3,2,flow/blocks/NVocInAudio_NoVideo_B.csv,,,,,,,,,0,3,3,3,0,23,23,7,,,,,,,,,-0.42962962962962964,0.275,1,0,0,4.323940099999163,call1,-0.02824074074074074,-0.10277777777777777,1,0,0,4.926748800000496,colour3,0.4078703703703704,-0.2638888888888889,1,0,0,6.623115799999141,number4,True,False,True,38,3,2019_Nov_19_1605,MA_Theta_Exp,3.0.7,60.0974179141861,
video/Experiment/zh_sp01_Un_We_2_NVocInAudio_NoVideo.avi,vocoded,noVideo,sp01,Un,We,2,3,2,flow/blocks/NVocInAudio_NoVideo_B.csv,,,,,,,,,0,3,3,3,0,24,24,13,,,,,,,,,-0.37407407407407406,-0.31805555555555554,1,0,0,4.9218338999999105,call4,-0.06018518518518518,-0.3277777777777778,1,0,0,5.340551699999196,colour4,0.4064814814814815,0.08611111111111111,1,0,0,6.119308400000591,number2,True,True,True,38,3,2019_Nov_19_1605,MA_Theta_Exp,3.0.7,60.0974179141861,
video/Experiment/zh_sp07_Dr_Ge_2_NVocInAudio_NoVideo.avi,vocoded,noVideo,sp07,Dr,Ge,2,3,2,flow/blocks/NVocInAudio_NoVideo_B.csv,,,,,,,,,0,3,3,3,0,25,25,17,,,,,,,,,-0.33240740740740743,0.28055555555555556,1,0,0,4.686188800000309,call1,0.03148148148148148,0.2902777777777778,1,0,0,9.392118999998274,colour1,0.35509259259259257,0.1125,1,0,0,9.886075099999289,number2,False,True,True,38,3,2019_Nov_19_1605,MA_Theta_Exp,3.0.7,60.0974179141861,
video/Experiment/zh_sp01_Un_Gr_2_NVocInAudio_NoVideo.avi,vocoded,noVideo,sp01,Un,Gr,2,3,2,flow/blocks/NVocInAudio_NoVideo_B.csv,,,,,,,,,0,3,3,3,0,26,26,5,,,,,,,,,-0.350462962962963,-0.3106481481481482,1,0,0,5.097376499999882,call4,-0.007407407407407408,0.09212962962962963,1,0,0,5.601679800000056,colour2,0.35648148148148145,0.056018518518518516,1,0,0,7.0291873999995005,number2,True,True,True,38,3,2019_Nov_19_1605,MA_Theta_Exp,3.0.7,60.0974179141861,
video/Experiment/zh_sp07_Dr_We_1_NVocInAudio_NoVideo.avi,vocoded,noVideo,sp07,Dr,We,1,3,2,flow/blocks/NVocInAudio_NoVideo_B.csv,,,,,,,,,0,3,3,3,0,27,27,28,,,,,,,,,-0.4115740740740741,0.0824074074074074,1,0,0,4.5282735000000685,call2,0.014814814814814815,-0.35648148148148145,1,0,0,5.128210699998817,colour4,0.3537037037037037,0.3101851851851852,1,0,0,5.765180899999905,number1,True,True,True,38,3,2019_Nov_19_1605,MA_Theta_Exp,3.0.7,60.0974179141861,
video/Experiment/zh_sp01_Dr_We_3_NVocInAudio_NoVideo.avi,vocoded,noVideo,sp01,Dr,We,3,3,2,flow/blocks/NVocInAudio_NoVideo_B.csv,,,,,,,,,0,3,3,3,0,28,28,14,,,,,,,,,-0.4185185185185185,0.03796296296296296,1,0,0,4.7759619999997085,call2,-0.01712962962962963,-0.3578703703703704,1,0,0,5.3301195000003645,colour4,0.4023148148148148,-0.08425925925925926,1,0,0,5.8279368999992585,number3,True,True,True,38,3,2019_Nov_19_1605,MA_Theta_Exp,3.0.7,60.0974179141861,
video/Experiment/zh_sp01_Un_Gr_3_NVocInAudio_NoVideo.avi,vocoded,noVideo,sp01,Un,Gr,3,3,2,flow/blocks/NVocInAudio_NoVideo_B.csv,,,,,,,,,0,3,3,3,0,29,29,6,,,,,,,,,-0.3907407407407407,-0.3050925925925926,1,0,0,4.965177100000801,call4,0.03148148148148148,0.06574074074074074,1,0,0,5.5149208000002545,colour2,0.39537037037037037,-0.08425925925925926,1,0,0,5.983175299999857,number3,True,True,True,38,3,2019_Nov_19_1605,MA_Theta_Exp,3.0.7,60.0974179141861,
video/Experiment/zh_sp07_Ti_We_2_NVocInAudio_NoVideo.avi,vocoded,noVideo,sp07,Ti,We,2,3,2,flow/blocks/NVocInAudio_NoVideo_B.csv,,,,,,,,,0,3,3,3,0,30,30,29,,,,,,,,,-0.412962962962963,-0.30787037037037035,1,0,0,4.439620899998772,call4,-0.021296296296296296,-0.30092592592592593,1,0,0,4.888475499999913,colour4,0.3398148148148148,0.09074074074074075,1,0,0,5.478246299999228,number2,False,True,True,38,3,2019_Nov_19_1605,MA_Theta_Exp,3.0.7,60.0974179141861,
video/Experiment/zh_sp01_Un_Ro_4_NVocInAudio_NoVideo.avi,vocoded,noVideo,sp01,Un,Ro,4,3,2,flow/blocks/NVocInAudio_NoVideo_B.csv,,,,,,,,,0,3,3,3,0,31,31,27,,,,,,,,,-0.37407407407407406,-0.33287037037037037,1,0,0,5.004558399999951,call4,0.020370370370370372,-0.15231481481481482,1,0,0,5.4737482000000455,colour3,0.3912037037037037,-0.33425925925925926,1,0,0,5.9527108000002045,number4,True,True,True,38,3,2019_Nov_19_1605,MA_Theta_Exp,3.0.7,60.0974179141861,
video/Experiment/zh_sp07_Ad_Gr_1_NoThetaInAudio_GlobalThetaInVideo.avi,noTheta,plusVideo,sp07,Ad,Gr,1,4,3,flow/blocks/NoThetaInAudio_GlobalThetaInVideo_A.csv,,,,,,,,,0,4,4,4,0,0,0,4,,,,,,,,,-0.3365740740740741,0.3060185185185185,1,0,0,7.289662099999987,call1,0.04814814814814815,0.25324074074074077,1,0,0,9.710527100000036,colour1,0.4148148148148148,0.2337962962962963,1,0,0,10.406768099999681,number1,True,False,True,38,3,2019_Nov_19_1605,MA_Theta_Exp,3.0.7,60.0974179141861,
video/Experiment/zh_sp01_Dr_Gr_3_NoThetaInAudio_GlobalThetaInVideo.avi,noTheta,plusVideo,sp01,Dr,Gr,3,4,3,flow/blocks/NoThetaInAudio_GlobalThetaInVideo_A.csv,,,,,,,,,0,4,4,4,0,1,1,6,,,,,,,,,-0.412962962962963,-0.36064814814814816,1,0,0,5.0966920999999274,call4,-0.014351851851851852,0.06712962962962964,1,0,0,5.70996230000128,colour2,0.3787037037037037,-0.1162037037037037,1,0,0,6.243626999999833,number3,False,True,True,38,3,2019_Nov_19_1605,MA_Theta_Exp,3.0.7,60.0974179141861,
video/Experiment/zh_sp07_Dr_Gr_4_NoThetaInAudio_GlobalThetaInVideo.avi,noTheta,plusVideo,sp07,Dr,Gr,4,4,3,flow/blocks/NoThetaInAudio_GlobalThetaInVideo_A.csv,,,,,,,,,0,4,4,4,0,2,2,23,,,,,,,,,-0.3421296296296296,0.09074074074074075,1,0,0,4.380506800000148,call2,0.006481481481481481,0.05462962962962963,1,0,0,4.8479497999996966,colour2,0.3509259259259259,-0.15092592592592594,1,0,0,5.335480800000369,number3,True,True,False,38,3,2019_Nov_19_1605,MA_Theta_Exp,3.0.7,60.0974179141861,
video/Experiment/zh_sp01_Ad_We_1_NoThetaInAudio_GlobalThetaInVideo.avi,noTheta,plusVideo,sp01,Ad,We,1,4,3,flow/blocks/NoThetaInAudio_GlobalThetaInVideo_A.csv,,,,,,,,,0,4,4,4,0,3,3,12,,,,,,,,,-0.3851851851851852,0.27824074074074073,1,0,0,4.940386499998567,call1,-0.001851851851851852,-0.09259259259259259,1,0,0,5.556758200000331,colour3,0.42314814814814816,0.3074074074074074,1,0,0,6.159194800000478,number1,True,False,True,38,3,2019_Nov_19_1605,MA_Theta_Exp,3.0.7,60.0974179141861,
video/Experiment/zh_sp07_Dr_Ro_2_NoThetaInAudio_GlobalThetaInVideo.avi,noTheta,plusVideo,sp07,Dr,Ro,2,4,3,flow/blocks/NoThetaInAudio_GlobalThetaInVideo_A.csv,,,,,,,,,0,4,4,4,0,4,4,9,,,,,,,,,-0.3907407407407407,0.10462962962962963,1,0,0,4.528169600000183,call2,-0.03657407407407407,-0.13425925925925927,1,0,0,5.031144500000664,colour3,0.47453703703703703,0.12962962962962962,1,0,0,5.550741700000799,number2,True,True,True,38,3,2019_Nov_19_1605,MA_Theta_Exp,3.0.7,60.0974179141861,
video/Experiment/zh_sp07_Ti_Ge_2_NoThetaInAudio_GlobalThetaInVideo.avi,noTheta,plusVideo,sp07,Ti,Ge,2,4,3,flow/blocks/NoThetaInAudio_GlobalThetaInVideo_A.csv,,,,,,,,,0,4,4,4,0,5,5,1,,,,,,,,,-0.3990740740740741,-0.3023148148148148,1,0,0,5.029069399999571,call4,0.024537037037037038,-0.09398148148148149,1,0,0,5.680857499999547,colour3,0.3675925925925926,0.13240740740740742,1,0,0,6.212800299999799,number2,False,False,True,38,3,2019_Nov_19_1605,MA_Theta_Exp,3.0.7,60.0974179141861,
video/Experiment/zh_sp01_Ad_Ro_1_NoThetaInAudio_GlobalThetaInVideo.avi,noTheta,plusVideo,sp01,Ad,Ro,1,4,3,flow/blocks/NoThetaInAudio_GlobalThetaInVideo_A.csv,,,,,,,,,0,4,4,4,0,6,6,8,,,,,,,,,-0.36435185185185187,0.27685185185185185,1,0,0,5.273218899999847,call1,0.03564814814814815,-0.09953703703703703,1,0,0,5.908170599999721,colour3,0.43287037037037035,0.11851851851851852,1,0,0,6.4615907999996125,number2,True,True,False,38,3,2019_Nov_19_1605,MA_Theta_Exp,3.0.7,60.0974179141861,
video/Experiment/zh_sp07_Un_Ge_2_NoThetaInAudio_GlobalThetaInVideo.avi,noTheta,plusVideo,sp07,Un,Ge,2,4,3,flow/blocks/NoThetaInAudio_GlobalThetaInVideo_A.csv,,,,,,,,,0,4,4,4,0,7,7,17,,,,,,,,,-0.42962962962962964,-0.2912037037037037,1,0,0,4.474259399999937,call4,0.0023148148148148147,0.3435185185185185,1,0,0,5.254105100000743,colour1,0.4134259259259259,0.12129629629629629,1,0,0,5.9047300000002,number2,True,True,True,38,3,2019_Nov_19_1605,MA_Theta_Exp,3.0.7,60.0974179141861,
video/Experiment/zh_sp07_Dr_Gr_2_NoThetaInAudio_GlobalThetaInVideo.avi,noTheta,plusVideo,sp07,Dr,Gr,2,4,3,flow/blocks/NoThetaInAudio_GlobalThetaInVideo_A.csv,,,,,,,,,0,4,4,4,0,8,8,5,,,,,,,,,-0.42407407407407405,-0.32731481481481484,1,0,0,4.438117100000454,call4,0.005092592592592593,0.06435185185185185,1,0,0,5.040663699999641,colour2,0.4078703703703704,0.10740740740740741,1,0,0,5.560448700000052,number2,False,True,True,38,3,2019_Nov_19_1605,MA_Theta_Exp,3.0.7,60.0974179141861,
video/Experiment/zh_sp07_Dr_Ge_1_NoThetaInAudio_GlobalThetaInVideo.avi,noTheta,plusVideo,sp07,Dr,Ge,1,4,3,flow/blocks/NoThetaInAudio_GlobalThetaInVideo_A.csv,,,,,,,,,0,4,4,4,0,9,9,0,,,,,,,,,-0.3476851851851852,0.11851851851851852,1,0,0,4.2654615999999805,call2,-0.010185185185185186,0.33101851851851855,1,0,0,4.80544159999954,colour1,0.3398148148148148,0.28379629629629627,1,0,0,5.353943000000072,number1,True,True,True,38,3,2019_Nov_19_1605,MA_Theta_Exp,3.0.7,60.0974179141861,
video/Experiment/zh_sp07_Ti_Gr_4_NoThetaInAudio_GlobalThetaInVideo.avi,noTheta,plusVideo,sp07,Ti,Gr,4,4,3,flow/blocks/NoThetaInAudio_GlobalThetaInVideo_A.csv,,,,,,,,,0,4,4,4,0,10,10,7,,,,,,,,,-0.38657407407407407,-0.11898148148148148,1,0,0,4.755210099998294,call3,-0.0060185185185185185,0.07824074074074074,1,0,0,5.342050600000221,colour2,0.36064814814814816,-0.2759259259259259,1,0,0,6.225021000000197,number4,True,True,True,38,3,2019_Nov_19_1605,MA_Theta_Exp,3.0.7,60.0974179141861,
video/Experiment/zh_sp01_Ti_Ro_2_NoThetaInAudio_GlobalThetaInVideo.avi,noTheta,plusVideo,sp01,Ti,Ro,2,4,3,flow/blocks/NoThetaInAudio_GlobalThetaInVideo_A.csv,,,,,,,,,0,4,4,4,0,11,11,25,,,,,,,,,-0.40046296296296297,0.2601851851851852,1,0,0,7.24199950000002,call1,-0.02546296296296296,-0.16064814814814815,1,0,0,7.874589000000924,colour3,0.38425925925925924,0.08101851851851852,1,0,0,8.80790639999941,number2,False,True,True,38,3,2019_Nov_19_1605,MA_Theta_Exp,3.0.7,60.0974179141861,
video/Experiment/zh_sp07_Dr_We_2_NoThetaInAudio_GlobalThetaInVideo.avi,noTheta,plusVideo,sp07,Dr,We,2,4,3,flow/blocks/NoThetaInAudio_GlobalThetaInVideo_A.csv,,,,,,,,,0,4,4,4,0,12,12,13,,,,,,,,,-0.3490740740740741,0.10740740740740741,1,0,0,4.576687900000252,call2,-0.01712962962962963,-0.3287037037037037,1,0,0,5.183122899999944,colour4,0.34814814814814815,0.08101851851851852,1,0,0,5.731729400000404,number2,True,True,True,38,3,2019_Nov_19_1605,MA_Theta_Exp,3.0.7,60.0974179141861,
video/Experiment/zh_sp01_Un_Gr_1_NoThetaInAudio_GlobalThetaInVideo.avi,noTheta,plusVideo,sp01,Un,Gr,1,4,3,flow/blocks/NoThetaInAudio_GlobalThetaInVideo_A.csv,,,,,,,,,0,4,4,4,0,13,13,20,,,,,,,,,-0.38935185185185184,-0.3189814814814815,1,0,0,4.984494799999084,call4,-0.032407407407407406,0.047685185185185185,1,0,0,5.566743600000336,colour2,0.3662037037037037,0.31296296296296294,1,0,0,6.118675100000473,number1,True,True,True,38,3,2019_Nov_19_1605,MA_Theta_Exp,3.0.7,60.0974179141861,
video/Experiment/zh_sp01_Ti_Ge_4_NoThetaInAudio_GlobalThetaInVideo.avi,noTheta,plusVideo,sp01,Ti,Ge,4,4,3,flow/blocks/NoThetaInAudio_GlobalThetaInVideo_A.csv,,,,,,,,,0,4,4,4,0,14,14,3,,,,,,,,,-0.3685185185185185,-0.12453703703703704,1,0,0,4.891207599999689,call3,-0.0712962962962963,0.29768518518518516,1,0,0,5.631888199999594,colour1,0.34953703703703703,-0.22592592592592592,1,0,0,6.379773000000569,number4,True,True,True,38,3,2019_Nov_19_1605,MA_Theta_Exp,3.0.7,60.0974179141861,
video/Experiment/zh_sp07_Ti_Ro_3_NoThetaInAudio_GlobalThetaInVideo.avi,noTheta,plusVideo,sp07,Ti,Ro,3,4,3,flow/blocks/NoThetaInAudio_GlobalThetaInVideo_A.csv,,,,,,,,,0,4,4,4,0,15,15,10,,,,,,,,,-0.3490740740740741,-0.08148148148148149,1,0,0,4.377889499999583,call3,0.012037037037037037,-0.12037037037037036,1,0,0,4.894239400000515,colour3,0.43287037037037035,-0.1175925925925926,1,0,0,5.40143050000006,number3,True,True,True,38,3,2019_Nov_19_1605,MA_Theta_Exp,3.0.7,60.0974179141861,
video/Experiment/zh_sp07_Un_We_4_NoThetaInAudio_GlobalThetaInVideo.avi,noTheta,plusVideo,sp07,Un,We,4,4,3,flow/blocks/NoThetaInAudio_GlobalThetaInVideo_A.csv,,,,,,,,,0,4,4,4,0,16,16,15,,,,,,,,,-0.37962962962962965,-0.24259259259259258,1,0,0,4.366967100000693,call4,-0.0060185185185185185,-0.1398148148148148,1,0,0,5.344758999999613,colour3,0.38564814814814813,-0.3189814814814815,1,0,0,5.963312200001383,number4,True,False,True,38,3,2019_Nov_19_1605,MA_Theta_Exp,3.0.7,60.0974179141861,
video/Experiment/zh_sp01_Un_Ro_1_NoThetaInAudio_GlobalThetaInVideo.avi,noTheta,plusVideo,sp01,Un,Ro,1,4,3,flow/blocks/NoThetaInAudio_GlobalThetaInVideo_A.csv,,,,,,,,,0,4,4,4,0,17,17,24,,,,,,,,,-0.3699074074074074,-0.2759259259259259,1,0,0,5.110778799999025,call4,-0.008796296296296297,-0.10787037037037037,1,0,0,5.556680300000153,colour3,0.4009259259259259,0.31712962962962965,1,0,0,6.162008699999205,number1,True,True,True,38,3,2019_Nov_19_1605,MA_Theta_Exp,3.0.7,60.0974179141861,
video/Experiment/zh_sp01_Ad_Gr_3_NoThetaInAudio_GlobalThetaInVideo.avi,noTheta,plusVideo,sp01,Ad,Gr,3,4,3,flow/blocks/NoThetaInAudio_GlobalThetaInVideo_A.csv,,,,,,,,,0,4,4,4,0,18,18,22,,,,,,,,,-0.3296296296296296,0.300462962962963,1,0,0,4.970356300000276,call1,-0.0032407407407407406,-0.11898148148148148,1,0,0,5.684496600000784,colour3,0.42592592592592593,-0.1037037037037037,1,0,0,6.616124599999239,number3,True,False,True,38,3,2019_Nov_19_1605,MA_Theta_Exp,3.0.7,60.0974179141861,
video/Experiment/zh_sp01_Ti_Ge_1_NoThetaInAudio_GlobalThetaInVideo.avi,noTheta,plusVideo,sp01,Ti,Ge,1,4,3,flow/blocks/NoThetaInAudio_GlobalThetaInVideo_A.csv,,,,,,,,,0,4,4,4,0,19,19,16,,,,,,,,,-0.3962962962962963,-0.13703703703703704,1,0,0,5.086816000000908,call3,-0.0032407407407407406,0.2865740740740741,1,0,0,7.170030100000076,colour1,0.4050925925925926,0.2712962962962963,1,0,0,7.803222900000037,number1,True,True,True,38,3,2019_Nov_19_1605,MA_Theta_Exp,3.0.7,60.0974179141861,
video/Experiment/zh_sp01_Dr_Ro_4_NoThetaInAudio_GlobalThetaInVideo.avi,noTheta,plusVideo,sp01,Dr,Ro,4,4,3,flow/blocks/NoThetaInAudio_GlobalThetaInVideo_A.csv,,,,,,,,,0,4,4,4,0,20,20,27,,,,,,,,,-0.36574074074074076,-0.3106481481481482,1,0,0,5.001834800001234,call4,-0.0587962962962963,-0.12175925925925926,1,0,0,5.536619399999836,colour3,0.37592592592592594,-0.2912037037037037,1,0,0,6.269315600000482,number4,False,True,True,38,3,2019_Nov_19_1605,MA_Theta_Exp,3.0.7,60.0974179141861,
video/Experiment/zh_sp01_Un_We_1_NoThetaInAudio_GlobalThetaInVideo.avi,noTheta,plusVideo,sp01,Un,We,1,4,3,flow/blocks/NoThetaInAudio_GlobalThetaInVideo_A.csv,,,,,,,,,0,4,4,4,0,21,21,28,,,,,,,,,-0.3990740740740741,-0.2912037037037037,1,0,0,5.052910399999746,call4,0.03148148148148148,-0.3037037037037037,1,0,0,5.57049569999981,colour4,0.3425925925925926,0.27824074074074073,1,0,0,6.117040799999813,number1,True,True,True,38,3,2019_Nov_19_1605,MA_Theta_Exp,3.0.7,60.0974179141861,
video/Experiment/zh_sp01_Ad_Gr_2_NoThetaInAudio_GlobalThetaInVideo.avi,noTheta,plusVideo,sp01,Ad,Gr,2,4,3,flow/blocks/NoThetaInAudio_GlobalThetaInVideo_A.csv,,,,,,,,,0,4,4,4,0,22,22,21,,,,,,,,,-0.3990740740740741,0.34629629629629627,1,0,0,5.006569300001502,call1,-0.007407407407407408,0.07962962962962963,1,0,0,5.523433700000169,colour2,0.4217592592592593,0.07685185185185185,1,0,0,6.086246500000925,number2,True,True,True,38,3,2019_Nov_19_1605,MA_Theta_Exp,3.0.7,60.0974179141861,
video/Experiment/zh_sp07_Ti_Ge_3_NoThetaInAudio_GlobalThetaInVideo.avi,noTheta,plusVideo,sp07,Ti,Ge,3,4,3,flow/blocks/NoThetaInAudio_GlobalThetaInVideo_A.csv,,,,,,,,,0,4,4,4,0,23,23,18,,,,,,,,,-0.33796296296296297,0.3282407407407407,1,0,0,5.949449800000366,call1,0.04537037037037037,-0.2912037037037037,1,0,0,6.895118599999478,colour4,0.3787037037037037,-0.12731481481481483,1,0,0,7.31085449999955,number3,False,False,True,38,3,2019_Nov_19_1605,MA_Theta_Exp,3.0.7,60.0974179141861,
video/Experiment/zh_sp01_Dr_Ge_4_NoThetaInAudio_GlobalThetaInVideo.avi,noTheta,plusVideo,sp01,Dr,Ge,4,4,3,flow/blocks/NoThetaInAudio_GlobalThetaInVideo_A.csv,,,,,,,,,0,4,4,4,0,24,24,19,,,,,,,,,-0.4185185185185185,-0.33287037037037037,1,0,0,4.806942600000184,call4,-0.008796296296296297,0.25601851851851853,1,0,0,5.42304680000052,colour1,0.3787037037037037,-0.31342592592592594,1,0,0,6.078384300000835,number4,False,True,True,38,3,2019_Nov_19_1605,MA_Theta_Exp,3.0.7,60.0974179141861,
video/Experiment/zh_sp01_Ad_Ro_4_NoThetaInAudio_GlobalThetaInVideo.avi,noTheta,plusVideo,sp01,Ad,Ro,4,4,3,flow/blocks/NoThetaInAudio_GlobalThetaInVideo_A.csv,,,,,,,,,0,4,4,4,0,25,25,11,,,,,,,,,-0.4074074074074074,0.29074074074074074,1,0,0,5.363139299999602,call1,0.020370370370370372,-0.15092592592592594,1,0,0,5.8410220999994635,colour3,0.4273148148148148,-0.337037037037037,1,0,0,6.313533900000039,number4,True,True,True,38,3,2019_Nov_19_1605,MA_Theta_Exp,3.0.7,60.0974179141861,
video/Experiment/zh_sp07_Ti_We_4_NoThetaInAudio_GlobalThetaInVideo.avi,noTheta,plusVideo,sp07,Ti,We,4,4,3,flow/blocks/NoThetaInAudio_GlobalThetaInVideo_A.csv,,,,,,,,,0,4,4,4,0,26,26,31,,,,,,,,,-0.3712962962962963,-0.12453703703703704,1,0,0,4.473005499999999,call3,-0.010185185185185186,-0.3425925925925926,1,0,0,5.0851608000011765,colour4,0.399537037037037,-0.3439814814814815,1,0,0,5.569601200000761,number4,True,True,True,38,3,2019_Nov_19_1605,MA_Theta_Exp,3.0.7,60.0974179141861,
video/Experiment/zh_sp07_Un_We_3_NoThetaInAudio_GlobalThetaInVideo.avi,noTheta,plusVideo,sp07,Un,We,3,4,3,flow/blocks/NoThetaInAudio_GlobalThetaInVideo_A.csv,,,,,,,,,0,4,4,4,0,27,27,14,,,,,,,,,-0.4212962962962963,-0.09814814814814815,1,0,0,4.301164299999073,call3,-0.031018518518518518,-0.31342592592592594,1,0,0,4.754779099999723,colour4,0.3537037037037037,-0.13425925925925927,1,0,0,5.284438899998349,number3,False,True,True,38,3,2019_Nov_19_1605,MA_Theta_Exp,3.0.7,60.0974179141861,
video/Experiment/zh_sp01_Un_Ro_3_NoThetaInAudio_GlobalThetaInVideo.avi,noTheta,plusVideo,sp01,Un,Ro,3,4,3,flow/blocks/NoThetaInAudio_GlobalThetaInVideo_A.csv,,,,,,,,,0,4,4,4,0,28,28,26,,,,,,,,,-0.36157407407407405,-0.3023148148148148,1,0,0,4.816832599999543,call4,0.04814814814814815,-0.1412037037037037,1,0,0,5.871872600000643,colour3,0.41203703703703703,-0.12453703703703704,1,0,0,6.434071200001199,number3,True,True,True,38,3,2019_Nov_19_1605,MA_Theta_Exp,3.0.7,60.0974179141861,
video/Experiment/zh_sp07_Un_Ge_3_NoThetaInAudio_GlobalThetaInVideo.avi,noTheta,plusVideo,sp07,Un,Ge,3,4,3,flow/blocks/NoThetaInAudio_GlobalThetaInVideo_A.csv,,,,,,,,,0,4,4,4,0,29,29,2,,,,,,,,,-0.35185185185185186,-0.3037037037037037,1,0,0,4.437982600000396,call4,-0.004629629629629629,0.31574074074074077,1,0,0,5.31897459999891,colour1,0.4162037037037037,-0.14953703703703702,1,0,0,6.068970399999671,number3,True,True,True,38,3,2019_Nov_19_1605,MA_Theta_Exp,3.0.7,60.0974179141861,
video/Experiment/zh_sp01_Ad_We_2_NoThetaInAudio_GlobalThetaInVideo.avi,noTheta,plusVideo,sp01,Ad,We,2,4,3,flow/blocks/NoThetaInAudio_GlobalThetaInVideo_A.csv,,,,,,,,,0,4,4,4,0,30,30,29,,,,,,,,,-0.3435185185185185,0.29768518518518516,1,0,0,4.960140799999863,call1,-0.022685185185185187,-0.3023148148148148,1,0,0,5.559945699998934,colour4,0.4023148148148148,0.07962962962962963,1,0,0,6.095148200001859,number2,True,True,True,38,3,2019_Nov_19_1605,MA_Theta_Exp,3.0.7,60.0974179141861,
video/Experiment/zh_sp07_Ad_We_3_NoThetaInAudio_GlobalThetaInVideo.avi,noTheta,plusVideo,sp07,Ad,We,3,4,3,flow/blocks/NoThetaInAudio_GlobalThetaInVideo_A.csv,,,,,,,,,0,4,4,4,0,31,31,30,,,,,,,,,-0.36018518518518516,0.3435185185185185,1,0,0,4.240811399999075,call1,-0.06018518518518518,-0.2912037037037037,1,0,0,4.87704819999999,colour4,0.4217592592592593,-0.08703703703703704,1,0,0,5.445005599998694,number3,True,True,True,38,3,2019_Nov_19_1605,MA_Theta_Exp,3.0.7,60.0974179141861,
video/Experiment/zh_sp07_Ad_Ge_2_GlobalTheta_NoVideo.avi,globalTheta,noVideo,sp07,Ad,Ge,2,0,5,flow/blocks/GlobalTheta_NoVideo_B.csv,,,,,,,,,,,,,,,,,0,0,0,0,0,0,0,1,-0.4013888888888889,0.36018518518518516,1,0,0,5.156850100000156,call1,-0.04583333333333333,0.2657407407407407,1,0,0,5.890015400000266,colour1,0.4513888888888889,0.07546296296296297,1,0,0,6.774048399998719,number2,True,True,True,38,3,2019_Nov_19_1605,MA_Theta_Exp,3.0.7,60.0974179141861,
video/Experiment/zh_sp07_Ti_We_3_GlobalTheta_NoVideo.avi,globalTheta,noVideo,sp07,Ti,We,3,0,5,flow/blocks/GlobalTheta_NoVideo_B.csv,,,,,,,,,,,,,,,,,0,0,0,0,0,1,1,30,-0.3819444444444444,-0.1037037037037037,1,0,0,4.736494100001437,call3,0.019444444444444445,-0.29259259259259257,1,0,0,5.1887308999976085,colour4,0.4444444444444444,-0.1425925925925926,1,0,0,5.609714300000633,number3,True,True,True,38,3,2019_Nov_19_1605,MA_Theta_Exp,3.0.7,60.0974179141861,
video/Experiment/zh_sp07_Ad_Ro_2_GlobalTheta_NoVideo.avi,globalTheta,noVideo,sp07,Ad,Ro,2,0,5,flow/blocks/GlobalTheta_NoVideo_B.csv,,,,,,,,,,,,,,,,,0,0,0,0,0,2,2,25,-0.3458333333333333,0.30462962962962964,1,0,0,4.2484823999984656,call1,0.004166666666666667,-0.09537037037037037,1,0,0,4.801427200000035,colour3,0.5083333333333333,0.12407407407407407,1,0,0,5.2983339999991586,number2,True,True,True,38,3,2019_Nov_19_1605,MA_Theta_Exp,3.0.7,60.0974179141861,
video/Experiment/zh_sp01_Ad_Ge_1_GlobalTheta_NoVideo.avi,globalTheta,noVideo,sp01,Ad,Ge,1,0,5,flow/blocks/GlobalTheta_NoVideo_B.csv,,,,,,,,,,,,,,,,,0,0,0,0,0,3,3,16,-0.3819444444444444,-0.34120370370370373,1,0,0,6.947685999999521,call4,0.03888888888888889,-0.12037037037037036,1,0,0,7.414066299999831,colour3,0.3902777777777778,0.2449074074074074,1,0,0,8.015352700000221,number1,False,False,True,38,3,2019_Nov_19_1605,MA_Theta_Exp,3.0.7,60.0974179141861,
video/Experiment/zh_sp07_Dr_Ge_3_GlobalTheta_NoVideo.avi,globalTheta,noVideo,sp07,Dr,Ge,3,0,5,flow/blocks/GlobalTheta_NoVideo_B.csv,,,,,,,,,,,,,,,,,0,0,0,0,0,4,4,2,-0.4444444444444444,-0.36898148148148147,1,0,0,4.930962500002352,call4,0.019444444444444445,-0.12037037037037036,1,0,0,5.596995500000048,colour3,0.4,-0.10231481481481482,1,0,0,5.996635100000276,number3,False,False,True,38,3,2019_Nov_19_1605,MA_Theta_Exp,3.0.7,60.0974179141861,
video/Experiment/zh_sp01_Un_Ge_1_GlobalTheta_NoVideo.avi,globalTheta,noVideo,sp01,Un,Ge,1,0,5,flow/blocks/GlobalTheta_NoVideo_B.csv,,,,,,,,,,,,,,,,,0,0,0,0,0,5,5,0,-0.3597222222222222,0.2962962962962963,1,0,0,5.923102499997185,call1,0.029166666666666667,-0.10648148148148148,1,0,0,6.7510340999979235,colour3,0.38055555555555554,0.32685185185185184,1,0,0,7.353868700000021,number1,False,False,True,38,3,2019_Nov_19_1605,MA_Theta_Exp,3.0.7,60.0974179141861,
video/Experiment/zh_sp01_Ad_Ge_3_GlobalTheta_NoVideo.avi,globalTheta,noVideo,sp01,Ad,Ge,3,0,5,flow/blocks/GlobalTheta_NoVideo_B.csv,,,,,,,,,,,,,,,,,0,0,0,0,0,6,6,18,-0.3888888888888889,-0.1439814814814815,1,0,0,5.4276649999992514,call3,0.0375,-0.1398148148148148,1,0,0,6.0134121000010055,colour3,0.4513888888888889,-0.11481481481481481,1,0,0,6.442027799999778,number3,False,False,True,38,3,2019_Nov_19_1605,MA_Theta_Exp,3.0.7,60.0974179141861,
video/Experiment/zh_sp01_Ti_Gr_2_GlobalTheta_NoVideo.avi,globalTheta,noVideo,sp01,Ti,Gr,2,0,5,flow/blocks/GlobalTheta_NoVideo_B.csv,,,,,,,,,,,,,,,,,0,0,0,0,0,7,7,21,-0.36666666666666664,-0.3148148148148148,1,0,0,6.549660399999993,call4,0.05416666666666667,-0.10092592592592593,1,0,0,7.033628100001806,colour3,0.4,0.10601851851851851,1,0,0,7.517920700000104,number2,False,False,True,38,3,2019_Nov_19_1605,MA_Theta_Exp,3.0.7,60.0974179141861,
video/Experiment/zh_sp07_Un_Gr_2_GlobalTheta_NoVideo.avi,globalTheta,noVideo,sp07,Un,Gr,2,0,5,flow/blocks/GlobalTheta_NoVideo_B.csv,,,,,,,,,,,,,,,,,0,0,0,0,0,8,8,5,-0.4,-0.0912037037037037,1,0,0,4.351572899999155,call3,-0.006944444444444444,0.09074074074074075,1,0,0,4.785091099998681,colour2,0.40694444444444444,0.0699074074074074,1,0,0,5.273837400000048,number2,False,True,True,38,3,2019_Nov_19_1605,MA_Theta_Exp,3.0.7,60.0974179141861,
video/Experiment/zh_sp01_Ad_Ge_4_GlobalTheta_NoVideo.avi,globalTheta,noVideo,sp01,Ad,Ge,4,0,5,flow/blocks/GlobalTheta_NoVideo_B.csv,,,,,,,,,,,,,,,,,0,0,0,0,0,9,9,3,-0.3819444444444444,0.2796296296296296,1,0,0,4.859272400000918,call1,-0.06527777777777778,0.30185185185185187,1,0,0,5.271690400000807,colour1,0.42916666666666664,-0.13842592592592592,1,0,0,6.389800099997956,number3,True,True,False,38,3,2019_Nov_19_1605,MA_Theta_Exp,3.0.7,60.0974179141861,
video/Experiment/zh_sp07_Dr_Ro_3_GlobalTheta_NoVideo.avi,globalTheta,noVideo,sp07,Dr,Ro,3,0,5,flow/blocks/GlobalTheta_NoVideo_B.csv,,,,,,,,,,,,,,,,,0,0,0,0,0,10,10,26,-0.4375,-0.12731481481481483,1,0,0,4.465979399999924,call3,-0.011111111111111112,-0.09814814814814815,1,0,0,4.916123299997707,colour3,0.44027777777777777,-0.10787037037037037,1,0,0,5.38088549999884,number3,False,True,True,38,3,2019_Nov_19_1605,MA_Theta_Exp,3.0.7,60.0974179141861,
video/Experiment/zh_sp07_Dr_We_4_GlobalTheta_NoVideo.avi,globalTheta,noVideo,sp07,Dr,We,4,0,5,flow/blocks/GlobalTheta_NoVideo_B.csv,,,,,,,,,,,,,,,,,0,0,0,0,0,11,11,15,-0.35,0.11574074074074074,1,0,0,4.320193699997617,call2,0.019444444444444445,0.07824074074074074,1,0,0,4.951845600000524,colour2,0.35833333333333334,-0.11064814814814815,1,0,0,5.415081800001644,number3,True,False,False,38,3,2019_Nov_19_1605,MA_Theta_Exp,3.0.7,60.0974179141861,
video/Experiment/zh_sp01_Ad_Gr_4_GlobalTheta_NoVideo.avi,globalTheta,noVideo,sp01,Ad,Gr,4,0,5,flow/blocks/GlobalTheta_NoVideo_B.csv,,,,,,,,,,,,,,,,,0,0,0,0,0,12,12,7,-0.4152777777777778,0.300462962962963,1,0,0,4.761637999999948,call1,0.009722222222222222,0.06435185185185185,1,0,0,5.211094000002049,colour2,0.3819444444444444,-0.1162037037037037,1,0,0,5.660157599999366,number3,True,True,False,38,3,2019_Nov_19_1605,MA_Theta_Exp,3.0.7,60.0974179141861,
video/Experiment/zh_sp07_Ti_Gr_1_GlobalTheta_NoVideo.avi,globalTheta,noVideo,sp07,Ti,Gr,1,0,5,flow/blocks/GlobalTheta_NoVideo_B.csv,,,,,,,,,,,,,,,,,0,0,0,0,0,13,13,4,-0.36944444444444446,-0.30648148148148147,1,0,0,8.92409349999798,call4,0.011111111111111112,-0.1162037037037037,1,0,0,9.440684199998941,colour3,0.41388888888888886,-0.2953703703703704,1,0,0,9.87462940000114,number4,False,False,False,38,3,2019_Nov_19_1605,MA_Theta_Exp,3.0.7,60.0974179141861,
video/Experiment/zh_sp07_Dr_Ro_1_GlobalTheta_NoVideo.avi,globalTheta,noVideo,sp07,Dr,Ro,1,0,5,flow/blocks/GlobalTheta_NoVideo_B.csv,,,,,,,,,,,,,,,,,0,0,0,0,0,14,14,24,-0.3763888888888889,0.10185185185185185,1,0,0,4.853861399999005,call2,0.027777777777777776,-0.07453703703703704,1,0,0,5.333363300000201,colour3,0.4652777777777778,0.3421296296296296,1,0,0,5.8836584000018775,number1,True,True,True,38,3,2019_Nov_19_1605,MA_Theta_Exp,3.0.7,60.0974179141861,
video/Experiment/zh_sp01_Un_We_2_GlobalTheta_NoVideo.avi,globalTheta,noVideo,sp01,Un,We,2,0,5,flow/blocks/GlobalTheta_NoVideo_B.csv,,,,,,,,,,,,,,,,,0,0,0,0,0,15,15,13,-0.4041666666666667,-0.1300925925925926,1,0,0,7.398228899997775,call3,0.030555555555555555,-0.09259259259259259,1,0,0,7.8347845999996935,colour3,0.4527777777777778,0.12129629629629629,1,0,0,8.432673600000271,number2,False,False,True,38,3,2019_Nov_19_1605,MA_Theta_Exp,3.0.7,60.0974179141861,
video/Experiment/zh_sp01_Dr_Gr_1_GlobalTheta_NoVideo.avi,globalTheta,noVideo,sp01,Dr,Gr,1,0,5,flow/blocks/GlobalTheta_NoVideo_B.csv,,,,,,,,,,,,,,,,,0,0,0,0,0,16,16,20,-0.3638888888888889,0.06712962962962964,1,0,0,5.458457900000212,call2,-0.030555555555555555,-0.09259259259259259,1,0,0,6.175142299998697,colour3,0.43472222222222223,0.3282407407407407,1,0,0,6.763833799999702,number1,True,False,True,38,3,2019_Nov_19_1605,MA_Theta_Exp,3.0.7,60.0974179141861,
video/Experiment/zh_sp01_Un_Ro_4_GlobalTheta_NoVideo.avi,globalTheta,noVideo,sp01,Un,Ro,4,0,5,flow/blocks/GlobalTheta_NoVideo_B.csv,,,,,,,,,,,,,,,,,0,0,0,0,0,17,17,27,-0.37777777777777777,-0.30787037037037035,1,0,0,4.894423099998676,call4,0.020833333333333332,-0.11064814814814815,1,0,0,5.302365100000316,colour3,0.42777777777777776,-0.12453703703703704,1,0,0,6.957705200002238,number3,True,True,False,38,3,2019_Nov_19_1605,MA_Theta_Exp,3.0.7,60.0974179141861,
video/Experiment/zh_sp01_Un_Ro_2_GlobalTheta_NoVideo.avi,globalTheta,noVideo,sp01,Un,Ro,2,0,5,flow/blocks/GlobalTheta_NoVideo_B.csv,,,,,,,,,,,,,,,,,0,0,0,0,0,18,18,9,-0.37916666666666665,-0.37592592592592594,1,0,0,4.813978400001361,call4,0.029166666666666667,-0.09814814814814815,1,0,0,5.248898600002576,colour3,0.45416666666666666,0.14907407407407408,1,0,0,5.660850700001902,number2,True,True,True,38,3,2019_Nov_19_1605,MA_Theta_Exp,3.0.7,60.0974179141861,
video/Experiment/zh_sp07_Ti_We_2_GlobalTheta_NoVideo.avi,globalTheta,noVideo,sp07,Ti,We,2,0,5,flow/blocks/GlobalTheta_NoVideo_B.csv,,,,,,,,,,,,,,,,,0,0,0,0,0,19,19,29,-0.3638888888888889,-0.09675925925925925,1,0,0,5.380117699998664,call3,-0.0375,-0.2814814814814815,1,0,0,5.781319699999585,colour4,0.4152777777777778,0.11574074074074074,1,0,0,6.2696323999989545,number2,True,True,True,38,3,2019_Nov_19_1605,MA_Theta_Exp,3.0.7,60.0974179141861,
video/Experiment/zh_sp01_Ad_Ro_3_GlobalTheta_NoVideo.avi,globalTheta,noVideo,sp01,Ad,Ro,3,0,5,flow/blocks/GlobalTheta_NoVideo_B.csv,,,,,,,,,,,,,,,,,0,0,0,0,0,20,20,10,-0.42916666666666664,0.08101851851851852,1,0,0,5.171170300000085,call2,0.019444444444444445,-0.1175925925925926,1,0,0,5.706565800002863,colour3,0.44722222222222224,-0.10092592592592593,1,0,0,6.159801899997547,number3,False,True,True,38,3,2019_Nov_19_1605,MA_Theta_Exp,3.0.7,60.0974179141861,
video/Experiment/zh_sp07_Un_Ge_4_GlobalTheta_NoVideo.avi,globalTheta,noVideo,sp07,Un,Ge,4,0,5,flow/blocks/GlobalTheta_NoVideo_B.csv,,,,,,,,,,,,,,,,,0,0,0,0,0,21,21,19,-0.37916666666666665,-0.324537037037037,1,0,0,4.125606600002357,call4,0.0375,-0.11481481481481481,1,0,0,5.662696700001106,colour3,0.36527777777777776,-0.10648148148148148,1,0,0,6.8061228999977175,number3,True,False,False,38,3,2019_Nov_19_1605,MA_Theta_Exp,3.0.7,60.0974179141861,
video/Experiment/zh_sp01_Ti_We_1_GlobalTheta_NoVideo.avi,globalTheta,noVideo,sp01,Ti,We,1,0,5,flow/blocks/GlobalTheta_NoVideo_B.csv,,,,,,,,,,,,,,,,,0,0,0,0,0,22,22,12,-0.39166666666666666,0.11296296296296296,1,0,0,5.141061199999967,call2,0.03333333333333333,-0.3148148148148148,1,0,0,5.674379500000214,colour4,0.38055555555555554,0.300462962962963,1,0,0,6.226294100000814,number1,False,True,True,38,3,2019_Nov_19_1605,MA_Theta_Exp,3.0.7,60.0974179141861,
video/Experiment/zh_sp07_Ti_Gr_3_GlobalTheta_NoVideo.avi,globalTheta,noVideo,sp07,Ti,Gr,3,0,5,flow/blocks/GlobalTheta_NoVideo_B.csv,,,,,,,,,,,,,,,,,0,0,0,0,0,23,23,22,-0.3861111111111111,-0.1439814814814815,1,0,0,4.361328900002263,call3,0.008333333333333333,0.11435185185185186,1,0,0,5.013094800000545,colour2,0.4027777777777778,-0.10648148148148148,1,0,0,5.503462100001343,number3,True,True,True,38,3,2019_Nov_19_1605,MA_Theta_Exp,3.0.7,60.0974179141861,
video/Experiment/zh_sp01_Un_Gr_4_GlobalTheta_NoVideo.avi,globalTheta,noVideo,sp01,Un,Gr,4,0,5,flow/blocks/GlobalTheta_NoVideo_B.csv,,,,,,,,,,,,,,,,,0,0,0,0,0,24,24,23,-0.35555555555555557,-0.2828703703703704,1,0,0,5.341696499999671,call4,0.06944444444444445,0.07685185185185185,1,0,0,6.2473825000015495,colour2,0.36666666666666664,-0.1162037037037037,1,0,0,7.295743800001219,number3,True,True,False,38,3,2019_Nov_19_1605,MA_Theta_Exp,3.0.7,60.0974179141861,
video/Experiment/zh_sp01_Dr_We_1_GlobalTheta_NoVideo.avi,globalTheta,noVideo,sp01,Dr,We,1,0,5,flow/blocks/GlobalTheta_NoVideo_B.csv,,,,,,,,,,,,,,,,,0,0,0,0,0,25,25,28,-0.39305555555555555,0.09351851851851851,1,0,0,5.224776600000041,call2,0.034722222222222224,-0.29259259259259257,1,0,0,5.871382400000584,colour4,0.44166666666666665,0.29074074074074074,1,0,0,6.6868424999993294,number1,True,True,True,38,3,2019_Nov_19_1605,MA_Theta_Exp,3.0.7,60.0974179141861,
video/Experiment/zh_sp01_Ad_We_4_GlobalTheta_NoVideo.avi,globalTheta,noVideo,sp01,Ad,We,4,0,5,flow/blocks/GlobalTheta_NoVideo_B.csv,,,,,,,,,,,,,,,,,0,0,0,0,0,26,26,31,-0.44722222222222224,0.27546296296296297,1,0,0,4.954005299998244,call1,0.013888888888888888,-0.2675925925925926,1,0,0,5.556841800000257,colour4,0.42083333333333334,-0.2898148148148148,1,0,0,6.034607100002177,number4,True,True,True,38,3,2019_Nov_19_1605,MA_Theta_Exp,3.0.7,60.0974179141861,
video/Experiment/zh_sp07_Dr_We_3_GlobalTheta_NoVideo.avi,globalTheta,noVideo,sp07,Dr,We,3,0,5,flow/blocks/GlobalTheta_NoVideo_B.csv,,,,,,,,,,,,,,,,,0,0,0,0,0,27,27,14,-0.3680555555555556,0.12546296296296297,1,0,0,4.69623440000214,call2,0.009722222222222222,-0.3300925925925926,1,0,0,5.25150119999671,colour4,0.39305555555555555,-0.12037037037037036,1,0,0,5.748617199998989,number3,True,True,True,38,3,2019_Nov_19_1605,MA_Theta_Exp,3.0.7,60.0974179141861,
video/Experiment/zh_sp01_Un_Gr_3_GlobalTheta_NoVideo.avi,globalTheta,noVideo,sp01,Un,Gr,3,0,5,flow/blocks/GlobalTheta_NoVideo_B.csv,,,,,,,,,,,,,,,,,0,0,0,0,0,28,28,6,-0.4388888888888889,-0.3439814814814815,1,0,0,4.91853540000011,call4,0.029166666666666667,-0.2953703703703704,1,0,0,5.389779799999815,colour4,0.36666666666666664,-0.11481481481481481,1,0,0,5.853529100000742,number3,True,False,True,38,3,2019_Nov_19_1605,MA_Theta_Exp,3.0.7,60.0974179141861,
video/Experiment/zh_sp07_Dr_Ge_2_GlobalTheta_NoVideo.avi,globalTheta,noVideo,sp07,Dr,Ge,2,0,5,flow/blocks/GlobalTheta_NoVideo_B.csv,,,,,,,,,,,,,,,,,0,0,0,0,0,29,29,17,-0.4236111111111111,-0.1300925925925926,1,0,0,5.004988900000171,call3,0.041666666666666664,0.09212962962962963,1,0,0,7.540124800001649,colour2,0.42777777777777776,0.07685185185185185,1,0,0,8.022620499999903,number2,False,False,True,38,3,2019_Nov_19_1605,MA_Theta_Exp,3.0.7,60.0974179141861,
video/Experiment/zh_sp07_Ti_Ro_1_GlobalTheta_NoVideo.avi,globalTheta,noVideo,sp07,Ti,Ro,1,0,5,flow/blocks/GlobalTheta_NoVideo_B.csv,,,,,,,,,,,,,,,,,0,0,0,0,0,30,30,8,-0.4388888888888889,-0.13425925925925927,1,0,0,4.307122599999275,call3,0.02638888888888889,-0.08564814814814815,1,0,0,5.523734700000205,colour3,0.42777777777777776,0.27824074074074073,1,0,0,6.287865400001465,number1,True,True,True,38,3,2019_Nov_19_1605,MA_Theta_Exp,3.0.7,60.0974179141861,
video/Experiment/zh_sp07_Ti_Ro_4_GlobalTheta_NoVideo.avi,globalTheta,noVideo,sp07,Ti,Ro,4,0,5,flow/blocks/GlobalTheta_NoVideo_B.csv,,,,,,,,,,,,,,,,,0,0,0,0,0,31,31,11,-0.39444444444444443,-0.12731481481481483,1,0,0,4.215457999998762,call3,-0.030555555555555555,-0.11342592592592593,1,0,0,4.666539800000464,colour3,0.44722222222222224,-0.08564814814814815,1,0,0,5.083388899998681,number3,True,True,False,38,3,2019_Nov_19_1605,MA_Theta_Exp,3.0.7,60.0974179141861,
video/Experiment/zh_sp07_Un_Ge_2_NoThetaInAudio_GlobalThetaInVideo.avi,noTheta,plusVideo,sp07,Un,Ge,2,1,3,flow/blocks/NoThetaInAudio_GlobalThetaInVideo_A.csv,,,,,,,,,,,,,,,,,0,1,1,1,0,0,0,17,-0.3888888888888889,-0.31203703703703706,1,0,0,5.084685699999682,call4,0.009722222222222222,0.35324074074074074,1,0,0,7.485314199999266,colour1,0.35833333333333334,0.15046296296296297,1,0,0,8.000908599999093,number2,True,True,True,38,3,2019_Nov_19_1605,MA_Theta_Exp,3.0.7,60.0974179141861,
video/Experiment/zh_sp07_Ti_Ge_2_NoThetaInAudio_GlobalThetaInVideo.avi,noTheta,plusVideo,sp07,Ti,Ge,2,1,3,flow/blocks/NoThetaInAudio_GlobalThetaInVideo_A.csv,,,,,,,,,,,,,,,,,0,1,1,1,0,1,1,1,-0.38333333333333336,-0.08425925925925926,1,0,0,4.389329099998577,call3,-0.016666666666666666,0.3212962962962963,1,0,0,4.85662229999798,colour1,0.38055555555555554,0.12962962962962962,1,0,0,5.339278100000229,number2,True,True,True,38,3,2019_Nov_19_1605,MA_Theta_Exp,3.0.7,60.0974179141861,
video/Experiment/zh_sp07_Ti_We_4_NoThetaInAudio_GlobalThetaInVideo.avi,noTheta,plusVideo,sp07,Ti,We,4,1,3,flow/blocks/NoThetaInAudio_GlobalThetaInVideo_A.csv,,,,,,,,,,,,,,,,,0,1,1,1,0,2,2,31,-0.4527777777777778,-0.06898148148148148,1,0,0,4.263712800002395,call3,0.006944444444444444,-0.28564814814814815,1,0,0,5.01612010000099,colour4,0.39861111111111114,-0.29259259259259257,1,0,0,5.71304389999932,number4,True,True,True,38,3,2019_Nov_19_1605,MA_Theta_Exp,3.0.7,60.0974179141861,
video/Experiment/zh_sp07_Dr_Ro_2_NoThetaInAudio_GlobalThetaInVideo.avi,noTheta,plusVideo,sp07,Dr,Ro,2,1,3,flow/blocks/NoThetaInAudio_GlobalThetaInVideo_A.csv,,,,,,,,,,,,,,,,,0,1,1,1,0,3,3,9,-0.3861111111111111,0.09768518518518518,1,0,0,4.402865699998074,call2,0.015277777777777777,-0.1162037037037037,1,0,0,4.854027900000801,colour3,0.3902777777777778,0.0962962962962963,1,0,0,5.424134799999592,number2,True,True,True,38,3,2019_Nov_19_1605,MA_Theta_Exp,3.0.7,60.0974179141861,
video/Experiment/zh_sp07_Dr_Ge_1_NoThetaInAudio_GlobalThetaInVideo.avi,noTheta,plusVideo,sp07,Dr,Ge,1,1,3,flow/blocks/NoThetaInAudio_GlobalThetaInVideo_A.csv,,,,,,,,,,,,,,,,,0,1,1,1,0,4,4,0,-0.3527777777777778,0.10185185185185185,1,0,0,4.339531400000851,call2,-0.016666666666666666,0.26435185185185184,1,0,0,4.835013500000059,colour1,0.3680555555555556,0.27824074074074073,1,0,0,5.369288800000504,number1,True,True,True,38,3,2019_Nov_19_1605,MA_Theta_Exp,3.0.7,60.0974179141861,
video/Experiment/zh_sp07_Dr_Gr_2_NoThetaInAudio_GlobalThetaInVideo.avi,noTheta,plusVideo,sp07,Dr,Gr,2,1,3,flow/blocks/NoThetaInAudio_GlobalThetaInVideo_A.csv,,,,,,,,,,,,,,,,,0,1,1,1,0,5,5,5,-0.34444444444444444,-0.09814814814814815,1,0,0,4.746279700000741,call3,0.020833333333333332,-0.10925925925925926,1,0,0,5.687115299999277,colour3,0.37083333333333335,0.09907407407407408,1,0,0,6.0987136000003375,number2,False,False,True,38,3,2019_Nov_19_1605,MA_Theta_Exp,3.0.7,60.0974179141861,
video/Experiment/zh_sp01_Un_Ro_1_NoThetaInAudio_GlobalThetaInVideo.avi,noTheta,plusVideo,sp01,Un,Ro,1,1,3,flow/blocks/NoThetaInAudio_GlobalThetaInVideo_A.csv,,,,,,,,,,,,,,,,,0,1,1,1,0,6,6,24,-0.3875,-0.2953703703703704,1,0,0,5.123918799999956,call4,-0.009722222222222222,0.050462962962962966,1,0,0,6.674192700000276,colour2,0.3597222222222222,0.2740740740740741,1,0,0,7.129045199999382,number1,True,False,True,38,3,2019_Nov_19_1605,MA_Theta_Exp,3.0.7,60.0974179141861,
video/Experiment/zh_sp07_Un_We_3_NoThetaInAudio_GlobalThetaInVideo.avi,noTheta,plusVideo,sp07,Un,We,3,1,3,flow/blocks/NoThetaInAudio_GlobalThetaInVideo_A.csv,,,,,,,,,,,,,,,,,0,1,1,1,0,7,7,14,-0.3902777777777778,-0.3384259259259259,1,0,0,4.400910500000464,call4,0.009722222222222222,-0.29953703703703705,1,0,0,4.801699600000575,colour4,0.3958333333333333,-0.13148148148148148,1,0,0,5.217450899999676,number3,True,True,True,38,3,2019_Nov_19_1605,MA_Theta_Exp,3.0.7,60.0974179141861,
video/Experiment/zh_sp07_Ti_Gr_4_NoThetaInAudio_GlobalThetaInVideo.avi,noTheta,plusVideo,sp07,Ti,Gr,4,1,3,flow/blocks/NoThetaInAudio_GlobalThetaInVideo_A.csv,,,,,,,,,,,,,,,,,0,1,1,1,0,8,8,7,-0.3972222222222222,-0.1050925925925926,1,0,0,4.6010930000011285,call3,-0.019444444444444445,0.06712962962962964,1,0,0,5.100276100001793,colour2,0.3388888888888889,-0.28425925925925927,1,0,0,5.9328868000011425,number4,True,True,True,38,3,2019_Nov_19_1605,MA_Theta_Exp,3.0.7,60.0974179141861,
video/Experiment/zh_sp07_Ad_Gr_1_NoThetaInAudio_GlobalThetaInVideo.avi,noTheta,plusVideo,sp07,Ad,Gr,1,1,3,flow/blocks/NoThetaInAudio_GlobalThetaInVideo_A.csv,,,,,,,,,,,,,,,,,0,1,1,1,0,9,9,4,-0.3902777777777778,0.27824074074074073,1,0,0,4.437971100000141,call1,-0.004166666666666667,0.06157407407407407,1,0,0,6.1223868999986735,colour2,0.43194444444444446,0.2824074074074074,1,0,0,7.257384399999864,number1,True,True,True,38,3,2019_Nov_19_1605,MA_Theta_Exp,3.0.7,60.0974179141861,
video/Experiment/zh_sp01_Ad_We_1_NoThetaInAudio_GlobalThetaInVideo.avi,noTheta,plusVideo,sp01,Ad,We,1,1,3,flow/blocks/NoThetaInAudio_GlobalThetaInVideo_A.csv,,,,,,,,,,,,,,,,,0,1,1,1,0,10,10,12,-0.39861111111111114,0.27685185185185185,1,0,0,4.917504299999564,call1,0.009722222222222222,-0.31342592592592594,1,0,0,5.565565200002311,colour4,0.38472222222222224,0.287962962962963,1,0,0,6.146076700002595,number1,True,True,True,38,3,2019_Nov_19_1605,MA_Theta_Exp,3.0.7,60.0974179141861,
video/Experiment/zh_sp01_Dr_Ge_4_NoThetaInAudio_GlobalThetaInVideo.avi,noTheta,plusVideo,sp01,Dr,Ge,4,1,3,flow/blocks/NoThetaInAudio_GlobalThetaInVideo_A.csv,,,,,,,,,,,,,,,,,0,1,1,1,0,11,11,19,-0.3625,-0.3800925925925926,1,0,0,4.866624800000864,call4,0.044444444444444446,0.2601851851851852,1,0,0,6.686662099997193,colour1,0.4444444444444444,-0.22592592592592592,1,0,0,7.588674599999649,number4,False,True,True,38,3,2019_Nov_19_1605,MA_Theta_Exp,3.0.7,60.0974179141861,
video/Experiment/zh_sp01_Un_Ro_3_NoThetaInAudio_GlobalThetaInVideo.avi,noTheta,plusVideo,sp01,Un,Ro,3,1,3,flow/blocks/NoThetaInAudio_GlobalThetaInVideo_A.csv,,,,,,,,,,,,,,,,,0,1,1,1,0,12,12,26,-0.36527777777777776,-0.27175925925925926,1,0,0,5.018805699997756,call4,0.04027777777777778,-0.13425925925925927,1,0,0,5.409577200000058,colour3,0.4152777777777778,-0.1300925925925926,1,0,0,5.778027700001985,number3,True,True,True,38,3,2019_Nov_19_1605,MA_Theta_Exp,3.0.7,60.0974179141861,
