videoFile,condition,video,speaker,callSign,colour,number,seq,id,block,exp.thisRepN,exp.thisTrialN,exp.thisN,exp.thisIndex,training.thisRepN,training.thisTrialN,training.thisN,training.thisIndex,firstHalf.thisRepN,firstHalf.thisTrialN,firstHalf.thisN,firstHalf.thisIndex,blocksA.thisRepN,blocksA.thisTrialN,blocksA.thisN,blocksA.thisIndex,mouseClickOnCall.x,mouseClickOnCall.y,mouseClickOnCall.leftButton,mouseClickOnCall.midButton,mouseClickOnCall.rightButton,mouseClickOnCall.time,mouseClickOnCall.clicked_name,mouseClickOnColour.x,mouseClickOnColour.y,mouseClickOnColour.leftButton,mouseClickOnColour.midButton,mouseClickOnColour.rightButton,mouseClickOnColour.time,mouseClickOnColour.clicked_name,mouseClickOnNumber.x,mouseClickOnNumber.y,mouseClickOnNumber.leftButton,mouseClickOnNumber.midButton,mouseClickOnNumber.rightButton,mouseClickOnNumber.time,mouseClickOnNumber.clicked_name,callSignCorrect,colourCorrect,numberCorrect,participant,order,date,expName,psychopyVersion,frameRate,
video/Training/zh_sp01_Ad_We_4_NVocInAudio_NoVideo.avi,vocoded,noVideo,sp01,Ad,We,4,,,,,,,,0,0,0,0,,,,,,,,,-0.46435185185185185,0.30833333333333335,1,0,0,5.896046800000477,call1,0.037037037037037035,-0.3138888888888889,1,0,0,6.645644499998525,colour4,0.3162037037037037,-0.3138888888888889,1,0,0,7.096409400000994,number4,True,True,True,38,3,2019_Nov_19_1605,MA_Theta_Exp,3.0.7,60.0974179141861,
video/Training/zh_sp07_Ad_Ge_3_NVocInAudio_NoVideo.avi,vocoded,noVideo,sp07,Ad,Ge,3,,,,,,,,0,1,1,1,,,,,,,,,-0.3976851851851852,0.30694444444444446,1,0,0,4.71534530000099,call1,0.03981481481481482,0.26666666666666666,1,0,0,6.042779300001712,colour1,0.43148148148148147,-0.1375,1,0,0,6.731167899999491,number3,True,True,True,38,3,2019_Nov_19_1605,MA_Theta_Exp,3.0.7,60.0974179141861,
video/Training/zh_sp01_Dr_Ro_3_NVocInAudio_GlobalThetaInVideo.avi,vocoded,plusVideo,sp01,Dr,Ro,3,,,,,,,,0,2,2,2,,,,,,,,,-0.40324074074074073,0.2986111111111111,1,0,0,5.0633360000010725,call1,-0.012962962962962963,-0.08333333333333333,1,0,0,5.661746099998709,colour3,0.3509259259259259,-0.1388888888888889,1,0,0,6.228751399999965,number3,False,True,True,38,3,2019_Nov_19_1605,MA_Theta_Exp,3.0.7,60.0974179141861,
video/Training/zh_sp07_Dr_Gr_4_NVocInAudio_GlobalThetaInVideo.avi,vocoded,plusVideo,sp07,Dr,Gr,4,,,,,,,,0,3,3,3,,,,,,,,,-0.40185185185185185,0.09583333333333334,1,0,0,4.42538550000063,call2,-0.02962962962962963,0.025,1,0,0,5.876223799999934,colour2,0.4287037037037037,-0.31805555555555554,1,0,0,6.607086699999854,number4,True,True,True,38,3,2019_Nov_19_1605,MA_Theta_Exp,3.0.7,60.0974179141861,
video/Training/zh_sp01_Ti_Gr_2_NoThetaInAudio_NoVideo.avi,noTheta,noVideo,sp01,Ti,Gr,2,,,,,,,,0,4,4,4,,,,,,,,,0.023148148148148147,-0.12083333333333333,1,0,0,5.16003339999952,call1,0.0412037037037037,-0.1486111111111111,1,0,0,8.528217600000062,colour3,0.34675925925925927,0.09166666666666666,1,0,0,9.145350799999505,number2,False,False,True,38,3,2019_Nov_19_1605,MA_Theta_Exp,3.0.7,60.0974179141861,
video/Training/zh_sp07_Ti_Ro_1_NoThetaInAudio_NoVideo.avi,noTheta,noVideo,sp07,Ti,Ro,1,,,,,,,,0,5,5,5,,,,,,,,,-0.3962962962962963,0.25,1,0,0,4.897143099999084,call1,0.03981481481481482,-0.15833333333333333,1,0,0,8.746049800000037,colour3,0.3509259259259259,0.25972222222222224,1,0,0,10.261839099999634,number1,False,True,True,38,3,2019_Nov_19_1605,MA_Theta_Exp,3.0.7,60.0974179141861,
video/Training/zh_sp01_Un_Ge_1_NoThetaInAudio_GlobalThetaInVideo.avi,noTheta,plusVideo,sp01,Un,Ge,1,,,,,,,,0,6,6,6,,,,,,,,,-0.3726851851851852,0.30277777777777776,1,0,0,5.35874640000111,call1,0.03287037037037037,0.2791666666666667,1,0,0,5.974968000000445,colour1,0.3384259259259259,0.27361111111111114,1,0,0,6.541506499999741,number1,False,True,True,38,3,2019_Nov_19_1605,MA_Theta_Exp,3.0.7,60.0974179141861,
video/Training/zh_sp07_Un_We_2_NoThetaInAudio_GlobalThetaInVideo.avi,noTheta,plusVideo,sp07,Un,We,2,,,,,,,,0,7,7,7,,,,,,,,,-0.40879629629629627,0.2902777777777778,1,0,0,4.33633319999899,call1,0.03009259259259259,-0.28055555555555556,1,0,0,5.401628300000084,colour4,0.3453703703703704,0.29305555555555557,1,0,0,6.2406700999999885,number1,False,True,False,38,3,2019_Nov_19_1605,MA_Theta_Exp,3.0.7,60.0974179141861,
video/Training/zh_sp01_Ad_Ge_1_GlobalTheta_NoVideo.avi,globalTheta,noVideo,sp01,Ad,Ge,1,,,,,,,,0,8,8,8,,,,,,,,,-0.3726851851851852,0.28888888888888886,1,0,0,5.032652599998983,call1,0.02175925925925926,0.275,1,0,0,5.815982500000246,colour1,0.37037037037037035,0.2638888888888889,1,0,0,6.334312199998749,number1,True,True,True,38,3,2019_Nov_19_1605,MA_Theta_Exp,3.0.7,60.0974179141861,
video/Training/zh_sp07_Ad_Ro_3_GlobalTheta_NoVideo.avi,globalTheta,noVideo,sp07,Ad,Ro,3,,,,,,,,0,9,9,9,,,,,,,,,-0.3476851851851852,0.2638888888888889,1,0,0,4.442819799998688,call1,0.0023148148148148147,-0.3472222222222222,1,0,0,9.792933900000207,colour4,0.3578703703703704,0.3111111111111111,1,0,0,10.706576999999015,number1,True,False,False,38,3,2019_Nov_19_1605,MA_Theta_Exp,3.0.7,60.0974179141861,
video/Experiment/zh_sp07_Ti_Gr_4_GlobalTheta_NoVideo.avi,globalTheta,noVideo,sp07,Ti,Gr,4,0,5,flow/blocks/GlobalTheta_NoVideo_A.csv,,,,,,,,,0,0,0,0,0,0,0,7,-0.40324074074074073,0.2652777777777778,1,0,0,4.914107399999921,call1,-0.008796296296296297,0.05,1,0,0,5.591262500000084,colour2,0.42453703703703705,-0.3013888888888889,1,0,0,6.246497600001021,number4,False,True,True,38,3,2019_Nov_19_1605,MA_Theta_Exp,3.0.7,60.0974179141861,
video/Experiment/zh_sp01_Dr_We_2_GlobalTheta_NoVideo.avi,globalTheta,noVideo,sp01,Dr,We,2,0,5,flow/blocks/GlobalTheta_NoVideo_A.csv,,,,,,,,,0,0,0,0,0,1,1,13,-0.4101851851851852,0.30694444444444446,1,0,0,5.562756799999988,call1,-0.0060185185185185185,0.1527777777777778,1,0,0,7.758517300000676,colour2,0.4412037037037037,0.06111111111111111,1,0,0,8.428693900001235,number2,False,False,True,38,3,2019_Nov_19_1605,MA_Theta_Exp,3.0.7,60.0974179141861,
video/Experiment/zh_sp07_Ti_Ge_4_GlobalTheta_NoVideo.avi,globalTheta,noVideo,sp07,Ti,Ge,4,0,5,flow/blocks/GlobalTheta_NoVideo_A.csv,,,,,,,,,0,0,0,0,0,2,2,3,-0.41435185185185186,0.2722222222222222,1,0,0,4.8084937000003265,call1,0.03564814814814815,-0.2777777777777778,1,0,0,7.574659100000645,colour4,0.41203703703703703,-0.3013888888888889,1,0,0,8.090765999999348,number4,False,False,True,38,3,2019_Nov_19_1605,MA_Theta_Exp,3.0.7,60.0974179141861,
video/Experiment/zh_sp07_Un_Gr_1_GlobalTheta_NoVideo.avi,globalTheta,noVideo,sp07,Un,Gr,1,0,5,flow/blocks/GlobalTheta_NoVideo_A.csv,,,,,,,,,0,0,0,0,0,3,3,20,-0.3560185185185185,-0.07777777777777778,1,0,0,6.5658163000007335,call3,-0.0060185185185185185,0.08333333333333333,1,0,0,7.450915100000202,colour2,0.4023148148148148,0.25277777777777777,1,0,0,8.831546699999308,number1,False,True,True,38,3,2019_Nov_19_1605,MA_Theta_Exp,3.0.7,60.0974179141861,
video/Experiment/zh_sp01_Dr_Gr_2_GlobalTheta_NoVideo.avi,globalTheta,noVideo,sp01,Dr,Gr,2,0,5,flow/blocks/GlobalTheta_NoVideo_A.csv,,,,,,,,,0,0,0,0,0,4,4,5,-0.37962962962962965,0.26666666666666666,1,0,0,5.234475199998997,call1,0.017592592592592594,0.07916666666666666,1,0,0,5.814381599999251,colour2,0.4050925925925926,0.04861111111111111,1,0,0,6.314791799999512,number2,False,True,True,38,3,2019_Nov_19_1605,MA_Theta_Exp,3.0.7,60.0974179141861,
video/Experiment/zh_sp07_Ti_We_4_GlobalTheta_NoVideo.avi,globalTheta,noVideo,sp07,Ti,We,4,0,5,flow/blocks/GlobalTheta_NoVideo_A.csv,,,,,,,,,0,0,0,0,0,5,5,31,-0.3699074074074074,-0.11666666666666667,1,0,0,4.646496400000615,call3,0.06342592592592593,-0.10277777777777777,1,0,0,6.429321600000549,colour3,0.46064814814814814,-0.1638888888888889,1,0,0,7.378902899999957,number3,True,False,False,38,3,2019_Nov_19_1605,MA_Theta_Exp,3.0.7,60.0974179141861,
video/Experiment/zh_sp01_Un_We_3_GlobalTheta_NoVideo.avi,globalTheta,noVideo,sp01,Un,We,3,0,5,flow/blocks/GlobalTheta_NoVideo_A.csv,,,,,,,,,0,0,0,0,0,6,6,14,-0.37407407407407406,-0.2916666666666667,1,0,0,6.69479020000108,call4,-0.001851851851851852,0.04722222222222222,1,0,0,7.422988899999837,colour2,0.449537037037037,-0.1597222222222222,1,0,0,7.925862500000221,number3,True,False,True,38,3,2019_Nov_19_1605,MA_Theta_Exp,3.0.7,60.0974179141861,
video/Experiment/zh_sp07_Ad_Gr_2_GlobalTheta_NoVideo.avi,globalTheta,noVideo,sp07,Ad,Gr,2,0,5,flow/blocks/GlobalTheta_NoVideo_A.csv,,,,,,,,,0,0,0,0,0,7,7,21,-0.3837962962962963,0.1111111111111111,1,0,0,5.4263852999993105,call2,0.04537037037037037,-0.12222222222222222,1,0,0,6.128451000000496,colour3,0.4064814814814815,0.06805555555555555,1,0,0,6.709501999999702,number2,False,False,True,38,3,2019_Nov_19_1605,MA_Theta_Exp,3.0.7,60.0974179141861,
video/Experiment/zh_sp07_Dr_Gr_4_GlobalTheta_NoVideo.avi,globalTheta,noVideo,sp07,Dr,Gr,4,0,5,flow/blocks/GlobalTheta_NoVideo_A.csv,,,,,,,,,0,0,0,0,0,8,8,23,-0.3851851851851852,0.2388888888888889,1,0,0,4.492133800000374,call1,-0.022685185185185187,-0.12361111111111112,1,0,0,5.596483799999987,colour3,0.4064814814814815,-0.15138888888888888,1,0,0,6.144081300000835,number3,False,False,False,38,3,2019_Nov_19_1605,MA_Theta_Exp,3.0.7,60.0974179141861,
video/Experiment/zh_sp01_Ad_We_1_GlobalTheta_NoVideo.avi,globalTheta,noVideo,sp01,Ad,We,1,0,5,flow/blocks/GlobalTheta_NoVideo_A.csv,,,,,,,,,0,0,0,0,0,9,9,12,-0.40324074074074073,0.25555555555555554,1,0,0,5.024695699999938,call1,-0.001851851851851852,-0.09166666666666666,1,0,0,5.679246700001386,colour3,0.39814814814814814,0.29444444444444445,1,0,0,6.328427700000248,number1,True,False,True,38,3,2019_Nov_19_1605,MA_Theta_Exp,3.0.7,60.0974179141861,
video/Experiment/zh_sp07_Ad_Ro_1_GlobalTheta_NoVideo.avi,globalTheta,noVideo,sp07,Ad,Ro,1,0,5,flow/blocks/GlobalTheta_NoVideo_A.csv,,,,,,,,,0,0,0,0,0,10,10,8,-0.36157407407407405,0.06111111111111111,1,0,0,8.749451099998623,call2,0.028703703703703703,0.05,1,0,0,9.436475000000428,colour2,0.38564814814814813,0.25555555555555554,1,0,0,11.214476600000125,number1,False,False,True,38,3,2019_Nov_19_1605,MA_Theta_Exp,3.0.7,60.0974179141861,
video/Experiment/zh_sp01_Un_Ge_2_GlobalTheta_NoVideo.avi,globalTheta,noVideo,sp01,Un,Ge,2,0,5,flow/blocks/GlobalTheta_NoVideo_A.csv,,,,,,,,,0,0,0,0,0,11,11,17,-0.3490740740740741,-0.27361111111111114,1,0,0,5.140091400000529,call4,0.08842592592592592,-0.0625,1,0,0,5.639877199999319,colour3,0.4787037037037037,0.08888888888888889,1,0,0,6.219539199999417,number2,True,False,True,38,3,2019_Nov_19_1605,MA_Theta_Exp,3.0.7,60.0974179141861,
video/Experiment/zh_sp07_Un_Ge_3_GlobalTheta_NoVideo.avi,globalTheta,noVideo,sp07,Un,Ge,3,0,5,flow/blocks/GlobalTheta_NoVideo_A.csv,,,,,,,,,0,0,0,0,0,12,12,2,-0.34074074074074073,-0.29583333333333334,1,0,0,4.244402399999672,call4,0.003703703703703704,-0.07777777777777778,1,0,0,4.713634300000194,colour3,0.4703703703703704,-0.13472222222222222,1,0,0,5.197344700000031,number3,True,False,True,38,3,2019_Nov_19_1605,MA_Theta_Exp,3.0.7,60.0974179141861,
video/Experiment/zh_sp01_Dr_Gr_3_GlobalTheta_NoVideo.avi,globalTheta,noVideo,sp01,Dr,Gr,3,0,5,flow/blocks/GlobalTheta_NoVideo_A.csv,,,,,,,,,0,0,0,0,0,13,13,6,-0.38657407407407407,-0.08472222222222223,1,0,0,5.39958999999908,call3,-0.032407407407407406,-0.1,1,0,0,6.030327899999975,colour3,0.41898148148148145,-0.1,1,0,0,6.569479699999647,number3,False,False,True,38,3,2019_Nov_19_1605,MA_Theta_Exp,3.0.7,60.0974179141861,
video/Experiment/zh_sp01_Un_We_1_GlobalTheta_NoVideo.avi,globalTheta,noVideo,sp01,Un,We,1,0,5,flow/blocks/GlobalTheta_NoVideo_A.csv,,,,,,,,,0,0,0,0,0,14,14,28,-0.43796296296296294,0.09166666666666666,1,0,0,5.296015899999475,call2,-0.007407407407407408,-0.29444444444444445,1,0,0,7.190379800000301,colour4,-0.0032407407407407406,-0.12361111111111112,1,0,0,8.839941800000815,number1,False,True,True,38,3,2019_Nov_19_1605,MA_Theta_Exp,3.0.7,60.0974179141861,
video/Experiment/zh_sp01_Ti_Ge_1_GlobalTheta_NoVideo.avi,globalTheta,noVideo,sp01,Ti,Ge,1,0,5,flow/blocks/GlobalTheta_NoVideo_A.csv,,,,,,,,,0,0,0,0,0,15,15,16,-0.39490740740740743,-0.08333333333333333,1,0,0,5.12777079999978,call3,-0.01990740740740741,0.28194444444444444,1,0,0,5.8283737000001565,colour1,0.44675925925925924,0.28194444444444444,1,0,0,6.914538199998788,number1,True,True,True,38,3,2019_Nov_19_1605,MA_Theta_Exp,3.0.7,60.0974179141861,
video/Experiment/zh_sp01_Ti_Ge_3_GlobalTheta_NoVideo.avi,globalTheta,noVideo,sp01,Ti,Ge,3,0,5,flow/blocks/GlobalTheta_NoVideo_A.csv,,,,,,,,,0,0,0,0,0,16,16,18,-0.35185185185185186,0.09166666666666666,1,0,0,5.194361099998787,call2,0.020370370370370372,-0.07916666666666666,1,0,0,6.327989899999011,colour3,0.4078703703703704,-0.11805555555555555,1,0,0,6.911861399999907,number3,False,False,True,38,3,2019_Nov_19_1605,MA_Theta_Exp,3.0.7,60.0974179141861,
video/Experiment/zh_sp07_Ti_Ge_2_GlobalTheta_NoVideo.avi,globalTheta,noVideo,sp07,Ti,Ge,2,0,5,flow/blocks/GlobalTheta_NoVideo_A.csv,,,,,,,,,0,0,0,0,0,17,17,1,-0.3712962962962963,0.2763888888888889,1,0,0,6.098035600000003,call1,0.00787037037037037,0.2777777777777778,1,0,0,9.59832070000084,colour1,0.42592592592592593,0.14305555555555555,1,0,0,10.393242699999973,number2,False,True,True,38,3,2019_Nov_19_1605,MA_Theta_Exp,3.0.7,60.0974179141861,
video/Experiment/zh_sp07_Ad_Gr_1_GlobalTheta_NoVideo.avi,globalTheta,noVideo,sp07,Ad,Gr,1,0,5,flow/blocks/GlobalTheta_NoVideo_A.csv,,,,,,,,,0,0,0,0,0,18,18,4,-0.3824074074074074,0.2861111111111111,1,0,0,4.370174300000144,call1,-0.032407407407407406,0.07222222222222222,1,0,0,4.812663099999554,colour2,0.4425925925925926,0.06527777777777778,1,0,0,5.29736160000175,number2,True,True,False,38,3,2019_Nov_19_1605,MA_Theta_Exp,3.0.7,60.0974179141861,
video/Experiment/zh_sp01_Ad_Ro_4_GlobalTheta_NoVideo.avi,globalTheta,noVideo,sp01,Ad,Ro,4,0,5,flow/blocks/GlobalTheta_NoVideo_A.csv,,,,,,,,,0,0,0,0,0,19,19,11,-0.38796296296296295,0.29444444444444445,1,0,0,4.953751000000921,call1,0.01898148148148148,-0.14027777777777778,1,0,0,5.57064260000152,colour3,0.41203703703703703,-0.31805555555555554,1,0,0,6.090160099998684,number4,True,True,True,38,3,2019_Nov_19_1605,MA_Theta_Exp,3.0.7,60.0974179141861,
video/Experiment/zh_sp07_Ad_Gr_3_GlobalTheta_NoVideo.avi,globalTheta,noVideo,sp07,Ad,Gr,3,0,5,flow/blocks/GlobalTheta_NoVideo_A.csv,,,,,,,,,0,0,0,0,0,20,20,22,-0.40324074074074073,0.2875,1,0,0,4.426590600000054,call1,0.00787037037037037,0.09027777777777778,1,0,0,5.293928099999903,colour2,0.4287037037037037,-0.09583333333333334,1,0,0,5.905095199999778,number3,True,True,True,38,3,2019_Nov_19_1605,MA_Theta_Exp,3.0.7,60.0974179141861,
video/Experiment/zh_sp01_Ad_We_2_GlobalTheta_NoVideo.avi,globalTheta,noVideo,sp01,Ad,We,2,0,5,flow/blocks/GlobalTheta_NoVideo_A.csv,,,,,,,,,0,0,0,0,0,21,21,29,-0.40185185185185185,0.29305555555555557,1,0,0,4.934632400001647,call1,0.04675925925925926,-0.12083333333333333,1,0,0,5.566654000000199,colour3,0.3731481481481482,0.11388888888888889,1,0,0,6.13588720000007,number2,True,False,True,38,3,2019_Nov_19_1605,MA_Theta_Exp,3.0.7,60.0974179141861,
video/Experiment/zh_sp07_Un_Ro_1_GlobalTheta_NoVideo.avi,globalTheta,noVideo,sp07,Un,Ro,1,0,5,flow/blocks/GlobalTheta_NoVideo_A.csv,,,,,,,,,0,0,0,0,0,22,22,24,-0.4185185185185185,0.08472222222222223,1,0,0,4.579401700000744,call2,-0.0060185185185185185,-0.12222222222222222,1,0,0,5.364247499999692,colour3,0.38564814814814813,0.12638888888888888,1,0,0,9.260700599999836,number2,False,True,False,38,3,2019_Nov_19_1605,MA_Theta_Exp,3.0.7,60.0974179141861,
video/Experiment/zh_sp01_Ad_We_3_GlobalTheta_NoVideo.avi,globalTheta,noVideo,sp01,Ad,We,3,0,5,flow/blocks/GlobalTheta_NoVideo_A.csv,,,,,,,,,0,0,0,0,0,23,23,30,-0.36574074074074076,-0.0763888888888889,1,0,0,7.6207935999991605,call3,0.052314814814814814,-0.11944444444444445,1,0,0,8.121304099999179,colour3,0.40370370370370373,-0.12638888888888888,1,0,0,8.991079499999614,number3,False,False,True,38,3,2019_Nov_19_1605,MA_Theta_Exp,3.0.7,60.0974179141861,
video/Experiment/zh_sp07_Dr_Ro_2_GlobalTheta_NoVideo.avi,globalTheta,noVideo,sp07,Dr,Ro,2,0,5,flow/blocks/GlobalTheta_NoVideo_A.csv,,,,,,,,,0,0,0,0,0,24,24,9,-0.38101851851851853,0.2763888888888889,1,0,0,4.341509900001256,call1,-0.011574074074074073,-0.1,1,0,0,5.137385100000756,colour3,0.3800925925925926,0.08333333333333333,1,0,0,6.191070500000933,number2,False,True,True,38,3,2019_Nov_19_1605,MA_Theta_Exp,3.0.7,60.0974179141861,
video/Experiment/zh_sp01_Dr_Ge_4_GlobalTheta_NoVideo.avi,globalTheta,noVideo,sp01,Dr,Ge,4,0,5,flow/blocks/GlobalTheta_NoVideo_A.csv,,,,,,,,,0,0,0,0,0,25,25,19,-0.36435185185185187,-0.30833333333333335,1,0,0,7.597909799998888,call4,0.005092592592592593,-0.12222222222222222,1,0,0,8.49855319999915,colour3,0.38981481481481484,-0.08194444444444444,1,0,0,9.278095899999244,number3,False,False,False,38,3,2019_Nov_19_1605,MA_Theta_Exp,3.0.7,60.0974179141861,
video/Experiment/zh_sp07_Dr_Ge_1_GlobalTheta_NoVideo.avi,globalTheta,noVideo,sp07,Dr,Ge,1,0,5,flow/blocks/GlobalTheta_NoVideo_A.csv,,,,,,,,,0,0,0,0,0,26,26,0,-0.3490740740740741,-0.34444444444444444,1,0,0,6.153497599998445,call4,0.00787037037037037,-0.16666666666666666,1,0,0,6.636063100000683,colour3,0.37453703703703706,0.29444444444444445,1,0,0,7.256968300000153,number1,False,False,True,38,3,2019_Nov_19_1605,MA_Theta_Exp,3.0.7,60.0974179141861,
video/Experiment/zh_sp01_Un_Ro_3_GlobalTheta_NoVideo.avi,globalTheta,noVideo,sp01,Un,Ro,3,0,5,flow/blocks/GlobalTheta_NoVideo_A.csv,,,,,,,,,0,0,0,0,0,27,27,26,-0.3990740740740741,0.12083333333333333,1,0,0,5.088395499999024,call2,-0.007407407407407408,-0.125,1,0,0,5.625555200000235,colour3,0.34120370370370373,-0.07361111111111111,1,0,0,6.545552500001577,number3,False,True,True,38,3,2019_Nov_19_1605,MA_Theta_Exp,3.0.7,60.0974179141861,
video/Experiment/zh_sp01_Ti_Ro_3_GlobalTheta_NoVideo.avi,globalTheta,noVideo,sp01,Ti,Ro,3,0,5,flow/blocks/GlobalTheta_NoVideo_A.csv,,,,,,,,,0,0,0,0,0,28,28,10,-0.3824074074074074,0.25277777777777777,1,0,0,5.477731799999674,call1,0.03009259259259259,-0.09444444444444444,1,0,0,6.156115200001295,colour3,0.39814814814814814,-0.14305555555555555,1,0,0,6.707102500000474,number3,False,True,True,38,3,2019_Nov_19_1605,MA_Theta_Exp,3.0.7,60.0974179141861,
video/Experiment/zh_sp07_Un_We_4_GlobalTheta_NoVideo.avi,globalTheta,noVideo,sp07,Un,We,4,0,5,flow/blocks/GlobalTheta_NoVideo_A.csv,,,,,,,,,0,0,0,0,0,29,29,15,-0.38935185185185184,-0.13055555555555556,1,0,0,5.887137800000346,call3,0.053703703703703705,-0.10416666666666667,1,0,0,7.9646993999995175,colour3,0.4009259259259259,-0.11805555555555555,1,0,0,8.55942739999955,number3,False,False,False,38,3,2019_Nov_19_1605,MA_Theta_Exp,3.0.7,60.0974179141861,
video/Experiment/zh_sp01_Dr_Ro_4_GlobalTheta_NoVideo.avi,globalTheta,noVideo,sp01,Dr,Ro,4,0,5,flow/blocks/GlobalTheta_NoVideo_A.csv,,,,,,,,,0,0,0,0,0,30,30,27,-0.3990740740740741,-0.30416666666666664,1,0,0,6.321917200000826,call4,0.020370370370370372,-0.13055555555555556,1,0,0,7.372701899999811,colour3,0.39675925925925926,-0.3125,1,0,0,7.993332699999883,number4,False,True,True,38,3,2019_Nov_19_1605,MA_Theta_Exp,3.0.7,60.0974179141861,
video/Experiment/zh_sp07_Ti_Ro_2_GlobalTheta_NoVideo.avi,globalTheta,noVideo,sp07,Ti,Ro,2,0,5,flow/blocks/GlobalTheta_NoVideo_A.csv,,,,,,,,,0,0,0,0,0,31,31,25,-0.40879629629629627,0.10694444444444444,1,0,0,5.427152000000206,call2,0.0023148148148148147,0.08472222222222223,1,0,0,6.627369399999225,colour2,0.4300925925925926,0.3013888888888889,1,0,0,7.4647436999985075,number1,False,False,False,38,3,2019_Nov_19_1605,MA_Theta_Exp,3.0.7,60.0974179141861,
video/Experiment/zh_sp07_Ad_Ro_2_NVocInAudio_GlobalThetaInVideo.avi,vocoded,plusVideo,sp07,Ad,Ro,2,1,1,flow/blocks/NVocInAudio_GlobalThetaInVideo_B.csv,,,,,,,,,0,1,1,1,0,0,0,25,-0.40046296296296297,0.2916666666666667,1,0,0,4.528669799999989,call1,-0.01574074074074074,-0.1111111111111111,1,0,0,5.182808600000499,colour3,0.38842592592592595,0.11388888888888889,1,0,0,5.815870499998709,number2,True,True,True,38,3,2019_Nov_19_1605,MA_Theta_Exp,3.0.7,60.0974179141861,
video/Experiment/zh_sp01_Ti_Gr_2_NVocInAudio_GlobalThetaInVideo.avi,vocoded,plusVideo,sp01,Ti,Gr,2,1,1,flow/blocks/NVocInAudio_GlobalThetaInVideo_B.csv,,,,,,,,,0,1,1,1,0,1,1,21,-0.4046296296296296,-0.08888888888888889,1,0,0,5.258405499998844,call3,-0.04351851851851852,0.07083333333333333,1,0,0,5.838338900000963,colour2,0.4217592592592593,0.09722222222222222,1,0,0,6.673386200000095,number2,True,True,True,38,3,2019_Nov_19_1605,MA_Theta_Exp,3.0.7,60.0974179141861,
video/Experiment/zh_sp07_Ad_We_4_NVocInAudio_GlobalThetaInVideo.avi,vocoded,plusVideo,sp07,Ad,We,4,1,1,flow/blocks/NVocInAudio_GlobalThetaInVideo_B.csv,,,,,,,,,0,1,1,1,0,2,2,31,-0.3990740740740741,0.3527777777777778,1,0,0,4.712786599999163,call1,-0.000462962962962963,-0.31666666666666665,1,0,0,5.467533499999263,colour4,0.43703703703703706,-0.31805555555555554,1,0,0,5.975050099999862,number4,True,True,True,38,3,2019_Nov_19_1605,MA_Theta_Exp,3.0.7,60.0974179141861,
video/Experiment/zh_sp07_Un_Gr_3_NVocInAudio_GlobalThetaInVideo.avi,vocoded,plusVideo,sp07,Un,Gr,3,1,1,flow/blocks/NVocInAudio_GlobalThetaInVideo_B.csv,,,,,,,,,0,1,1,1,0,3,3,6,-0.41574074074074074,-0.3,1,0,0,4.525672299998405,call4,0.016203703703703703,0.08333333333333333,1,0,0,5.188344000000143,colour2,0.3537037037037037,-0.09027777777777778,1,0,0,5.826077499999883,number3,True,True,True,38,3,2019_Nov_19_1605,MA_Theta_Exp,3.0.7,60.0974179141861,
video/Experiment/zh_sp01_Ti_Gr_3_NVocInAudio_GlobalThetaInVideo.avi,vocoded,plusVideo,sp01,Ti,Gr,3,1,1,flow/blocks/NVocInAudio_GlobalThetaInVideo_B.csv,,,,,,,,,0,1,1,1,0,4,4,22,-0.3824074074074074,-0.11805555555555555,1,0,0,5.059047900000223,call3,-0.050462962962962966,0.09583333333333334,1,0,0,5.55413899999985,colour2,0.41203703703703703,-0.1,1,0,0,6.090475000000879,number3,True,True,True,38,3,2019_Nov_19_1605,MA_Theta_Exp,3.0.7,60.0974179141861,
video/Experiment/zh_sp07_Un_Gr_2_NVocInAudio_GlobalThetaInVideo.avi,vocoded,plusVideo,sp07,Un,Gr,2,1,1,flow/blocks/NVocInAudio_GlobalThetaInVideo_B.csv,,,,,,,,,0,1,1,1,0,5,5,5,-0.3712962962962963,-0.3013888888888889,1,0,0,4.591404599999805,call4,0.04675925925925926,-0.3347222222222222,1,0,0,9.594995800000106,colour4,0.34120370370370373,0.059722222222222225,1,0,0,10.159112999999707,number2,True,False,True,38,3,2019_Nov_19_1605,MA_Theta_Exp,3.0.7,60.0974179141861,
video/Experiment/zh_sp07_Un_We_2_NVocInAudio_GlobalThetaInVideo.avi,vocoded,plusVideo,sp07,Un,We,2,1,1,flow/blocks/NVocInAudio_GlobalThetaInVideo_B.csv,,,,,,,,,0,1,1,1,0,6,6,13,-0.40046296296296297,-0.3111111111111111,1,0,0,4.438019999999597,call4,0.037037037037037035,-0.3125,1,0,0,4.905811399999948,colour4,0.42453703703703705,0.10833333333333334,1,0,0,5.473899900000106,number2,True,True,True,38,3,2019_Nov_19_1605,MA_Theta_Exp,3.0.7,60.0974179141861,
video/Experiment/zh_sp01_Dr_Ro_1_NVocInAudio_GlobalThetaInVideo.avi,vocoded,plusVideo,sp01,Dr,Ro,1,1,1,flow/blocks/NVocInAudio_GlobalThetaInVideo_B.csv,,,,,,,,,0,1,1,1,0,7,7,24,-0.36574074074074076,0.10416666666666667,1,0,0,5.165188400000261,call2,-0.03796296296296296,-0.10416666666666667,1,0,0,5.648516400000517,colour3,0.4009259259259259,0.29583333333333334,1,0,0,6.244168499999432,number1,True,True,True,38,3,2019_Nov_19_1605,MA_Theta_Exp,3.0.7,60.0974179141861,
video/Experiment/zh_sp07_Dr_Ro_3_NVocInAudio_GlobalThetaInVideo.avi,vocoded,plusVideo,sp07,Dr,Ro,3,1,1,flow/blocks/NVocInAudio_GlobalThetaInVideo_B.csv,,,,,,,,,0,1,1,1,0,8,8,26,-0.3574074074074074,0.13055555555555556,1,0,0,4.375409800000853,call2,-0.02962962962962963,-0.10555555555555556,1,0,0,4.856777000000875,colour3,0.4537037037037037,-0.14027777777777778,1,0,0,5.394578100000217,number3,True,True,True,38,3,2019_Nov_19_1605,MA_Theta_Exp,3.0.7,60.0974179141861,
video/Experiment/zh_sp07_Un_Ro_2_NVocInAudio_GlobalThetaInVideo.avi,vocoded,plusVideo,sp07,Un,Ro,2,1,1,flow/blocks/NVocInAudio_GlobalThetaInVideo_B.csv,,,,,,,,,0,1,1,1,0,9,9,9,-0.40046296296296297,-0.3,1,0,0,4.4621017999998,call4,0.017592592592592594,-0.1111111111111111,1,0,0,4.9761914999999135,colour3,0.3800925925925926,0.1125,1,0,0,5.51101540000127,number2,True,True,True,38,3,2019_Nov_19_1605,MA_Theta_Exp,3.0.7,60.0974179141861,
video/Experiment/zh_sp01_Dr_Ge_3_NVocInAudio_GlobalThetaInVideo.avi,vocoded,plusVideo,sp01,Dr,Ge,3,1,1,flow/blocks/NVocInAudio_GlobalThetaInVideo_B.csv,,,,,,,,,0,1,1,1,0,10,10,2,-0.39351851851851855,0.08194444444444444,1,0,0,4.990702400000373,call2,-0.03796296296296296,0.3125,1,0,0,5.462400500000513,colour1,0.41898148148148145,-0.10555555555555556,1,0,0,6.107372000000396,number3,True,True,True,38,3,2019_Nov_19_1605,MA_Theta_Exp,3.0.7,60.0974179141861,
video/Experiment/zh_sp01_Un_Gr_4_NVocInAudio_GlobalThetaInVideo.avi,vocoded,plusVideo,sp01,Un,Gr,4,1,1,flow/blocks/NVocInAudio_GlobalThetaInVideo_B.csv,,,,,,,,,0,1,1,1,0,11,11,23,-0.39351851851851855,-0.3472222222222222,1,0,0,4.893843300000299,call4,0.000925925925925926,0.11388888888888889,1,0,0,5.46671090000018,colour2,0.3787037037037037,-0.30694444444444446,1,0,0,6.000384699998904,number4,True,True,True,38,3,2019_Nov_19_1605,MA_Theta_Exp,3.0.7,60.0974179141861,
video/Experiment/zh_sp01_Ti_Ro_4_NVocInAudio_GlobalThetaInVideo.avi,vocoded,plusVideo,sp01,Ti,Ro,4,1,1,flow/blocks/NVocInAudio_GlobalThetaInVideo_B.csv,,,,,,,,,0,1,1,1,0,12,12,11,-0.40324074074074073,-0.11388888888888889,1,0,0,4.946326600000248,call3,0.017592592592592594,-0.11527777777777778,1,0,0,5.675019700000121,colour3,0.3814814814814815,-0.30416666666666664,1,0,0,6.2091020999996545,number4,True,True,True,38,3,2019_Nov_19_1605,MA_Theta_Exp,3.0.7,60.0974179141861,
video/Experiment/zh_sp07_Dr_Gr_1_NVocInAudio_GlobalThetaInVideo.avi,vocoded,plusVideo,sp07,Dr,Gr,1,1,1,flow/blocks/NVocInAudio_GlobalThetaInVideo_B.csv,,,,,,,,,0,1,1,1,0,13,13,20,-0.37546296296296294,0.13055555555555556,1,0,0,4.297218699999576,call2,-0.014351851851851852,0.09583333333333334,1,0,0,5.0783910999998625,colour2,0.36342592592592593,0.28194444444444444,1,0,0,5.613725900000645,number1,True,True,True,38,3,2019_Nov_19_1605,MA_Theta_Exp,3.0.7,60.0974179141861,
video/Experiment/zh_sp07_Dr_We_3_NVocInAudio_GlobalThetaInVideo.avi,vocoded,plusVideo,sp07,Dr,We,3,1,1,flow/blocks/NVocInAudio_GlobalThetaInVideo_B.csv,,,,,,,,,0,1,1,1,0,14,14,14,-0.37962962962962965,0.09583333333333334,1,0,0,4.38678549999895,call2,0.010648148148148148,-0.3388888888888889,1,0,0,4.97439089999898,colour4,0.37453703703703706,-0.11805555555555555,1,0,0,5.522490400000606,number3,True,True,True,38,3,2019_Nov_19_1605,MA_Theta_Exp,3.0.7,60.0974179141861,
video/Experiment/zh_sp07_Ad_Ge_1_NVocInAudio_GlobalThetaInVideo.avi,vocoded,plusVideo,sp07,Ad,Ge,1,1,1,flow/blocks/NVocInAudio_GlobalThetaInVideo_B.csv,,,,,,,,,0,1,1,1,0,15,15,16,-0.3907407407407407,0.31805555555555554,1,0,0,4.25626740000007,call1,-0.008796296296296297,0.3125,1,0,0,4.737670700000308,colour1,0.3731481481481482,0.29305555555555557,1,0,0,5.233373099999881,number1,True,True,True,38,3,2019_Nov_19_1605,MA_Theta_Exp,3.0.7,60.0974179141861,
video/Experiment/zh_sp01_Ad_Ro_3_NVocInAudio_GlobalThetaInVideo.avi,vocoded,plusVideo,sp01,Ad,Ro,3,1,1,flow/blocks/NVocInAudio_GlobalThetaInVideo_B.csv,,,,,,,,,0,1,1,1,0,16,16,10,-0.350462962962963,0.2986111111111111,1,0,0,4.967039099999965,call1,-0.04212962962962963,-0.14583333333333334,1,0,0,5.500980900000286,colour3,0.4050925925925926,-0.10694444444444444,1,0,0,6.01947250000012,number3,True,True,True,38,3,2019_Nov_19_1605,MA_Theta_Exp,3.0.7,60.0974179141861,
video/Experiment/zh_sp07_Ti_Ro_1_NVocInAudio_GlobalThetaInVideo.avi,vocoded,plusVideo,sp07,Ti,Ro,1,1,1,flow/blocks/NVocInAudio_GlobalThetaInVideo_B.csv,,,,,,,,,0,1,1,1,0,17,17,8,-0.37407407407407406,-0.06527777777777778,1,0,0,6.672079500000109,call3,0.024537037037037038,-0.1361111111111111,1,0,0,7.095167499999661,colour3,0.37592592592592594,0.2972222222222222,1,0,0,7.667675800001234,number1,True,True,True,38,3,2019_Nov_19_1605,MA_Theta_Exp,3.0.7,60.0974179141861,
video/Experiment/zh_sp01_Dr_We_1_NVocInAudio_GlobalThetaInVideo.avi,vocoded,plusVideo,sp01,Dr,We,1,1,1,flow/blocks/NVocInAudio_GlobalThetaInVideo_B.csv,,,,,,,,,0,1,1,1,0,18,18,28,-0.4074074074074074,0.3055555555555556,1,0,0,5.050569099999848,call1,-0.010185185185185186,-0.31805555555555554,1,0,0,6.053302399999666,colour4,0.3800925925925926,0.3236111111111111,1,0,0,6.739833600000566,number1,False,True,True,38,3,2019_Nov_19_1605,MA_Theta_Exp,3.0.7,60.0974179141861,
video/Experiment/zh_sp07_Ti_We_1_NVocInAudio_GlobalThetaInVideo.avi,vocoded,plusVideo,sp07,Ti,We,1,1,1,flow/blocks/NVocInAudio_GlobalThetaInVideo_B.csv,,,,,,,,,0,1,1,1,0,19,19,12,-0.38796296296296295,-0.09722222222222222,1,0,0,4.852484099999856,call3,0.03009259259259259,-0.32222222222222224,1,0,0,5.302637500000856,colour4,0.37453703703703706,0.3236111111111111,1,0,0,5.971863099999609,number1,True,True,True,38,3,2019_Nov_19_1605,MA_Theta_Exp,3.0.7,60.0974179141861,
video/Experiment/zh_sp01_Ad_Ge_3_NVocInAudio_GlobalThetaInVideo.avi,vocoded,plusVideo,sp01,Ad,Ge,3,1,1,flow/blocks/NVocInAudio_GlobalThetaInVideo_B.csv,,,,,,,,,0,1,1,1,0,20,20,18,-0.4074074074074074,0.30277777777777776,1,0,0,4.769036199999391,call1,0.024537037037037038,0.3,1,0,0,5.3174873999996635,colour1,0.37175925925925923,-0.10138888888888889,1,0,0,6.122992799999338,number3,True,True,True,38,3,2019_Nov_19_1605,MA_Theta_Exp,3.0.7,60.0974179141861,
video/Experiment/zh_sp07_Dr_Ge_2_NVocInAudio_GlobalThetaInVideo.avi,vocoded,plusVideo,sp07,Dr,Ge,2,1,1,flow/blocks/NVocInAudio_GlobalThetaInVideo_B.csv,,,,,,,,,0,1,1,1,0,21,21,17,-0.3976851851851852,0.11527777777777778,1,0,0,4.427482900000541,call2,-0.010185185185185186,0.2763888888888889,1,0,0,4.964329099999304,colour1,0.38981481481481484,0.09583333333333334,1,0,0,5.459305600001244,number2,True,True,True,38,3,2019_Nov_19_1605,MA_Theta_Exp,3.0.7,60.0974179141861,
video/Experiment/zh_sp07_Un_Ge_4_NVocInAudio_GlobalThetaInVideo.avi,vocoded,plusVideo,sp07,Un,Ge,4,1,1,flow/blocks/NVocInAudio_GlobalThetaInVideo_B.csv,,,,,,,,,0,1,1,1,0,22,22,19,-0.3837962962962963,-0.32916666666666666,1,0,0,4.108403599999292,call4,-0.021296296296296296,0.3375,1,0,0,5.392965799999729,colour1,0.37453703703703706,-0.3013888888888889,1,0,0,6.17467570000008,number4,True,True,True,38,3,2019_Nov_19_1605,MA_Theta_Exp,3.0.7,60.0974179141861,
video/Experiment/zh_sp07_Dr_We_4_NVocInAudio_GlobalThetaInVideo.avi,vocoded,plusVideo,sp07,Dr,We,4,1,1,flow/blocks/NVocInAudio_GlobalThetaInVideo_B.csv,,,,,,,,,0,1,1,1,0,23,23,15,-0.3685185185185185,-0.30277777777777776,1,0,0,5.796680800000104,call4,0.016203703703703703,-0.31805555555555554,1,0,0,6.23521719999917,colour4,0.37592592592592594,-0.34444444444444444,1,0,0,6.82952909999949,number4,False,True,True,38,3,2019_Nov_19_1605,MA_Theta_Exp,3.0.7,60.0974179141861,
video/Experiment/zh_sp01_Ad_Ge_4_NVocInAudio_GlobalThetaInVideo.avi,vocoded,plusVideo,sp01,Ad,Ge,4,1,1,flow/blocks/NVocInAudio_GlobalThetaInVideo_B.csv,,,,,,,,,0,1,1,1,0,24,24,3,-0.3587962962962963,0.3125,1,0,0,4.822840599999836,call1,-0.049074074074074076,0.3,1,0,0,5.5064129999991565,colour1,0.4064814814814815,-0.3111111111111111,1,0,0,6.205918100000417,number4,True,True,True,38,3,2019_Nov_19_1605,MA_Theta_Exp,3.0.7,60.0974179141861,
video/Experiment/zh_sp01_Ti_We_3_NVocInAudio_GlobalThetaInVideo.avi,vocoded,plusVideo,sp01,Ti,We,3,1,1,flow/blocks/NVocInAudio_GlobalThetaInVideo_B.csv,,,,,,,,,0,1,1,1,0,25,25,30,-0.3962962962962963,-0.09722222222222222,1,0,0,6.106665999999677,call3,0.03009259259259259,-0.32222222222222224,1,0,0,6.707000099999277,colour4,0.36203703703703705,-0.0875,1,0,0,7.323343699999896,number3,True,True,True,38,3,2019_Nov_19_1605,MA_Theta_Exp,3.0.7,60.0974179141861,
video/Experiment/zh_sp01_Un_Ro_4_NVocInAudio_GlobalThetaInVideo.avi,vocoded,plusVideo,sp01,Un,Ro,4,1,1,flow/blocks/NVocInAudio_GlobalThetaInVideo_B.csv,,,,,,,,,0,1,1,1,0,26,26,27,-0.3907407407407407,-0.2861111111111111,1,0,0,5.38432660000035,call4,0.017592592592592594,0.29444444444444445,1,0,0,7.2139853999997285,colour1,0.38425925925925924,-0.3263888888888889,1,0,0,7.814284100000805,number4,True,False,True,38,3,2019_Nov_19_1605,MA_Theta_Exp,3.0.7,60.0974179141861,
video/Experiment/zh_sp01_Ti_Gr_1_NVocInAudio_GlobalThetaInVideo.avi,vocoded,plusVideo,sp01,Ti,Gr,1,1,1,flow/blocks/NVocInAudio_GlobalThetaInVideo_B.csv,,,,,,,,,0,1,1,1,0,27,27,4,-0.4046296296296296,-0.10138888888888889,1,0,0,5.4374685999991925,call3,0.014814814814814815,-0.12638888888888888,1,0,0,7.006857399999717,colour3,0.36203703703703705,0.2861111111111111,1,0,0,7.822158599999966,number1,True,False,True,38,3,2019_Nov_19_1605,MA_Theta_Exp,3.0.7,60.0974179141861,
video/Experiment/zh_sp01_Un_Ge_1_NVocInAudio_GlobalThetaInVideo.avi,vocoded,plusVideo,sp01,Un,Ge,1,1,1,flow/blocks/NVocInAudio_GlobalThetaInVideo_B.csv,,,,,,,,,0,1,1,1,0,28,28,0,-0.35462962962962963,-0.3277777777777778,1,0,0,5.121739700000035,call4,-0.000462962962962963,0.25555555555555554,1,0,0,5.802691699998832,colour1,0.4078703703703704,0.29444444444444445,1,0,0,6.500793300001533,number1,True,True,True,38,3,2019_Nov_19_1605,MA_Theta_Exp,3.0.7,60.0974179141861,
video/Experiment/zh_sp07_Ti_We_2_NVocInAudio_GlobalThetaInVideo.avi,vocoded,plusVideo,sp07,Ti,We,2,1,1,flow/blocks/NVocInAudio_GlobalThetaInVideo_B.csv,,,,,,,,,0,1,1,1,0,29,29,29,-0.4115740740740741,-0.09861111111111111,1,0,0,4.404813600000125,call3,0.016203703703703703,-0.29444444444444445,1,0,0,5.237048200000572,colour4,0.4162037037037037,0.09722222222222222,1,0,0,5.7755163999991055,number2,True,True,True,38,3,2019_Nov_19_1605,MA_Theta_Exp,3.0.7,60.0974179141861,
video/Experiment/zh_sp01_Ad_Gr_4_NVocInAudio_GlobalThetaInVideo.avi,vocoded,plusVideo,sp01,Ad,Gr,4,1,1,flow/blocks/NVocInAudio_GlobalThetaInVideo_B.csv,,,,,,,,,0,1,1,1,0,30,30,7,-0.3851851851851852,0.29444444444444445,1,0,0,6.939014499999757,call1,0.052314814814814814,-0.3458333333333333,1,0,0,7.72182679999969,colour4,0.3912037037037037,-0.31805555555555554,1,0,0,8.143578600000183,number4,True,False,True,38,3,2019_Nov_19_1605,MA_Theta_Exp,3.0.7,60.0974179141861,
video/Experiment/zh_sp01_Ad_Ge_2_NVocInAudio_GlobalThetaInVideo.avi,vocoded,plusVideo,sp01,Ad,Ge,2,1,1,flow/blocks/NVocInAudio_GlobalThetaInVideo_B.csv,,,,,,,,,0,1,1,1,0,31,31,1,-0.36018518518518516,0.30277777777777776,1,0,0,5.2036183000000165,call1,0.038425925925925926,0.2986111111111111,1,0,0,5.83164989999932,colour1,0.3509259259259259,0.10277777777777777,1,0,0,6.465434699999605,number2,True,True,True,38,3,2019_Nov_19_1605,MA_Theta_Exp,3.0.7,60.0974179141861,
video/Experiment/zh_sp01_Ti_Ge_1_NoThetaInAudio_NoVideo.avi,noTheta,noVideo,sp01,Ti,Ge,1,2,4,flow/blocks/NoThetaInAudio_NoVideo_A.csv,,,,,,,,,0,2,2,2,0,0,0,16,-0.3574074074074074,0.30416666666666664,1,0,0,6.8708422999989125,call1,0.08009259259259259,0.3013888888888889,1,0,0,7.999283600000126,colour1,0.4412037037037037,0.3,1,0,0,8.366647700000613,number1,False,True,True,38,3,2019_Nov_19_1605,MA_Theta_Exp,3.0.7,60.0974179141861,
video/Experiment/zh_sp07_Ti_Ro_3_NoThetaInAudio_NoVideo.avi,noTheta,noVideo,sp07,Ti,Ro,3,2,4,flow/blocks/NoThetaInAudio_NoVideo_A.csv,,,,,,,,,0,2,2,2,0,1,1,10,-0.36435185185185187,0.11388888888888889,1,0,0,5.923565099999905,call2,0.006481481481481481,-0.07222222222222222,1,0,0,7.023671400000239,colour3,0.40925925925925927,-0.09861111111111111,1,0,0,7.536727100001372,number3,False,True,True,38,3,2019_Nov_19_1605,MA_Theta_Exp,3.0.7,60.0974179141861,
video/Experiment/zh_sp07_Un_Ge_3_NoThetaInAudio_NoVideo.avi,noTheta,noVideo,sp07,Un,Ge,3,2,4,flow/blocks/NoThetaInAudio_NoVideo_A.csv,,,,,,,,,0,2,2,2,0,2,2,2,-0.45601851851851855,-0.3013888888888889,1,0,0,4.369458099999974,call4,-0.03518518518518519,0.2763888888888889,1,0,0,4.965986999999586,colour1,0.38425925925925924,-0.12083333333333333,1,0,0,5.453256200000396,number3,True,True,True,38,3,2019_Nov_19_1605,MA_Theta_Exp,3.0.7,60.0974179141861,
video/Experiment/zh_sp01_Dr_Gr_4_NoThetaInAudio_NoVideo.avi,noTheta,noVideo,sp01,Dr,Gr,4,2,4,flow/blocks/NoThetaInAudio_NoVideo_A.csv,,,,,,,,,0,2,2,2,0,3,3,23,-0.38657407407407407,-0.12083333333333333,1,0,0,5.937343899999178,call3,0.01898148148148148,0.10833333333333334,1,0,0,6.402984700000161,colour2,0.4273148148148148,-0.34305555555555556,1,0,0,6.875337400000717,number4,False,True,True,38,3,2019_Nov_19_1605,MA_Theta_Exp,3.0.7,60.0974179141861,
video/Experiment/zh_sp07_Ad_Gr_2_NoThetaInAudio_NoVideo.avi,noTheta,noVideo,sp07,Ad,Gr,2,2,4,flow/blocks/NoThetaInAudio_NoVideo_A.csv,,,,,,,,,0,2,2,2,0,4,4,21,-0.3851851851851852,-0.09166666666666666,1,0,0,4.613813100000698,call3,0.006481481481481481,0.08472222222222223,1,0,0,5.011052900001232,colour2,0.39537037037037037,0.07222222222222222,1,0,0,5.525807800000621,number2,False,True,True,38,3,2019_Nov_19_1605,MA_Theta_Exp,3.0.7,60.0974179141861,
video/Experiment/zh_sp01_Ad_We_3_NoThetaInAudio_NoVideo.avi,noTheta,noVideo,sp01,Ad,We,3,2,4,flow/blocks/NoThetaInAudio_NoVideo_A.csv,,,,,,,,,0,2,2,2,0,5,5,30,-0.3560185185185185,0.31527777777777777,1,0,0,4.9258845999993355,call1,-0.004629629629629629,-0.3125,1,0,0,5.624049399999421,colour4,0.45092592592592595,-0.12222222222222222,1,0,0,6.208021200000076,number3,True,True,True,38,3,2019_Nov_19_1605,MA_Theta_Exp,3.0.7,60.0974179141861,
video/Experiment/zh_sp01_Ad_We_1_NoThetaInAudio_NoVideo.avi,noTheta,noVideo,sp01,Ad,We,1,2,4,flow/blocks/NoThetaInAudio_NoVideo_A.csv,,,,,,,,,0,2,2,2,0,6,6,12,-0.42407407407407405,0.32916666666666666,1,0,0,5.017705600001136,call1,-0.02962962962962963,-0.3055555555555556,1,0,0,5.699215500000719,colour4,0.39675925925925926,0.31666666666666665,1,0,0,6.63397150000128,number1,True,True,True,38,3,2019_Nov_19_1605,MA_Theta_Exp,3.0.7,60.0974179141861,
video/Experiment/zh_sp01_Un_We_4_NoThetaInAudio_NoVideo.avi,noTheta,noVideo,sp01,Un,We,4,2,4,flow/blocks/NoThetaInAudio_NoVideo_A.csv,,,,,,,,,0,2,2,2,0,7,7,15,-0.41435185185185186,-0.3138888888888889,1,0,0,4.822314799999731,call4,-0.008796296296296297,-0.3055555555555556,1,0,0,5.32324940000035,colour4,0.4412037037037037,-0.30833333333333335,1,0,0,6.076463499999591,number4,True,True,True,38,3,2019_Nov_19_1605,MA_Theta_Exp,3.0.7,60.0974179141861,
video/Experiment/zh_sp01_Un_Ro_1_NoThetaInAudio_NoVideo.avi,noTheta,noVideo,sp01,Un,Ro,1,2,4,flow/blocks/NoThetaInAudio_NoVideo_A.csv,,,,,,,,,0,2,2,2,0,8,8,24,-0.37546296296296294,-0.2875,1,0,0,5.206736899999669,call4,-0.01574074074074074,-0.13333333333333333,1,0,0,5.640936399999191,colour3,0.38425925925925924,0.3111111111111111,1,0,0,6.174425299999712,number1,True,True,True,38,3,2019_Nov_19_1605,MA_Theta_Exp,3.0.7,60.0974179141861,
video/Experiment/zh_sp07_Un_We_1_NoThetaInAudio_NoVideo.avi,noTheta,noVideo,sp07,Un,We,1,2,4,flow/blocks/NoThetaInAudio_NoVideo_A.csv,,,,,,,,,0,2,2,2,0,9,9,28,-0.3574074074074074,-0.3194444444444444,1,0,0,4.332894700000907,call4,0.024537037037037038,-0.31527777777777777,1,0,0,4.793878500000574,colour4,0.3787037037037037,0.2972222222222222,1,0,0,5.347874400000364,number1,True,True,True,38,3,2019_Nov_19_1605,MA_Theta_Exp,3.0.7,60.0974179141861,
video/Experiment/zh_sp07_Dr_Ge_4_NoThetaInAudio_NoVideo.avi,noTheta,noVideo,sp07,Dr,Ge,4,2,4,flow/blocks/NoThetaInAudio_NoVideo_A.csv,,,,,,,,,0,2,2,2,0,10,10,19,-0.4101851851851852,-0.12222222222222222,1,0,0,4.872152500000084,call3,0.03981481481481482,-0.125,1,0,0,5.88785039999857,colour3,0.4439814814814815,-0.3402777777777778,1,0,0,6.433099099998799,number4,False,False,True,38,3,2019_Nov_19_1605,MA_Theta_Exp,3.0.7,60.0974179141861,
video/Experiment/zh_sp07_Un_Ge_2_NoThetaInAudio_NoVideo.avi,noTheta,noVideo,sp07,Un,Ge,2,2,4,flow/blocks/NoThetaInAudio_NoVideo_A.csv,,,,,,,,,0,2,2,2,0,11,11,17,-0.3712962962962963,-0.32222222222222224,1,0,0,4.385160099998757,call4,0.00787037037037037,0.3013888888888889,1,0,0,5.004420699999173,colour1,0.37592592592592594,0.11944444444444445,1,0,0,5.563456699999733,number2,True,True,True,38,3,2019_Nov_19_1605,MA_Theta_Exp,3.0.7,60.0974179141861,
video/Experiment/zh_sp07_Ti_Ge_2_NoThetaInAudio_NoVideo.avi,noTheta,noVideo,sp07,Ti,Ge,2,2,4,flow/blocks/NoThetaInAudio_NoVideo_A.csv,,,,,,,,,0,2,2,2,0,12,12,1,-0.36018518518518516,-0.12916666666666668,1,0,0,4.6067856999998185,call3,0.006481481481481481,0.2972222222222222,1,0,0,5.109940300000744,colour1,0.34675925925925927,0.07777777777777778,1,0,0,5.594987399999809,number2,True,True,True,38,3,2019_Nov_19_1605,MA_Theta_Exp,3.0.7,60.0974179141861,
video/Experiment/zh_sp07_Ad_Ro_4_NoThetaInAudio_NoVideo.avi,noTheta,noVideo,sp07,Ad,Ro,4,2,4,flow/blocks/NoThetaInAudio_NoVideo_A.csv,,,,,,,,,0,2,2,2,0,13,13,11,-0.3907407407407407,-0.3333333333333333,1,0,0,5.238919400000668,call4,-0.001851851851851852,-0.09861111111111111,1,0,0,5.788792299999841,colour3,0.3675925925925926,-0.32222222222222224,1,0,0,6.255229300000792,number4,False,True,True,38,3,2019_Nov_19_1605,MA_Theta_Exp,3.0.7,60.0974179141861,
video/Experiment/zh_sp01_Un_Ro_3_NoThetaInAudio_NoVideo.avi,noTheta,noVideo,sp01,Un,Ro,3,2,4,flow/blocks/NoThetaInAudio_NoVideo_A.csv,,,,,,,,,0,2,2,2,0,14,14,26,-0.3365740740740741,0.13055555555555556,1,0,0,4.969789799999489,call2,0.017592592592592594,-0.07777777777777778,1,0,0,5.402685899998687,colour3,0.43425925925925923,-0.14722222222222223,1,0,0,5.88489109999864,number3,False,True,True,38,3,2019_Nov_19_1605,MA_Theta_Exp,3.0.7,60.0974179141861,
video/Experiment/zh_sp07_Dr_Ge_1_NoThetaInAudio_NoVideo.avi,noTheta,noVideo,sp07,Dr,Ge,1,2,4,flow/blocks/NoThetaInAudio_NoVideo_A.csv,,,,,,,,,0,2,2,2,0,15,15,0,-0.3421296296296296,0.10277777777777777,1,0,0,4.375703300000168,call2,-0.0032407407407407406,0.275,1,0,0,4.811836500000936,colour1,0.4300925925925926,0.28888888888888886,1,0,0,5.263261000000057,number1,True,True,True,38,3,2019_Nov_19_1605,MA_Theta_Exp,3.0.7,60.0974179141861,
video/Experiment/zh_sp01_Ti_We_4_NoThetaInAudio_NoVideo.avi,noTheta,noVideo,sp01,Ti,We,4,2,4,flow/blocks/NoThetaInAudio_NoVideo_A.csv,,,,,,,,,0,2,2,2,0,16,16,31,-0.3712962962962963,-0.10277777777777777,1,0,0,5.057108099999823,call3,0.055092592592592596,0.28055555555555556,1,0,0,7.205561700000544,colour1,0.3773148148148148,-0.30694444444444446,1,0,0,7.808626000000004,number4,True,False,True,38,3,2019_Nov_19_1605,MA_Theta_Exp,3.0.7,60.0974179141861,
video/Experiment/zh_sp07_Ad_We_2_NoThetaInAudio_NoVideo.avi,noTheta,noVideo,sp07,Ad,We,2,2,4,flow/blocks/NoThetaInAudio_NoVideo_A.csv,,,,,,,,,0,2,2,2,0,17,17,29,-0.37824074074074077,0.27361111111111114,1,0,0,4.796893200000341,call1,0.020370370370370372,-0.3236111111111111,1,0,0,5.41071539999939,colour4,0.399537037037037,0.10555555555555556,1,0,0,5.92878969999947,number2,True,True,True,38,3,2019_Nov_19_1605,MA_Theta_Exp,3.0.7,60.0974179141861,
video/Experiment/zh_sp07_Ti_Ro_2_NoThetaInAudio_NoVideo.avi,noTheta,noVideo,sp07,Ti,Ro,2,2,4,flow/blocks/NoThetaInAudio_NoVideo_A.csv,,,,,,,,,0,2,2,2,0,18,18,25,-0.41712962962962963,-0.11388888888888889,1,0,0,4.47143320000032,call3,0.013425925925925926,-0.08194444444444444,1,0,0,5.091910600000119,colour3,0.3648148148148148,0.12083333333333333,1,0,0,5.738095599999724,number2,True,True,True,38,3,2019_Nov_19_1605,MA_Theta_Exp,3.0.7,60.0974179141861,
video/Experiment/zh_sp07_Dr_Gr_2_NoThetaInAudio_NoVideo.avi,noTheta,noVideo,sp07,Dr,Gr,2,2,4,flow/blocks/NoThetaInAudio_NoVideo_A.csv,,,,,,,,,0,2,2,2,0,19,19,5,-0.35324074074074074,0.11527777777777778,1,0,0,5.027205299998968,call2,-0.000462962962962963,0.10138888888888889,1,0,0,5.579161400000885,colour2,0.4078703703703704,0.06944444444444445,1,0,0,6.075779500000863,number2,True,True,True,38,3,2019_Nov_19_1605,MA_Theta_Exp,3.0.7,60.0974179141861,
video/Experiment/zh_sp01_Un_Gr_1_NoThetaInAudio_NoVideo.avi,noTheta,noVideo,sp01,Un,Gr,1,2,4,flow/blocks/NoThetaInAudio_NoVideo_A.csv,,,,,,,,,0,2,2,2,0,20,20,20,-0.40879629629629627,0.35138888888888886,1,0,0,4.934568599999693,call1,-0.026851851851851852,0.10833333333333334,1,0,0,5.45463970000128,colour2,0.38287037037037036,0.2847222222222222,1,0,0,6.086178199999267,number1,False,True,True,38,3,2019_Nov_19_1605,MA_Theta_Exp,3.0.7,60.0974179141861,
video/Experiment/zh_sp01_Dr_We_2_NoThetaInAudio_NoVideo.avi,noTheta,noVideo,sp01,Dr,We,2,2,4,flow/blocks/NoThetaInAudio_NoVideo_A.csv,,,,,,,,,0,2,2,2,0,21,21,13,-0.34629629629629627,-0.3333333333333333,1,0,0,5.249190999998973,call4,-0.01574074074074074,0.059722222222222225,1,0,0,5.8027979000016785,colour2,0.4564814814814815,0.11805555555555555,1,0,0,6.281600399999661,number2,False,False,True,38,3,2019_Nov_19_1605,MA_Theta_Exp,3.0.7,60.0974179141861,
video/Experiment/zh_sp01_Ad_Gr_1_NoThetaInAudio_NoVideo.avi,noTheta,noVideo,sp01,Ad,Gr,1,2,4,flow/blocks/NoThetaInAudio_NoVideo_A.csv,,,,,,,,,0,2,2,2,0,22,22,4,-0.350462962962963,0.28055555555555556,1,0,0,5.154896100000769,call1,-0.0032407407407407406,0.09027777777777778,1,0,0,5.683887699999104,colour2,0.42592592592592593,0.2902777777777778,1,0,0,6.2092673999995895,number1,True,True,True,38,3,2019_Nov_19_1605,MA_Theta_Exp,3.0.7,60.0974179141861,
video/Experiment/zh_sp07_Ti_Ge_3_NoThetaInAudio_NoVideo.avi,noTheta,noVideo,sp07,Ti,Ge,3,2,4,flow/blocks/NoThetaInAudio_NoVideo_A.csv,,,,,,,,,0,2,2,2,0,23,23,18,-0.38935185185185184,0.08888888888888889,1,0,0,5.8079603999995015,call2,0.020370370370370372,-0.11944444444444445,1,0,0,7.408828199999334,colour3,0.37592592592592594,-0.12638888888888888,1,0,0,7.946021599998858,number3,False,False,True,38,3,2019_Nov_19_1605,MA_Theta_Exp,3.0.7,60.0974179141861,
video/Experiment/zh_sp01_Ad_Gr_3_NoThetaInAudio_NoVideo.avi,noTheta,noVideo,sp01,Ad,Gr,3,2,4,flow/blocks/NoThetaInAudio_NoVideo_A.csv,,,,,,,,,0,2,2,2,0,24,24,22,-0.3990740740740741,0.35555555555555557,1,0,0,5.083300700000109,call1,-0.0060185185185185185,0.06944444444444445,1,0,0,5.569822900000872,colour2,0.39537037037037037,-0.08472222222222223,1,0,0,6.087333699999363,number3,True,True,True,38,3,2019_Nov_19_1605,MA_Theta_Exp,3.0.7,60.0974179141861,
video/Experiment/zh_sp01_Ad_Ro_1_NoThetaInAudio_NoVideo.avi,noTheta,noVideo,sp01,Ad,Ro,1,2,4,flow/blocks/NoThetaInAudio_NoVideo_A.csv,,,,,,,,,0,2,2,2,0,25,25,8,-0.38796296296296295,0.2902777777777778,1,0,0,5.11339930000031,call1,-0.040740740740740744,-0.09444444444444444,1,0,0,5.647985499999777,colour3,0.38564814814814813,0.3138888888888889,1,0,0,6.244152999999642,number1,True,True,True,38,3,2019_Nov_19_1605,MA_Theta_Exp,3.0.7,60.0974179141861,
video/Experiment/zh_sp01_Un_We_3_NoThetaInAudio_NoVideo.avi,noTheta,noVideo,sp01,Un,We,3,2,4,flow/blocks/NoThetaInAudio_NoVideo_A.csv,,,,,,,,,0,2,2,2,0,26,26,14,-0.43657407407407406,-0.2986111111111111,1,0,0,4.833591800001159,call4,-0.05185185185185185,-0.2972222222222222,1,0,0,5.2878251999991335,colour4,0.37592592592592594,-0.12222222222222222,1,0,0,5.80090459999883,number3,True,True,True,38,3,2019_Nov_19_1605,MA_Theta_Exp,3.0.7,60.0974179141861,
video/Experiment/zh_sp07_Dr_Ro_4_NoThetaInAudio_NoVideo.avi,noTheta,noVideo,sp07,Dr,Ro,4,2,4,flow/blocks/NoThetaInAudio_NoVideo_A.csv,,,,,,,,,0,2,2,2,0,27,27,27,-0.3976851851851852,0.3458333333333333,1,0,0,4.676868999998987,call1,0.005092592592592593,-0.10833333333333334,1,0,0,5.2109168999995745,colour3,0.4009259259259259,-0.29583333333333334,1,0,0,5.709292199999254,number4,False,True,True,38,3,2019_Nov_19_1605,MA_Theta_Exp,3.0.7,60.0974179141861,
video/Experiment/zh_sp01_Dr_Gr_3_NoThetaInAudio_NoVideo.avi,noTheta,noVideo,sp01,Dr,Gr,3,2,4,flow/blocks/NoThetaInAudio_NoVideo_A.csv,,,,,,,,,0,2,2,2,0,28,28,6,-0.35462962962962963,0.13055555555555556,1,0,0,4.98217140000088,call2,-0.011574074074074073,0.06944444444444445,1,0,0,5.4316171999998915,colour2,0.43425925925925923,-0.1388888888888889,1,0,0,5.980616999999256,number3,True,True,True,38,3,2019_Nov_19_1605,MA_Theta_Exp,3.0.7,60.0974179141861,
video/Experiment/zh_sp07_Ti_Gr_4_NoThetaInAudio_NoVideo.avi,noTheta,noVideo,sp07,Ti,Gr,4,2,4,flow/blocks/NoThetaInAudio_NoVideo_A.csv,,,,,,,,,0,2,2,2,0,29,29,7,-0.3476851851851852,-0.10833333333333334,1,0,0,6.004228600000715,call3,0.010648148148148148,0.08194444444444444,1,0,0,6.43276060000062,colour2,0.3925925925925926,-0.325,1,0,0,6.885112799998751,number4,True,True,True,38,3,2019_Nov_19_1605,MA_Theta_Exp,3.0.7,60.0974179141861,
video/Experiment/zh_sp07_Ti_Ge_4_NoThetaInAudio_NoVideo.avi,noTheta,noVideo,sp07,Ti,Ge,4,2,4,flow/blocks/NoThetaInAudio_NoVideo_A.csv,,,,,,,,,0,2,2,2,0,30,30,3,-0.4199074074074074,-0.1388888888888889,1,0,0,4.695857099999557,call3,-0.01990740740740741,-0.14722222222222223,1,0,0,5.148204200000691,colour3,0.3787037037037037,-0.3055555555555556,1,0,0,5.603257800001302,number4,True,False,True,38,3,2019_Nov_19_1605,MA_Theta_Exp,3.0.7,60.0974179141861,
video/Experiment/zh_sp01_Dr_Ro_2_NoThetaInAudio_NoVideo.avi,noTheta,noVideo,sp01,Dr,Ro,2,2,4,flow/blocks/NoThetaInAudio_NoVideo_A.csv,,,,,,,,,0,2,2,2,0,31,31,9,-0.3560185185185185,-0.3138888888888889,1,0,0,5.183737499999552,call4,0.03009259259259259,-0.08055555555555556,1,0,0,5.750583700000789,colour3,0.3731481481481482,0.09305555555555556,1,0,0,6.335387600000104,number2,False,True,True,38,3,2019_Nov_19_1605,MA_Theta_Exp,3.0.7,60.0974179141861,
