videoFile,condition,video,speaker,callSign,colour,number,seq,id,block,exp.thisRepN,exp.thisTrialN,exp.thisN,exp.thisIndex,training.thisRepN,training.thisTrialN,training.thisN,training.thisIndex,firstHalf.thisRepN,firstHalf.thisTrialN,firstHalf.thisN,firstHalf.thisIndex,blocksA.thisRepN,blocksA.thisTrialN,blocksA.thisN,blocksA.thisIndex,mouseClickOnCall.x,mouseClickOnCall.y,mouseClickOnCall.leftButton,mouseClickOnCall.midButton,mouseClickOnCall.rightButton,mouseClickOnCall.time,mouseClickOnCall.clicked_name,mouseClickOnColour.x,mouseClickOnColour.y,mouseClickOnColour.leftButton,mouseClickOnColour.midButton,mouseClickOnColour.rightButton,mouseClickOnColour.time,mouseClickOnColour.clicked_name,mouseClickOnNumber.x,mouseClickOnNumber.y,mouseClickOnNumber.leftButton,mouseClickOnNumber.midButton,mouseClickOnNumber.rightButton,mouseClickOnNumber.time,mouseClickOnNumber.clicked_name,callSignCorrect,colourCorrect,numberCorrect,participant,order,date,expName,psychopyVersion,frameRate,
video/Training/zh_sp01_Ad_We_4_NVocInAudio_NoVideo.avi,vocoded,noVideo,sp01,Ad,We,4,,,,,,,,0,0,0,0,,,,,,,,,-0.3902777777777778,0.28055555555555556,1,0,0,6.221424000003026,call1,0.013888888888888888,-0.3013888888888889,1,0,0,7.234558199997991,colour4,0.4152777777777778,-0.33611111111111114,1,0,0,7.7911424999911105,number4,True,True,True,39,4,2019_Nov_20_1602,MA_Theta_Exp,3.0.7,59.916045637552344,
video/Training/zh_sp07_Ad_Ge_3_NVocInAudio_NoVideo.avi,vocoded,noVideo,sp07,Ad,Ge,3,,,,,,,,0,1,1,1,,,,,,,,,-0.3888888888888889,0.31527777777777777,1,0,0,4.566156000000774,call1,0.07222222222222222,0.2708333333333333,1,0,0,5.260505400001421,colour1,0.43472222222222223,-0.1111111111111111,1,0,0,6.006303800008027,number3,True,True,True,39,4,2019_Nov_20_1602,MA_Theta_Exp,3.0.7,59.916045637552344,
video/Training/zh_sp01_Dr_Ro_3_NVocInAudio_GlobalThetaInVideo.avi,vocoded,plusVideo,sp01,Dr,Ro,3,,,,,,,,0,2,2,2,,,,,,,,,-0.4,0.06805555555555555,1,0,0,5.598936100010178,call2,0.029166666666666667,-0.13194444444444445,1,0,0,6.3850396999914665,colour3,0.4027777777777778,-0.11944444444444445,1,0,0,7.004675400006818,number3,True,True,True,39,4,2019_Nov_20_1602,MA_Theta_Exp,3.0.7,59.916045637552344,
video/Training/zh_sp07_Dr_Gr_4_NVocInAudio_GlobalThetaInVideo.avi,vocoded,plusVideo,sp07,Dr,Gr,4,,,,,,,,0,3,3,3,,,,,,,,,-0.4111111111111111,0.08888888888888889,1,0,0,5.260326899995562,call2,-0.006944444444444444,0.08888888888888889,1,0,0,5.802593499989598,colour2,0.4444444444444444,-0.3277777777777778,1,0,0,6.439505899994401,number4,True,True,True,39,4,2019_Nov_20_1602,MA_Theta_Exp,3.0.7,59.916045637552344,
video/Training/zh_sp01_Ti_Gr_2_NoThetaInAudio_NoVideo.avi,noTheta,noVideo,sp01,Ti,Gr,2,,,,,,,,0,4,4,4,,,,,,,,,-0.38472222222222224,-0.33055555555555555,1,0,0,7.141728399990825,call4,0.03611111111111111,0.375,1,0,0,7.985694799994235,colour1,0.41388888888888886,0.08194444444444444,1,0,0,8.93763119999494,number2,False,False,True,39,4,2019_Nov_20_1602,MA_Theta_Exp,3.0.7,59.916045637552344,
video/Training/zh_sp07_Ti_Ro_1_NoThetaInAudio_NoVideo.avi,noTheta,noVideo,sp07,Ti,Ro,1,,,,,,,,0,5,5,5,,,,,,,,,-0.37916666666666665,-0.3236111111111111,1,0,0,4.660043800002313,call4,0.015277777777777777,-0.325,1,0,0,5.026702199989813,colour4,0.3597222222222222,-0.3055555555555556,1,0,0,5.4193612999952165,number4,False,False,False,39,4,2019_Nov_20_1602,MA_Theta_Exp,3.0.7,59.916045637552344,
video/Training/zh_sp01_Un_Ge_1_NoThetaInAudio_GlobalThetaInVideo.avi,noTheta,plusVideo,sp01,Un,Ge,1,,,,,,,,0,6,6,6,,,,,,,,,-0.4027777777777778,-0.31666666666666665,1,0,0,5.263859799990314,call4,-0.05138888888888889,-0.10277777777777777,1,0,0,5.717443899993668,colour3,0.4263888888888889,0.3902777777777778,1,0,0,6.24324820000038,number1,True,False,True,39,4,2019_Nov_20_1602,MA_Theta_Exp,3.0.7,59.916045637552344,
video/Training/zh_sp07_Un_We_2_NoThetaInAudio_GlobalThetaInVideo.avi,noTheta,plusVideo,sp07,Un,We,2,,,,,,,,0,7,7,7,,,,,,,,,-0.4,-0.3388888888888889,1,0,0,4.702594400005182,call4,0.0375,0.1,1,0,0,6.373564399997122,colour2,0.36944444444444446,0.30972222222222223,1,0,0,7.11019110000052,number1,True,False,False,39,4,2019_Nov_20_1602,MA_Theta_Exp,3.0.7,59.916045637552344,
video/Training/zh_sp01_Ad_Ge_1_GlobalTheta_NoVideo.avi,globalTheta,noVideo,sp01,Ad,Ge,1,,,,,,,,0,8,8,8,,,,,,,,,-0.3375,0.3277777777777778,1,0,0,9.376398199994583,call1,-0.013888888888888888,0.3236111111111111,1,0,0,9.89994079999451,colour1,0.4583333333333333,0.31805555555555554,1,0,0,10.330408499998157,number1,True,True,True,39,4,2019_Nov_20_1602,MA_Theta_Exp,3.0.7,59.916045637552344,
video/Training/zh_sp07_Ad_Ro_3_GlobalTheta_NoVideo.avi,globalTheta,noVideo,sp07,Ad,Ro,3,,,,,,,,0,9,9,9,,,,,,,,,-0.37083333333333335,0.29444444444444445,1,0,0,4.615047400002368,call1,-0.022222222222222223,-0.11527777777777778,1,0,0,5.606818899992504,colour3,0.4152777777777778,-0.2861111111111111,1,0,0,6.438851300001261,number4,True,True,False,39,4,2019_Nov_20_1602,MA_Theta_Exp,3.0.7,59.916045637552344,
video/Experiment/zh_sp01_Ti_Ro_2_NVocInAudio_GlobalThetaInVideo.avi,vocoded,plusVideo,sp01,Ti,Ro,2,0,1,flow/blocks/NVocInAudio_GlobalThetaInVideo_A.csv,,,,,,,,,0,0,0,0,0,0,0,25,-0.4375,-0.09861111111111111,1,0,0,5.476224700003513,call3,-0.03194444444444444,-0.10277777777777777,1,0,0,6.106927099986933,colour3,0.4236111111111111,0.09722222222222222,1,0,0,6.880049600003986,number2,True,True,True,39,4,2019_Nov_20_1602,MA_Theta_Exp,3.0.7,59.916045637552344,
video/Experiment/zh_sp01_Dr_We_2_NVocInAudio_GlobalThetaInVideo.avi,vocoded,plusVideo,sp01,Dr,We,2,0,1,flow/blocks/NVocInAudio_GlobalThetaInVideo_A.csv,,,,,,,,,0,0,0,0,0,1,1,13,-0.39444444444444443,0.125,1,0,0,6.095634399986011,call2,0.04861111111111111,-0.30833333333333335,1,0,0,6.914054100008798,colour4,0.41944444444444445,0.13055555555555556,1,0,0,7.962920799996937,number2,True,True,True,39,4,2019_Nov_20_1602,MA_Theta_Exp,3.0.7,59.916045637552344,
video/Experiment/zh_sp07_Ad_We_2_NVocInAudio_GlobalThetaInVideo.avi,vocoded,plusVideo,sp07,Ad,We,2,0,1,flow/blocks/NVocInAudio_GlobalThetaInVideo_A.csv,,,,,,,,,0,0,0,0,0,2,2,29,-0.4263888888888889,0.2861111111111111,1,0,0,4.730244700011099,call1,0.05,-0.31527777777777777,1,0,0,6.293788399998448,colour4,0.37222222222222223,0.10694444444444444,1,0,0,7.054693300000508,number2,True,True,True,39,4,2019_Nov_20_1602,MA_Theta_Exp,3.0.7,59.916045637552344,
video/Experiment/zh_sp01_Un_Ro_1_NVocInAudio_GlobalThetaInVideo.avi,vocoded,plusVideo,sp01,Un,Ro,1,0,1,flow/blocks/NVocInAudio_GlobalThetaInVideo_A.csv,,,,,,,,,0,0,0,0,0,3,3,24,-0.4041666666666667,-0.3194444444444444,1,0,0,5.356929399989895,call4,-0.009722222222222222,-0.12083333333333333,1,0,0,5.877045500004897,colour3,0.4,0.3263888888888889,1,0,0,7.173389699994004,number1,True,True,True,39,4,2019_Nov_20_1602,MA_Theta_Exp,3.0.7,59.916045637552344,
video/Experiment/zh_sp01_Ad_Gr_2_NVocInAudio_GlobalThetaInVideo.avi,vocoded,plusVideo,sp01,Ad,Gr,2,0,1,flow/blocks/NVocInAudio_GlobalThetaInVideo_A.csv,,,,,,,,,0,0,0,0,0,4,4,21,-0.4263888888888889,0.30972222222222223,1,0,0,5.185239600003115,call1,0.03611111111111111,0.08194444444444444,1,0,0,5.886683400007314,colour2,0.4222222222222222,0.12083333333333333,1,0,0,6.672934300004272,number2,True,True,True,39,4,2019_Nov_20_1602,MA_Theta_Exp,3.0.7,59.916045637552344,
video/Experiment/zh_sp07_Ad_Gr_1_NVocInAudio_GlobalThetaInVideo.avi,vocoded,plusVideo,sp07,Ad,Gr,1,0,1,flow/blocks/NVocInAudio_GlobalThetaInVideo_A.csv,,,,,,,,,0,0,0,0,0,5,5,4,-0.39861111111111114,0.2986111111111111,1,0,0,4.571187100009411,call1,0.041666666666666664,0.09305555555555556,1,0,0,5.079686000011861,colour2,0.35555555555555557,0.2972222222222222,1,0,0,5.599641300010262,number1,True,True,True,39,4,2019_Nov_20_1602,MA_Theta_Exp,3.0.7,59.916045637552344,
video/Experiment/zh_sp07_Un_Ge_2_NVocInAudio_GlobalThetaInVideo.avi,vocoded,plusVideo,sp07,Un,Ge,2,0,1,flow/blocks/NVocInAudio_GlobalThetaInVideo_A.csv,,,,,,,,,0,0,0,0,0,6,6,17,-0.3819444444444444,-0.3194444444444444,1,0,0,4.482545399994706,call4,0.013888888888888888,0.28888888888888886,1,0,0,5.332967900001677,colour1,0.3375,0.09444444444444444,1,0,0,5.823812000002363,number2,True,True,True,39,4,2019_Nov_20_1602,MA_Theta_Exp,3.0.7,59.916045637552344,
video/Experiment/zh_sp07_Ti_Ge_1_NVocInAudio_GlobalThetaInVideo.avi,vocoded,plusVideo,sp07,Ti,Ge,1,0,1,flow/blocks/NVocInAudio_GlobalThetaInVideo_A.csv,,,,,,,,,0,0,0,0,0,7,7,16,-0.42916666666666664,-0.12083333333333333,1,0,0,4.634808600007091,call3,0.03611111111111111,0.3388888888888889,1,0,0,5.299420800001826,colour1,0.4013888888888889,0.3125,1,0,0,6.013102800003253,number1,True,True,True,39,4,2019_Nov_20_1602,MA_Theta_Exp,3.0.7,59.916045637552344,
video/Experiment/zh_sp07_Dr_Ro_4_NVocInAudio_GlobalThetaInVideo.avi,vocoded,plusVideo,sp07,Dr,Ro,4,0,1,flow/blocks/NVocInAudio_GlobalThetaInVideo_A.csv,,,,,,,,,0,0,0,0,0,8,8,27,-0.39444444444444443,0.1111111111111111,1,0,0,5.765043999999762,call2,-0.011111111111111112,-0.12638888888888888,1,0,0,6.479870100010885,colour3,0.44722222222222224,-0.3375,1,0,0,7.036516099993605,number4,True,True,True,39,4,2019_Nov_20_1602,MA_Theta_Exp,3.0.7,59.916045637552344,
video/Experiment/zh_sp07_Dr_Gr_4_NVocInAudio_GlobalThetaInVideo.avi,vocoded,plusVideo,sp07,Dr,Gr,4,0,1,flow/blocks/NVocInAudio_GlobalThetaInVideo_A.csv,,,,,,,,,0,0,0,0,0,9,9,23,-0.35138888888888886,0.10277777777777777,1,0,0,4.615493100005551,call2,0.06388888888888888,0.10416666666666667,1,0,0,5.159097000010661,colour2,0.4041666666666667,-0.3111111111111111,1,0,0,5.90362759999698,number4,True,True,True,39,4,2019_Nov_20_1602,MA_Theta_Exp,3.0.7,59.916045637552344,
video/Experiment/zh_sp07_Dr_Ge_1_NVocInAudio_GlobalThetaInVideo.avi,vocoded,plusVideo,sp07,Dr,Ge,1,0,1,flow/blocks/NVocInAudio_GlobalThetaInVideo_A.csv,,,,,,,,,0,0,0,0,0,10,10,0,-0.38472222222222224,0.13333333333333333,1,0,0,4.72454939999443,call2,0.02361111111111111,0.32083333333333336,1,0,0,5.294057799997972,colour1,0.34305555555555556,0.3236111111111111,1,0,0,5.821801500002039,number1,True,True,True,39,4,2019_Nov_20_1602,MA_Theta_Exp,3.0.7,59.916045637552344,
video/Experiment/zh_sp07_Dr_Ge_4_NVocInAudio_GlobalThetaInVideo.avi,vocoded,plusVideo,sp07,Dr,Ge,4,0,1,flow/blocks/NVocInAudio_GlobalThetaInVideo_A.csv,,,,,,,,,0,0,0,0,0,11,11,19,-0.425,0.1,1,0,0,4.741499399999157,call2,-0.05,0.3125,1,0,0,5.245315200008918,colour1,0.4041666666666667,-0.3055555555555556,1,0,0,5.996961900003953,number4,True,True,True,39,4,2019_Nov_20_1602,MA_Theta_Exp,3.0.7,59.916045637552344,
video/Experiment/zh_sp01_Ad_We_1_NVocInAudio_GlobalThetaInVideo.avi,vocoded,plusVideo,sp01,Ad,We,1,0,1,flow/blocks/NVocInAudio_GlobalThetaInVideo_A.csv,,,,,,,,,0,0,0,0,0,12,12,12,-0.37777777777777777,0.32222222222222224,1,0,0,5.2707236999995075,call1,0.005555555555555556,-0.3263888888888889,1,0,0,6.032366100000218,colour4,0.43472222222222223,0.325,1,0,0,6.723515099991346,number1,True,True,True,39,4,2019_Nov_20_1602,MA_Theta_Exp,3.0.7,59.916045637552344,
video/Experiment/zh_sp01_Un_Ro_3_NVocInAudio_GlobalThetaInVideo.avi,vocoded,plusVideo,sp01,Un,Ro,3,0,1,flow/blocks/NVocInAudio_GlobalThetaInVideo_A.csv,,,,,,,,,0,0,0,0,0,13,13,26,-0.4097222222222222,-0.31527777777777777,1,0,0,5.137443200001144,call4,-0.034722222222222224,-0.13055555555555556,1,0,0,5.615814100005082,colour3,0.4986111111111111,-0.13194444444444445,1,0,0,6.161726599995745,number3,True,True,True,39,4,2019_Nov_20_1602,MA_Theta_Exp,3.0.7,59.916045637552344,
video/Experiment/zh_sp01_Ti_Ro_3_NVocInAudio_GlobalThetaInVideo.avi,vocoded,plusVideo,sp01,Ti,Ro,3,0,1,flow/blocks/NVocInAudio_GlobalThetaInVideo_A.csv,,,,,,,,,0,0,0,0,0,14,14,10,-0.35,-0.10833333333333334,1,0,0,4.876031100007822,call3,0.016666666666666666,-0.09166666666666666,1,0,0,5.292958699996234,colour3,0.4097222222222222,-0.10555555555555556,1,0,0,6.2044716000091285,number3,True,True,True,39,4,2019_Nov_20_1602,MA_Theta_Exp,3.0.7,59.916045637552344,
video/Experiment/zh_sp07_Ad_Ro_4_NVocInAudio_GlobalThetaInVideo.avi,vocoded,plusVideo,sp07,Ad,Ro,4,0,1,flow/blocks/NVocInAudio_GlobalThetaInVideo_A.csv,,,,,,,,,0,0,0,0,0,15,15,11,-0.4083333333333333,0.31805555555555554,1,0,0,4.761391599997296,call1,0.016666666666666666,-0.1375,1,0,0,5.464153599998099,colour3,0.4444444444444444,-0.3333333333333333,1,0,0,6.031583899995894,number4,True,True,True,39,4,2019_Nov_20_1602,MA_Theta_Exp,3.0.7,59.916045637552344,
video/Experiment/zh_sp01_Un_We_4_NVocInAudio_GlobalThetaInVideo.avi,vocoded,plusVideo,sp01,Un,We,4,0,1,flow/blocks/NVocInAudio_GlobalThetaInVideo_A.csv,,,,,,,,,0,0,0,0,0,16,16,15,-0.38333333333333336,-0.30833333333333335,1,0,0,5.317561499992735,call4,0.022222222222222223,-0.3055555555555556,1,0,0,5.871783499998855,colour4,0.4083333333333333,-0.30972222222222223,1,0,0,6.393393699996523,number4,True,True,True,39,4,2019_Nov_20_1602,MA_Theta_Exp,3.0.7,59.916045637552344,
video/Experiment/zh_sp07_Un_Ge_3_NVocInAudio_GlobalThetaInVideo.avi,vocoded,plusVideo,sp07,Un,Ge,3,0,1,flow/blocks/NVocInAudio_GlobalThetaInVideo_A.csv,,,,,,,,,0,0,0,0,0,17,17,2,-0.43194444444444446,-0.32222222222222224,1,0,0,4.949890999996569,call4,0.008333333333333333,0.35555555555555557,1,0,0,5.737075500001083,colour1,0.43472222222222223,-0.08194444444444444,1,0,0,6.602824399989913,number3,True,True,True,39,4,2019_Nov_20_1602,MA_Theta_Exp,3.0.7,59.916045637552344,
video/Experiment/zh_sp01_Un_We_3_NVocInAudio_GlobalThetaInVideo.avi,vocoded,plusVideo,sp01,Un,We,3,0,1,flow/blocks/NVocInAudio_GlobalThetaInVideo_A.csv,,,,,,,,,0,0,0,0,0,18,18,14,-0.36944444444444446,-0.28194444444444444,1,0,0,5.037065699987579,call4,-0.029166666666666667,-0.30277777777777776,1,0,0,5.515062899998156,colour4,0.37083333333333335,-0.12083333333333333,1,0,0,5.973610600005486,number3,True,True,True,39,4,2019_Nov_20_1602,MA_Theta_Exp,3.0.7,59.916045637552344,
video/Experiment/zh_sp07_Ti_We_4_NVocInAudio_GlobalThetaInVideo.avi,vocoded,plusVideo,sp07,Ti,We,4,0,1,flow/blocks/NVocInAudio_GlobalThetaInVideo_A.csv,,,,,,,,,0,0,0,0,0,19,19,31,-0.4527777777777778,-0.11388888888888889,1,0,0,4.8217218999925535,call3,-0.011111111111111112,-0.3472222222222222,1,0,0,5.369705500008422,colour4,0.4013888888888889,-0.26666666666666666,1,0,0,5.857554899994284,number4,True,True,True,39,4,2019_Nov_20_1602,MA_Theta_Exp,3.0.7,59.916045637552344,
video/Experiment/zh_sp07_Ti_Ge_3_NVocInAudio_GlobalThetaInVideo.avi,vocoded,plusVideo,sp07,Ti,Ge,3,0,1,flow/blocks/NVocInAudio_GlobalThetaInVideo_A.csv,,,,,,,,,0,0,0,0,0,20,20,18,-0.4388888888888889,-0.10972222222222222,1,0,0,5.229340200006845,call3,-0.0125,0.3125,1,0,0,6.009059000003617,colour1,0.4013888888888889,-0.11944444444444445,1,0,0,6.787295299989637,number3,True,True,True,39,4,2019_Nov_20_1602,MA_Theta_Exp,3.0.7,59.916045637552344,
video/Experiment/zh_sp07_Un_We_1_NVocInAudio_GlobalThetaInVideo.avi,vocoded,plusVideo,sp07,Un,We,1,0,1,flow/blocks/NVocInAudio_GlobalThetaInVideo_A.csv,,,,,,,,,0,0,0,0,0,21,21,28,-0.42916666666666664,-0.3055555555555556,1,0,0,4.522087899997132,call4,0.005555555555555556,-0.3013888888888889,1,0,0,5.293424599993159,colour4,-0.3763888888888889,-0.3194444444444444,1,0,0,6.2482208000001265,number1,True,True,True,39,4,2019_Nov_20_1602,MA_Theta_Exp,3.0.7,59.916045637552344,
video/Experiment/zh_sp07_Dr_Gr_3_NVocInAudio_GlobalThetaInVideo.avi,vocoded,plusVideo,sp07,Dr,Gr,3,0,1,flow/blocks/NVocInAudio_GlobalThetaInVideo_A.csv,,,,,,,,,0,0,0,0,0,22,22,6,-0.3958333333333333,0.09166666666666666,1,0,0,4.9907034000061685,call2,-0.06666666666666667,0.1,1,0,0,5.424407500002417,colour2,0.42916666666666664,-0.11805555555555555,1,0,0,6.247704399997019,number3,True,True,True,39,4,2019_Nov_20_1602,MA_Theta_Exp,3.0.7,59.916045637552344,
video/Experiment/zh_sp01_Ti_Ge_2_NVocInAudio_GlobalThetaInVideo.avi,vocoded,plusVideo,sp01,Ti,Ge,2,0,1,flow/blocks/NVocInAudio_GlobalThetaInVideo_A.csv,,,,,,,,,0,0,0,0,0,23,23,1,-0.3875,-0.13194444444444445,1,0,0,5.0509959000046365,call3,0.020833333333333332,0.2625,1,0,0,8.084911199999624,colour1,0.35,0.08055555555555556,1,0,0,8.678889000002528,number2,True,True,True,39,4,2019_Nov_20_1602,MA_Theta_Exp,3.0.7,59.916045637552344,
video/Experiment/zh_sp01_Ti_Gr_4_NVocInAudio_GlobalThetaInVideo.avi,vocoded,plusVideo,sp01,Ti,Gr,4,0,1,flow/blocks/NVocInAudio_GlobalThetaInVideo_A.csv,,,,,,,,,0,0,0,0,0,24,24,7,-0.4013888888888889,-0.11527777777777778,1,0,0,6.05433460000495,call3,-0.025,0.10138888888888889,1,0,0,6.767679700002191,colour2,0.38333333333333336,-0.325,1,0,0,7.4183533000032185,number4,True,True,True,39,4,2019_Nov_20_1602,MA_Theta_Exp,3.0.7,59.916045637552344,
video/Experiment/zh_sp07_Dr_Gr_2_NVocInAudio_GlobalThetaInVideo.avi,vocoded,plusVideo,sp07,Dr,Gr,2,0,1,flow/blocks/NVocInAudio_GlobalThetaInVideo_A.csv,,,,,,,,,0,0,0,0,0,25,25,5,-0.4152777777777778,0.08611111111111111,1,0,0,5.071023800002877,call2,0.02361111111111111,0.0875,1,0,0,5.746347400010563,colour2,0.3625,0.10833333333333334,1,0,0,6.304011000000173,number2,True,True,True,39,4,2019_Nov_20_1602,MA_Theta_Exp,3.0.7,59.916045637552344,
video/Experiment/zh_sp01_Ad_Ro_1_NVocInAudio_GlobalThetaInVideo.avi,vocoded,plusVideo,sp01,Ad,Ro,1,0,1,flow/blocks/NVocInAudio_GlobalThetaInVideo_A.csv,,,,,,,,,0,0,0,0,0,26,26,8,-0.4152777777777778,0.30833333333333335,1,0,0,5.674712399995769,call1,-0.08611111111111111,-0.06666666666666667,1,0,0,6.317658999993,colour3,0.3888888888888889,0.3013888888888889,1,0,0,7.432894599987776,number1,True,True,True,39,4,2019_Nov_20_1602,MA_Theta_Exp,3.0.7,59.916045637552344,
video/Experiment/zh_sp01_Dr_Ro_2_NVocInAudio_GlobalThetaInVideo.avi,vocoded,plusVideo,sp01,Dr,Ro,2,0,1,flow/blocks/NVocInAudio_GlobalThetaInVideo_A.csv,,,,,,,,,0,0,0,0,0,27,27,9,-0.4236111111111111,0.31666666666666665,1,0,0,5.332598699998925,call1,0.020833333333333332,-0.10277777777777777,1,0,0,6.0404056000115816,colour3,0.3625,0.08333333333333333,1,0,0,6.570893500000238,number2,False,True,True,39,4,2019_Nov_20_1602,MA_Theta_Exp,3.0.7,59.916045637552344,
video/Experiment/zh_sp01_Ad_We_3_NVocInAudio_GlobalThetaInVideo.avi,vocoded,plusVideo,sp01,Ad,We,3,0,1,flow/blocks/NVocInAudio_GlobalThetaInVideo_A.csv,,,,,,,,,0,0,0,0,0,28,28,30,-0.3958333333333333,0.2902777777777778,1,0,0,5.359364499992807,call1,-0.001388888888888889,-0.3597222222222222,1,0,0,6.09140550000302,colour4,0.3819444444444444,-0.13472222222222222,1,0,0,6.688116700010141,number3,True,True,True,39,4,2019_Nov_20_1602,MA_Theta_Exp,3.0.7,59.916045637552344,
video/Experiment/zh_sp01_Ad_Gr_3_NVocInAudio_GlobalThetaInVideo.avi,vocoded,plusVideo,sp01,Ad,Gr,3,0,1,flow/blocks/NVocInAudio_GlobalThetaInVideo_A.csv,,,,,,,,,0,0,0,0,0,29,29,22,-0.38333333333333336,0.34305555555555556,1,0,0,6.334499699994922,call1,0.018055555555555554,0.12777777777777777,1,0,0,7.1584424000029685,colour2,0.3888888888888889,-0.13055555555555556,1,0,0,7.717662100010784,number3,True,True,True,39,4,2019_Nov_20_1602,MA_Theta_Exp,3.0.7,59.916045637552344,
video/Experiment/zh_sp07_Ti_Ge_4_NVocInAudio_GlobalThetaInVideo.avi,vocoded,plusVideo,sp07,Ti,Ge,4,0,1,flow/blocks/NVocInAudio_GlobalThetaInVideo_A.csv,,,,,,,,,0,0,0,0,0,30,30,3,-0.39861111111111114,-0.10833333333333334,1,0,0,4.685230299990508,call3,-0.044444444444444446,0.31805555555555554,1,0,0,5.472036399994977,colour1,0.4125,-0.3458333333333333,1,0,0,6.478681799999322,number4,True,True,True,39,4,2019_Nov_20_1602,MA_Theta_Exp,3.0.7,59.916045637552344,
video/Experiment/zh_sp01_Un_Gr_1_NVocInAudio_GlobalThetaInVideo.avi,vocoded,plusVideo,sp01,Un,Gr,1,0,1,flow/blocks/NVocInAudio_GlobalThetaInVideo_A.csv,,,,,,,,,0,0,0,0,0,31,31,20,-0.4027777777777778,-0.34444444444444444,1,0,0,5.452541499995277,call4,0.008333333333333333,0.09166666666666666,1,0,0,6.106039399994188,colour2,0.38472222222222224,0.35,1,0,0,6.761835299999802,number1,True,True,True,39,4,2019_Nov_20_1602,MA_Theta_Exp,3.0.7,59.916045637552344,
video/Experiment/zh_sp07_Ti_We_3_NoThetaInAudio_NoVideo.avi,noTheta,noVideo,sp07,Ti,We,3,1,4,flow/blocks/NoThetaInAudio_NoVideo_B.csv,,,,,,,,,0,1,1,1,0,0,0,30,0.001388888888888889,0.08055555555555556,1,0,0,5.025100500002736,call3,0.013888888888888888,0.08333333333333333,1,0,0,8.385271099992679,colour2,0.375,-0.1111111111111111,1,0,0,8.819408099996508,number3,True,False,True,39,4,2019_Nov_20_1602,MA_Theta_Exp,3.0.7,59.916045637552344,
video/Experiment/zh_sp01_Dr_Gr_1_NoThetaInAudio_NoVideo.avi,noTheta,noVideo,sp01,Dr,Gr,1,1,4,flow/blocks/NoThetaInAudio_NoVideo_B.csv,,,,,,,,,0,1,1,1,0,1,1,20,-0.3902777777777778,0.07916666666666666,1,0,0,5.897448400006397,call2,0.0,0.08472222222222223,1,0,0,6.533904900003108,colour2,0.4263888888888889,0.30416666666666664,1,0,0,7.142869999996037,number1,True,True,True,39,4,2019_Nov_20_1602,MA_Theta_Exp,3.0.7,59.916045637552344,
video/Experiment/zh_sp07_Un_Ge_1_NoThetaInAudio_NoVideo.avi,noTheta,noVideo,sp07,Un,Ge,1,1,4,flow/blocks/NoThetaInAudio_NoVideo_B.csv,,,,,,,,,0,1,1,1,0,2,2,0,-0.375,-0.11388888888888889,1,0,0,5.078435300005367,call3,-0.018055555555555554,0.32916666666666666,1,0,0,5.808321100004832,colour1,0.45694444444444443,0.33055555555555555,1,0,0,6.32734660001006,number1,False,True,True,39,4,2019_Nov_20_1602,MA_Theta_Exp,3.0.7,59.916045637552344,
video/Experiment/zh_sp01_Un_Gr_2_NoThetaInAudio_NoVideo.avi,noTheta,noVideo,sp01,Un,Gr,2,1,4,flow/blocks/NoThetaInAudio_NoVideo_B.csv,,,,,,,,,0,1,1,1,0,3,3,5,-0.38472222222222224,-0.35694444444444445,1,0,0,5.507824799991795,call4,0.002777777777777778,0.075,1,0,0,6.23194089999015,colour2,0.4444444444444444,0.09583333333333334,1,0,0,6.778717699999106,number2,True,True,True,39,4,2019_Nov_20_1602,MA_Theta_Exp,3.0.7,59.916045637552344,
video/Experiment/zh_sp01_Un_Ge_4_NoThetaInAudio_NoVideo.avi,noTheta,noVideo,sp01,Un,Ge,4,1,4,flow/blocks/NoThetaInAudio_NoVideo_B.csv,,,,,,,,,0,1,1,1,0,4,4,19,-0.4097222222222222,-0.3347222222222222,1,0,0,6.038127399995574,call4,0.018055555555555554,0.31805555555555554,1,0,0,6.789977799999178,colour1,0.39444444444444443,-0.10277777777777777,1,0,0,9.14160930000071,number3,True,True,False,39,4,2019_Nov_20_1602,MA_Theta_Exp,3.0.7,59.916045637552344,
video/Experiment/zh_sp01_Ti_Ro_1_NoThetaInAudio_NoVideo.avi,noTheta,noVideo,sp01,Ti,Ro,1,1,4,flow/blocks/NoThetaInAudio_NoVideo_B.csv,,,,,,,,,0,1,1,1,0,5,5,8,-0.3888888888888889,-0.10138888888888889,1,0,0,5.994727900004364,call3,-0.03611111111111111,0.125,1,0,0,6.460462199989706,colour2,0.44166666666666665,0.325,1,0,0,6.965702000001329,number1,True,False,True,39,4,2019_Nov_20_1602,MA_Theta_Exp,3.0.7,59.916045637552344,
video/Experiment/zh_sp07_Ad_Gr_4_NoThetaInAudio_NoVideo.avi,noTheta,noVideo,sp07,Ad,Gr,4,1,4,flow/blocks/NoThetaInAudio_NoVideo_B.csv,,,,,,,,,0,1,1,1,0,6,6,7,-0.39444444444444443,0.0763888888888889,1,0,0,5.033005199991749,call2,-0.03333333333333333,0.08194444444444444,1,0,0,5.543648699996993,colour2,0.3958333333333333,-0.2763888888888889,1,0,0,6.057110900001135,number4,False,True,True,39,4,2019_Nov_20_1602,MA_Theta_Exp,3.0.7,59.916045637552344,
video/Experiment/zh_sp07_Dr_We_4_NoThetaInAudio_NoVideo.avi,noTheta,noVideo,sp07,Dr,We,4,1,4,flow/blocks/NoThetaInAudio_NoVideo_B.csv,,,,,,,,,0,1,1,1,0,7,7,15,-0.4097222222222222,0.09166666666666666,1,0,0,5.9701226000033785,call2,0.004166666666666667,0.08333333333333333,1,0,0,7.126455399993574,colour2,0.3625,-0.30277777777777776,1,0,0,8.123614099997212,number4,True,False,True,39,4,2019_Nov_20_1602,MA_Theta_Exp,3.0.7,59.916045637552344,
video/Experiment/zh_sp01_Dr_We_1_NoThetaInAudio_NoVideo.avi,noTheta,noVideo,sp01,Dr,We,1,1,4,flow/blocks/NoThetaInAudio_NoVideo_B.csv,,,,,,,,,0,1,1,1,0,8,8,28,-0.40555555555555556,0.09305555555555556,1,0,0,5.357143000001088,call2,-0.016666666666666666,-0.28194444444444444,1,0,0,6.128744900008314,colour4,0.3736111111111111,0.3236111111111111,1,0,0,6.893080399997416,number1,True,True,True,39,4,2019_Nov_20_1602,MA_Theta_Exp,3.0.7,59.916045637552344,
video/Experiment/zh_sp07_Ti_We_2_NoThetaInAudio_NoVideo.avi,noTheta,noVideo,sp07,Ti,We,2,1,4,flow/blocks/NoThetaInAudio_NoVideo_B.csv,,,,,,,,,0,1,1,1,0,9,9,29,-0.3736111111111111,-0.12222222222222222,1,0,0,4.665369099995587,call3,0.016666666666666666,0.07222222222222222,1,0,0,5.233808899996802,colour2,0.3388888888888889,-0.11666666666666667,1,0,0,5.709798200012301,number3,True,False,False,39,4,2019_Nov_20_1602,MA_Theta_Exp,3.0.7,59.916045637552344,
video/Experiment/zh_sp01_Dr_Ge_3_NoThetaInAudio_NoVideo.avi,noTheta,noVideo,sp01,Dr,Ge,3,1,4,flow/blocks/NoThetaInAudio_NoVideo_B.csv,,,,,,,,,0,1,1,1,0,10,10,2,-0.4166666666666667,0.10138888888888889,1,0,0,5.330004300005385,call2,0.013888888888888888,0.3736111111111111,1,0,0,6.063036099993042,colour1,0.375,-0.12083333333333333,1,0,0,7.477919700002531,number3,True,True,True,39,4,2019_Nov_20_1602,MA_Theta_Exp,3.0.7,59.916045637552344,
video/Experiment/zh_sp01_Dr_Ro_1_NoThetaInAudio_NoVideo.avi,noTheta,noVideo,sp01,Dr,Ro,1,1,4,flow/blocks/NoThetaInAudio_NoVideo_B.csv,,,,,,,,,0,1,1,1,0,11,11,24,-0.45555555555555555,0.13194444444444445,1,0,0,5.1985929000074975,call2,0.016666666666666666,-0.09583333333333334,1,0,0,5.987454500005697,colour3,0.3902777777777778,0.30277777777777776,1,0,0,6.626995400001761,number1,True,True,True,39,4,2019_Nov_20_1602,MA_Theta_Exp,3.0.7,59.916045637552344,
video/Experiment/zh_sp07_Un_Ro_4_NoThetaInAudio_NoVideo.avi,noTheta,noVideo,sp07,Un,Ro,4,1,4,flow/blocks/NoThetaInAudio_NoVideo_B.csv,,,,,,,,,0,1,1,1,0,12,12,27,-0.35138888888888886,-0.3194444444444444,1,0,0,5.153319400007604,call4,-0.018055555555555554,-0.14166666666666666,1,0,0,5.602775500010466,colour3,0.44305555555555554,-0.07361111111111111,1,0,0,6.091093899987754,number3,True,True,False,39,4,2019_Nov_20_1602,MA_Theta_Exp,3.0.7,59.916045637552344,
video/Experiment/zh_sp01_Ad_Ge_1_NoThetaInAudio_NoVideo.avi,noTheta,noVideo,sp01,Ad,Ge,1,1,4,flow/blocks/NoThetaInAudio_NoVideo_B.csv,,,,,,,,,0,1,1,1,0,13,13,16,-0.39861111111111114,0.30277777777777776,1,0,0,5.274941499999841,call1,-0.04027777777777778,0.325,1,0,0,6.093543299997691,colour1,0.4597222222222222,0.325,1,0,0,6.855060900008539,number1,True,True,True,39,4,2019_Nov_20_1602,MA_Theta_Exp,3.0.7,59.916045637552344,
video/Experiment/zh_sp07_Ti_Gr_2_NoThetaInAudio_NoVideo.avi,noTheta,noVideo,sp07,Ti,Gr,2,1,4,flow/blocks/NoThetaInAudio_NoVideo_B.csv,,,,,,,,,0,1,1,1,0,14,14,21,-0.36666666666666664,-0.11805555555555555,1,0,0,4.7776891000103205,call3,0.06111111111111111,0.11805555555555555,1,0,0,5.300898799992865,colour2,0.34305555555555556,0.12222222222222222,1,0,0,5.719952400002512,number2,True,True,True,39,4,2019_Nov_20_1602,MA_Theta_Exp,3.0.7,59.916045637552344,
video/Experiment/zh_sp01_Ti_Gr_3_NoThetaInAudio_NoVideo.avi,noTheta,noVideo,sp01,Ti,Gr,3,1,4,flow/blocks/NoThetaInAudio_NoVideo_B.csv,,,,,,,,,0,1,1,1,0,15,15,22,-0.4097222222222222,-0.12083333333333333,1,0,0,5.073237399992649,call3,-0.005555555555555556,0.0875,1,0,0,5.702039399999194,colour2,0.4166666666666667,-0.11944444444444445,1,0,0,6.195881000006921,number3,True,True,True,39,4,2019_Nov_20_1602,MA_Theta_Exp,3.0.7,59.916045637552344,
video/Experiment/zh_sp07_Ad_Ro_3_NoThetaInAudio_NoVideo.avi,noTheta,noVideo,sp07,Ad,Ro,3,1,4,flow/blocks/NoThetaInAudio_NoVideo_B.csv,,,,,,,,,0,1,1,1,0,16,16,10,-0.37916666666666665,-0.31666666666666665,1,0,0,4.597587399999611,call4,0.016666666666666666,-0.3125,1,0,0,4.976567100005923,colour4,0.3597222222222222,-0.1486111111111111,1,0,0,5.36232800000289,number3,False,False,True,39,4,2019_Nov_20_1602,MA_Theta_Exp,3.0.7,59.916045637552344,
video/Experiment/zh_sp07_Ad_Ge_4_NoThetaInAudio_NoVideo.avi,noTheta,noVideo,sp07,Ad,Ge,4,1,4,flow/blocks/NoThetaInAudio_NoVideo_B.csv,,,,,,,,,0,1,1,1,0,17,17,3,-0.40694444444444444,0.27361111111111114,1,0,0,5.383434099989245,call1,0.016666666666666666,0.2791666666666667,1,0,0,6.408107299997937,colour1,0.4388888888888889,-0.3,1,0,0,7.052626499993494,number4,True,True,True,39,4,2019_Nov_20_1602,MA_Theta_Exp,3.0.7,59.916045637552344,
video/Experiment/zh_sp07_Ti_Gr_1_NoThetaInAudio_NoVideo.avi,noTheta,noVideo,sp07,Ti,Gr,1,1,4,flow/blocks/NoThetaInAudio_NoVideo_B.csv,,,,,,,,,0,1,1,1,0,18,18,4,-0.4013888888888889,-0.10138888888888889,1,0,0,6.004427499996382,call3,-0.016666666666666666,0.10833333333333334,1,0,0,6.590160799998557,colour2,0.3958333333333333,0.2833333333333333,1,0,0,7.479777800006559,number1,True,True,True,39,4,2019_Nov_20_1602,MA_Theta_Exp,3.0.7,59.916045637552344,
video/Experiment/zh_sp07_Ti_Ro_4_NoThetaInAudio_NoVideo.avi,noTheta,noVideo,sp07,Ti,Ro,4,1,4,flow/blocks/NoThetaInAudio_NoVideo_B.csv,,,,,,,,,0,1,1,1,0,19,19,11,-0.3875,-0.12638888888888888,1,0,0,4.606238799999119,call3,0.029166666666666667,-0.10416666666666667,1,0,0,5.068041799997445,colour3,0.4236111111111111,-0.2972222222222222,1,0,0,5.608111399997142,number4,True,True,True,39,4,2019_Nov_20_1602,MA_Theta_Exp,3.0.7,59.916045637552344,
video/Experiment/zh_sp07_Un_Gr_3_NoThetaInAudio_NoVideo.avi,noTheta,noVideo,sp07,Un,Gr,3,1,4,flow/blocks/NoThetaInAudio_NoVideo_B.csv,,,,,,,,,0,1,1,1,0,20,20,6,-0.39166666666666666,-0.3277777777777778,1,0,0,4.504075100005139,call4,0.016666666666666666,0.0875,1,0,0,5.269871399999829,colour2,0.4027777777777778,-0.1,1,0,0,6.008340600004885,number3,True,True,True,39,4,2019_Nov_20_1602,MA_Theta_Exp,3.0.7,59.916045637552344,
video/Experiment/zh_sp01_Un_Gr_4_NoThetaInAudio_NoVideo.avi,noTheta,noVideo,sp01,Un,Gr,4,1,4,flow/blocks/NoThetaInAudio_NoVideo_B.csv,,,,,,,,,0,1,1,1,0,21,21,23,-0.4125,-0.12916666666666668,1,0,0,5.967990100005409,call3,-0.041666666666666664,0.08888888888888889,1,0,0,6.470583100002841,colour2,0.47638888888888886,-0.3111111111111111,1,0,0,7.064030800000182,number4,False,True,True,39,4,2019_Nov_20_1602,MA_Theta_Exp,3.0.7,59.916045637552344,
video/Experiment/zh_sp01_Un_We_2_NoThetaInAudio_NoVideo.avi,noTheta,noVideo,sp01,Un,We,2,1,4,flow/blocks/NoThetaInAudio_NoVideo_B.csv,,,,,,,,,0,1,1,1,0,22,22,13,-0.36527777777777776,-0.1388888888888889,1,0,0,5.410163599997759,call3,0.018055555555555554,-0.30416666666666664,1,0,0,5.943624599996838,colour4,0.4125,0.125,1,0,0,6.682400600009714,number2,False,True,True,39,4,2019_Nov_20_1602,MA_Theta_Exp,3.0.7,59.916045637552344,
video/Experiment/zh_sp01_Ad_Ge_3_NoThetaInAudio_NoVideo.avi,noTheta,noVideo,sp01,Ad,Ge,3,1,4,flow/blocks/NoThetaInAudio_NoVideo_B.csv,,,,,,,,,0,1,1,1,0,23,23,18,-0.3902777777777778,0.30833333333333335,1,0,0,4.8670653000008315,call1,-0.06388888888888888,0.30833333333333335,1,0,0,5.283731200004695,colour1,0.38472222222222224,-0.11944444444444445,1,0,0,5.91042670000752,number3,True,True,True,39,4,2019_Nov_20_1602,MA_Theta_Exp,3.0.7,59.916045637552344,
video/Experiment/zh_sp01_Ad_We_4_NoThetaInAudio_NoVideo.avi,noTheta,noVideo,sp01,Ad,We,4,1,4,flow/blocks/NoThetaInAudio_NoVideo_B.csv,,,,,,,,,0,1,1,1,0,24,24,31,-0.40694444444444444,0.3236111111111111,1,0,0,5.224547600009828,call1,0.005555555555555556,-0.32083333333333336,1,0,0,5.933126400006586,colour4,0.4097222222222222,-0.3138888888888889,1,0,0,6.383235500004957,number4,True,True,True,39,4,2019_Nov_20_1602,MA_Theta_Exp,3.0.7,59.916045637552344,
video/Experiment/zh_sp07_Ad_Ro_2_NoThetaInAudio_NoVideo.avi,noTheta,noVideo,sp07,Ad,Ro,2,1,4,flow/blocks/NoThetaInAudio_NoVideo_B.csv,,,,,,,,,0,1,1,1,0,25,25,25,-0.44583333333333336,0.3013888888888889,1,0,0,4.962700799995218,call1,-0.043055555555555555,-0.08472222222222223,1,0,0,5.50875530000485,colour3,0.375,0.09722222222222222,1,0,0,6.048422499996377,number2,True,True,True,39,4,2019_Nov_20_1602,MA_Theta_Exp,3.0.7,59.916045637552344,
video/Experiment/zh_sp07_Un_Ro_2_NoThetaInAudio_NoVideo.avi,noTheta,noVideo,sp07,Un,Ro,2,1,4,flow/blocks/NoThetaInAudio_NoVideo_B.csv,,,,,,,,,0,1,1,1,0,26,26,9,-0.41944444444444445,-0.35,1,0,0,4.804022399999667,call4,-0.02638888888888889,-0.12083333333333333,1,0,0,5.348453500002506,colour3,0.37916666666666665,0.12222222222222222,1,0,0,5.852452000006451,number2,True,True,True,39,4,2019_Nov_20_1602,MA_Theta_Exp,3.0.7,59.916045637552344,
video/Experiment/zh_sp01_Ti_We_1_NoThetaInAudio_NoVideo.avi,noTheta,noVideo,sp01,Ti,We,1,1,4,flow/blocks/NoThetaInAudio_NoVideo_B.csv,,,,,,,,,0,1,1,1,0,27,27,12,-0.39166666666666666,-0.10972222222222222,1,0,0,6.438608199998271,call3,0.058333333333333334,-0.3625,1,0,0,7.588353200000711,colour4,0.4152777777777778,0.3125,1,0,0,8.386487199997646,number1,True,True,True,39,4,2019_Nov_20_1602,MA_Theta_Exp,3.0.7,59.916045637552344,
video/Experiment/zh_sp07_Dr_We_3_NoThetaInAudio_NoVideo.avi,noTheta,noVideo,sp07,Dr,We,3,1,4,flow/blocks/NoThetaInAudio_NoVideo_B.csv,,,,,,,,,0,1,1,1,0,28,28,14,-0.4041666666666667,-0.09861111111111111,1,0,0,4.630658699999913,call3,0.022222222222222223,-0.36527777777777776,1,0,0,5.270319499992183,colour4,0.38055555555555554,-0.12083333333333333,1,0,0,5.987155299997539,number3,False,True,True,39,4,2019_Nov_20_1602,MA_Theta_Exp,3.0.7,59.916045637552344,
video/Experiment/zh_sp01_Ad_Ge_2_NoThetaInAudio_NoVideo.avi,noTheta,noVideo,sp01,Ad,Ge,2,1,4,flow/blocks/NoThetaInAudio_NoVideo_B.csv,,,,,,,,,0,1,1,1,0,29,29,1,-0.41944444444444445,0.29444444444444445,1,0,0,5.880567799991695,call1,0.0375,0.3,1,0,0,7.836450300004799,colour1,0.4125,0.08611111111111111,1,0,0,9.616797099995892,number2,True,True,True,39,4,2019_Nov_20_1602,MA_Theta_Exp,3.0.7,59.916045637552344,
video/Experiment/zh_sp07_Dr_Ro_3_NoThetaInAudio_NoVideo.avi,noTheta,noVideo,sp07,Dr,Ro,3,1,4,flow/blocks/NoThetaInAudio_NoVideo_B.csv,,,,,,,,,0,1,1,1,0,30,30,26,-0.4361111111111111,0.3125,1,0,0,4.601077600003919,call1,-0.004166666666666667,-0.10833333333333334,1,0,0,5.395878300012555,colour3,0.3611111111111111,-0.1111111111111111,1,0,0,6.8246658999996725,number3,False,True,True,39,4,2019_Nov_20_1602,MA_Theta_Exp,3.0.7,59.916045637552344,
video/Experiment/zh_sp01_Dr_Ge_2_NoThetaInAudio_NoVideo.avi,noTheta,noVideo,sp01,Dr,Ge,2,1,4,flow/blocks/NoThetaInAudio_NoVideo_B.csv,,,,,,,,,0,1,1,1,0,31,31,17,-0.4027777777777778,-0.11666666666666667,1,0,0,5.203651599993464,call3,-0.018055555555555554,-0.09861111111111111,1,0,0,5.803326199995354,colour3,0.42916666666666664,0.11666666666666667,1,0,0,6.941576500001247,number2,False,False,True,39,4,2019_Nov_20_1602,MA_Theta_Exp,3.0.7,59.916045637552344,
video/Experiment/zh_sp01_Dr_Gr_2_NVocInAudio_NoVideo.avi,vocoded,noVideo,sp01,Dr,Gr,2,2,2,flow/blocks/NVocInAudio_NoVideo_A.csv,,,,,,,,,0,2,2,2,0,0,0,5,-0.38333333333333336,0.09583333333333334,1,0,0,5.8970616000005975,call2,-0.043055555555555555,0.10277777777777777,1,0,0,6.352300499987905,colour2,0.37083333333333335,0.11388888888888889,1,0,0,6.861074799991911,number2,True,True,True,39,4,2019_Nov_20_1602,MA_Theta_Exp,3.0.7,59.916045637552344,
video/Experiment/zh_sp01_Un_Ro_3_NVocInAudio_NoVideo.avi,vocoded,noVideo,sp01,Un,Ro,3,2,2,flow/blocks/NVocInAudio_NoVideo_A.csv,,,,,,,,,0,2,2,2,0,1,1,26,-0.41805555555555557,-0.3125,1,0,0,5.093554599996423,call4,-0.06805555555555555,-0.16111111111111112,1,0,0,5.5632083999953466,colour3,0.39444444444444443,-0.08055555555555556,1,0,0,6.11192550000851,number3,True,True,True,39,4,2019_Nov_20_1602,MA_Theta_Exp,3.0.7,59.916045637552344,
video/Experiment/zh_sp07_Un_We_1_NVocInAudio_NoVideo.avi,vocoded,noVideo,sp07,Un,We,1,2,2,flow/blocks/NVocInAudio_NoVideo_A.csv,,,,,,,,,0,2,2,2,0,2,2,28,-0.37777777777777777,-0.31666666666666665,1,0,0,4.421456500000204,call4,-0.015277777777777777,-0.3263888888888889,1,0,0,4.878590699998313,colour4,0.37777777777777777,0.2986111111111111,1,0,0,5.5124655999970855,number1,True,True,True,39,4,2019_Nov_20_1602,MA_Theta_Exp,3.0.7,59.916045637552344,
video/Experiment/zh_sp01_Ti_Ge_3_NVocInAudio_NoVideo.avi,vocoded,noVideo,sp01,Ti,Ge,3,2,2,flow/blocks/NVocInAudio_NoVideo_A.csv,,,,,,,,,0,2,2,2,0,3,3,18,-0.35694444444444445,-0.10694444444444444,1,0,0,5.177289300001576,call3,0.0,0.31805555555555554,1,0,0,5.742738500004634,colour1,0.44027777777777777,-0.07777777777777778,1,0,0,6.463125099995523,number3,True,True,True,39,4,2019_Nov_20_1602,MA_Theta_Exp,3.0.7,59.916045637552344,
video/Experiment/zh_sp07_Ad_We_3_NVocInAudio_NoVideo.avi,vocoded,noVideo,sp07,Ad,We,3,2,2,flow/blocks/NVocInAudio_NoVideo_A.csv,,,,,,,,,0,2,2,2,0,4,4,30,-0.35833333333333334,0.30833333333333335,1,0,0,4.488123200004338,call1,-0.009722222222222222,-0.3236111111111111,1,0,0,5.3639555999980075,colour4,0.4083333333333333,-0.09722222222222222,1,0,0,6.41913540000678,number3,True,True,True,39,4,2019_Nov_20_1602,MA_Theta_Exp,3.0.7,59.916045637552344,
video/Experiment/zh_sp01_Ad_We_1_NVocInAudio_NoVideo.avi,vocoded,noVideo,sp01,Ad,We,1,2,2,flow/blocks/NVocInAudio_NoVideo_A.csv,,,,,,,,,0,2,2,2,0,5,5,12,-0.4444444444444444,0.31666666666666665,1,0,0,5.017576800004463,call1,-0.015277777777777777,-0.2722222222222222,1,0,0,5.714762100004009,colour4,0.3861111111111111,0.32916666666666666,1,0,0,6.382921600001282,number1,True,True,True,39,4,2019_Nov_20_1602,MA_Theta_Exp,3.0.7,59.916045637552344,
video/Experiment/zh_sp07_Un_We_4_NVocInAudio_NoVideo.avi,vocoded,noVideo,sp07,Un,We,4,2,2,flow/blocks/NVocInAudio_NoVideo_A.csv,,,,,,,,,0,2,2,2,0,6,6,15,-0.4388888888888889,-0.29444444444444445,1,0,0,4.571087999996962,call4,-0.059722222222222225,-0.33194444444444443,1,0,0,5.023420500001521,colour4,0.5305555555555556,-0.30416666666666664,1,0,0,5.634836500001256,number4,True,True,True,39,4,2019_Nov_20_1602,MA_Theta_Exp,3.0.7,59.916045637552344,
video/Experiment/zh_sp07_Un_Gr_1_NVocInAudio_NoVideo.avi,vocoded,noVideo,sp07,Un,Gr,1,2,2,flow/blocks/NVocInAudio_NoVideo_A.csv,,,,,,,,,0,2,2,2,0,7,7,20,-0.375,-0.3055555555555556,1,0,0,4.656107300004805,call4,-0.030555555555555555,0.06944444444444445,1,0,0,5.263946100007161,colour2,0.3888888888888889,0.30972222222222223,1,0,0,6.32386969999061,number1,True,True,True,39,4,2019_Nov_20_1602,MA_Theta_Exp,3.0.7,59.916045637552344,
video/Experiment/zh_sp07_Ad_Gr_3_NVocInAudio_NoVideo.avi,vocoded,noVideo,sp07,Ad,Gr,3,2,2,flow/blocks/NVocInAudio_NoVideo_A.csv,,,,,,,,,0,2,2,2,0,8,8,22,-0.35,0.2833333333333333,1,0,0,4.938258900001529,call1,-0.06666666666666667,0.10555555555555556,1,0,0,5.495693999997457,colour2,0.3958333333333333,-0.10555555555555556,1,0,0,6.205520200004685,number3,True,True,True,39,4,2019_Nov_20_1602,MA_Theta_Exp,3.0.7,59.916045637552344,
video/Experiment/zh_sp07_Dr_Ro_4_NVocInAudio_NoVideo.avi,vocoded,noVideo,sp07,Dr,Ro,4,2,2,flow/blocks/NVocInAudio_NoVideo_A.csv,,,,,,,,,0,2,2,2,0,9,9,27,-0.3375,0.0875,1,0,0,4.698061100003542,call2,-0.041666666666666664,-0.13055555555555556,1,0,0,5.217177399987122,colour3,0.4,-0.3236111111111111,1,0,0,5.817142599989893,number4,True,True,True,39,4,2019_Nov_20_1602,MA_Theta_Exp,3.0.7,59.916045637552344,
video/Experiment/zh_sp01_Dr_Ge_1_NVocInAudio_NoVideo.avi,vocoded,noVideo,sp01,Dr,Ge,1,2,2,flow/blocks/NVocInAudio_NoVideo_A.csv,,,,,,,,,0,2,2,2,0,10,10,0,-0.38472222222222224,0.08055555555555556,1,0,0,5.191301899991231,call2,-0.0125,0.3013888888888889,1,0,0,5.736519699989003,colour1,0.4027777777777778,0.30277777777777776,1,0,0,6.547356100010802,number1,True,True,True,39,4,2019_Nov_20_1602,MA_Theta_Exp,3.0.7,59.916045637552344,
video/Experiment/zh_sp01_Ad_Gr_2_NVocInAudio_NoVideo.avi,vocoded,noVideo,sp01,Ad,Gr,2,2,2,flow/blocks/NVocInAudio_NoVideo_A.csv,,,,,,,,,0,2,2,2,0,11,11,21,-0.3638888888888889,0.3013888888888889,1,0,0,5.1511914000002434,call1,0.05138888888888889,0.05416666666666667,1,0,0,5.799566400004551,colour2,0.36666666666666664,0.08194444444444444,1,0,0,6.302747800000361,number2,True,True,True,39,4,2019_Nov_20_1602,MA_Theta_Exp,3.0.7,59.916045637552344,
video/Experiment/zh_sp01_Ti_Ro_3_NVocInAudio_NoVideo.avi,vocoded,noVideo,sp01,Ti,Ro,3,2,2,flow/blocks/NVocInAudio_NoVideo_A.csv,,,,,,,,,0,2,2,2,0,12,12,10,-0.3875,-0.08333333333333333,1,0,0,5.022680900001433,call3,0.0625,-0.09027777777777778,1,0,0,5.533494899995276,colour3,0.3819444444444444,-0.09166666666666666,1,0,0,6.044896999999764,number3,True,True,True,39,4,2019_Nov_20_1602,MA_Theta_Exp,3.0.7,59.916045637552344,
video/Experiment/zh_sp01_Dr_Ro_2_NVocInAudio_NoVideo.avi,vocoded,noVideo,sp01,Dr,Ro,2,2,2,flow/blocks/NVocInAudio_NoVideo_A.csv,,,,,,,,,0,2,2,2,0,13,13,9,-0.40694444444444444,0.09166666666666666,1,0,0,6.821909600010258,call2,0.03888888888888889,-0.1125,1,0,0,7.906986099987989,colour3,0.3416666666666667,0.10694444444444444,1,0,0,8.402431899987278,number2,True,True,True,39,4,2019_Nov_20_1602,MA_Theta_Exp,3.0.7,59.916045637552344,
video/Experiment/zh_sp07_Dr_We_2_NVocInAudio_NoVideo.avi,vocoded,noVideo,sp07,Dr,We,2,2,2,flow/blocks/NVocInAudio_NoVideo_A.csv,,,,,,,,,0,2,2,2,0,14,14,13,-0.37916666666666665,0.09305555555555556,1,0,0,4.7518874000088545,call2,0.03333333333333333,-0.3263888888888889,1,0,0,5.363413300001412,colour4,0.4097222222222222,0.10277777777777777,1,0,0,5.902427900000475,number2,True,True,True,39,4,2019_Nov_20_1602,MA_Theta_Exp,3.0.7,59.916045637552344,
video/Experiment/zh_sp07_Ad_Ro_1_NVocInAudio_NoVideo.avi,vocoded,noVideo,sp07,Ad,Ro,1,2,2,flow/blocks/NVocInAudio_NoVideo_A.csv,,,,,,,,,0,2,2,2,0,15,15,8,-0.40694444444444444,0.31666666666666665,1,0,0,5.12095739999495,call1,0.027777777777777776,-0.13333333333333333,1,0,0,6.166195500001777,colour3,0.37916666666666665,0.2875,1,0,0,6.961014100001194,number1,True,True,True,39,4,2019_Nov_20_1602,MA_Theta_Exp,3.0.7,59.916045637552344,
video/Experiment/zh_sp07_Ad_We_2_NVocInAudio_NoVideo.avi,vocoded,noVideo,sp07,Ad,We,2,2,2,flow/blocks/NVocInAudio_NoVideo_A.csv,,,,,,,,,0,2,2,2,0,16,16,29,-0.42083333333333334,0.2916666666666667,1,0,0,4.964169999992009,call1,0.030555555555555555,0.06666666666666667,1,0,0,8.413032299999031,colour2,0.3819444444444444,0.09305555555555556,1,0,0,8.873104199999943,number2,True,False,True,39,4,2019_Nov_20_1602,MA_Theta_Exp,3.0.7,59.916045637552344,
video/Experiment/zh_sp07_Un_Ge_3_NVocInAudio_NoVideo.avi,vocoded,noVideo,sp07,Un,Ge,3,2,2,flow/blocks/NVocInAudio_NoVideo_A.csv,,,,,,,,,0,2,2,2,0,17,17,2,-0.4027777777777778,-0.3194444444444444,1,0,0,5.320161499999813,call4,0.027777777777777776,0.30416666666666664,1,0,0,5.967859399999725,colour1,0.4166666666666667,-0.15833333333333333,1,0,0,6.572307499998715,number3,True,True,True,39,4,2019_Nov_20_1602,MA_Theta_Exp,3.0.7,59.916045637552344,
video/Experiment/zh_sp07_Un_We_3_NVocInAudio_NoVideo.avi,vocoded,noVideo,sp07,Un,We,3,2,2,flow/blocks/NVocInAudio_NoVideo_A.csv,,,,,,,,,0,2,2,2,0,18,18,14,-0.3472222222222222,-0.3486111111111111,1,0,0,4.306499199999962,call4,-0.06111111111111111,-0.3347222222222222,1,0,0,4.73781130000134,colour4,0.39166666666666666,-0.08333333333333333,1,0,0,5.379206900004647,number3,True,True,True,39,4,2019_Nov_20_1602,MA_Theta_Exp,3.0.7,59.916045637552344,
video/Experiment/zh_sp07_Ti_Ge_2_NVocInAudio_NoVideo.avi,vocoded,noVideo,sp07,Ti,Ge,2,2,2,flow/blocks/NVocInAudio_NoVideo_A.csv,,,,,,,,,0,2,2,2,0,19,19,1,-0.4041666666666667,-0.1125,1,0,0,4.9731758999987505,call3,-0.030555555555555555,0.2833333333333333,1,0,0,5.7158198000106495,colour1,0.40555555555555556,0.10138888888888889,1,0,0,7.168932100001257,number2,True,True,True,39,4,2019_Nov_20_1602,MA_Theta_Exp,3.0.7,59.916045637552344,
video/Experiment/zh_sp01_Ad_Ro_4_NVocInAudio_NoVideo.avi,vocoded,noVideo,sp01,Ad,Ro,4,2,2,flow/blocks/NVocInAudio_NoVideo_A.csv,,,,,,,,,0,2,2,2,0,20,20,11,-0.4097222222222222,0.33055555555555555,1,0,0,5.8049515999882715,call1,-0.013888888888888888,-0.13194444444444445,1,0,0,6.461146900008316,colour3,0.4027777777777778,-0.3,1,0,0,7.048057899999549,number4,True,True,True,39,4,2019_Nov_20_1602,MA_Theta_Exp,3.0.7,59.916045637552344,
video/Experiment/zh_sp07_Ti_Ro_2_NVocInAudio_NoVideo.avi,vocoded,noVideo,sp07,Ti,Ro,2,2,2,flow/blocks/NVocInAudio_NoVideo_A.csv,,,,,,,,,0,2,2,2,0,21,21,25,-0.43333333333333335,-0.13333333333333333,1,0,0,4.478665700007696,call3,-0.04861111111111111,-0.08055555555555556,1,0,0,4.94944269998814,colour3,0.35,0.12083333333333333,1,0,0,5.485041799998726,number2,True,True,True,39,4,2019_Nov_20_1602,MA_Theta_Exp,3.0.7,59.916045637552344,
video/Experiment/zh_sp01_Ti_Gr_4_NVocInAudio_NoVideo.avi,vocoded,noVideo,sp01,Ti,Gr,4,2,2,flow/blocks/NVocInAudio_NoVideo_A.csv,,,,,,,,,0,2,2,2,0,22,22,7,-0.38472222222222224,-0.11805555555555555,1,0,0,5.234422900000936,call3,-0.043055555555555555,0.09444444444444444,1,0,0,5.810038200012059,colour2,0.37222222222222223,-0.2986111111111111,1,0,0,6.4164604999969015,number4,True,True,True,39,4,2019_Nov_20_1602,MA_Theta_Exp,3.0.7,59.916045637552344,
video/Experiment/zh_sp01_Ti_Ge_1_NVocInAudio_NoVideo.avi,vocoded,noVideo,sp01,Ti,Ge,1,2,2,flow/blocks/NVocInAudio_NoVideo_A.csv,,,,,,,,,0,2,2,2,0,23,23,16,-0.36527777777777776,-0.11944444444444445,1,0,0,5.3579711000056705,call3,-0.022222222222222223,0.2902777777777778,1,0,0,5.898157699994044,colour1,0.41805555555555557,0.3125,1,0,0,6.930611999996472,number1,True,True,True,39,4,2019_Nov_20_1602,MA_Theta_Exp,3.0.7,59.916045637552344,
video/Experiment/zh_sp01_Dr_Gr_3_NVocInAudio_NoVideo.avi,vocoded,noVideo,sp01,Dr,Gr,3,2,2,flow/blocks/NVocInAudio_NoVideo_A.csv,,,,,,,,,0,2,2,2,0,24,24,6,-0.41805555555555557,0.06666666666666667,1,0,0,5.079599999997299,call2,-0.059722222222222225,0.10416666666666667,1,0,0,5.591566600007354,colour2,0.3888888888888889,-0.12222222222222222,1,0,0,6.2490102000010666,number3,True,True,True,39,4,2019_Nov_20_1602,MA_Theta_Exp,3.0.7,59.916045637552344,
video/Experiment/zh_sp01_Dr_Ge_4_NVocInAudio_NoVideo.avi,vocoded,noVideo,sp01,Dr,Ge,4,2,2,flow/blocks/NVocInAudio_NoVideo_A.csv,,,,,,,,,0,2,2,2,0,25,25,19,-0.4111111111111111,0.059722222222222225,1,0,0,5.1307207999925595,call2,-0.044444444444444446,0.3125,1,0,0,5.634050299995579,colour1,0.40555555555555556,-0.31527777777777777,1,0,0,6.365491999997175,number4,True,True,True,39,4,2019_Nov_20_1602,MA_Theta_Exp,3.0.7,59.916045637552344,
video/Experiment/zh_sp07_Dr_Gr_4_NVocInAudio_NoVideo.avi,vocoded,noVideo,sp07,Dr,Gr,4,2,2,flow/blocks/NVocInAudio_NoVideo_A.csv,,,,,,,,,0,2,2,2,0,26,26,23,-0.4,0.1,1,0,0,5.608863899993594,call2,0.016666666666666666,0.09583333333333334,1,0,0,6.0917426999949384,colour2,0.39305555555555555,-0.3055555555555556,1,0,0,6.951439799988293,number4,True,True,True,39,4,2019_Nov_20_1602,MA_Theta_Exp,3.0.7,59.916045637552344,
video/Experiment/zh_sp07_Ti_Ge_4_NVocInAudio_NoVideo.avi,vocoded,noVideo,sp07,Ti,Ge,4,2,2,flow/blocks/NVocInAudio_NoVideo_A.csv,,,,,,,,,0,2,2,2,0,27,27,3,-0.35833333333333334,-0.11388888888888889,1,0,0,4.820503399998415,call3,0.029166666666666667,0.34305555555555556,1,0,0,5.819548500003293,colour1,0.37222222222222223,-0.28055555555555556,1,0,0,6.4732214999967255,number4,True,True,True,39,4,2019_Nov_20_1602,MA_Theta_Exp,3.0.7,59.916045637552344,
video/Experiment/zh_sp07_Un_Ro_1_NVocInAudio_NoVideo.avi,vocoded,noVideo,sp07,Un,Ro,1,2,2,flow/blocks/NVocInAudio_NoVideo_A.csv,,,,,,,,,0,2,2,2,0,28,28,24,-0.4125,-0.3111111111111111,1,0,0,4.713295499997912,call4,0.009722222222222222,-0.12638888888888888,1,0,0,5.185433799997554,colour3,0.38333333333333336,0.2625,1,0,0,5.767108100000769,number1,True,True,True,39,4,2019_Nov_20_1602,MA_Theta_Exp,3.0.7,59.916045637552344,
video/Experiment/zh_sp01_Ad_Gr_1_NVocInAudio_NoVideo.avi,vocoded,noVideo,sp01,Ad,Gr,1,2,2,flow/blocks/NVocInAudio_NoVideo_A.csv,,,,,,,,,0,2,2,2,0,29,29,4,-0.4041666666666667,0.29444444444444445,1,0,0,5.374733000004198,call1,-0.002777777777777778,0.09027777777777778,1,0,0,5.8540878000058,colour2,0.3888888888888889,0.29305555555555557,1,0,0,6.324467300000833,number1,True,True,True,39,4,2019_Nov_20_1602,MA_Theta_Exp,3.0.7,59.916045637552344,
video/Experiment/zh_sp01_Ti_We_4_NVocInAudio_NoVideo.avi,vocoded,noVideo,sp01,Ti,We,4,2,2,flow/blocks/NVocInAudio_NoVideo_A.csv,,,,,,,,,0,2,2,2,0,30,30,31,-0.3861111111111111,-0.09722222222222222,1,0,0,6.508384300002945,call3,-0.0125,-0.3,1,0,0,7.024261800004751,colour4,0.35555555555555557,-0.3472222222222222,1,0,0,7.562107499994454,number4,True,True,True,39,4,2019_Nov_20_1602,MA_Theta_Exp,3.0.7,59.916045637552344,
video/Experiment/zh_sp01_Un_Ge_2_NVocInAudio_NoVideo.avi,vocoded,noVideo,sp01,Un,Ge,2,2,2,flow/blocks/NVocInAudio_NoVideo_A.csv,,,,,,,,,0,2,2,2,0,31,31,17,-0.4083333333333333,-0.30694444444444446,1,0,0,5.49840110000514,call4,0.0125,0.28055555555555556,1,0,0,6.173965399997542,colour1,0.3763888888888889,0.1125,1,0,0,6.681336099994951,number2,True,True,True,39,4,2019_Nov_20_1602,MA_Theta_Exp,3.0.7,59.916045637552344,
