videoFile,condition,video,speaker,callSign,colour,number,seq,id,block,exp.thisRepN,exp.thisTrialN,exp.thisN,exp.thisIndex,training.thisRepN,training.thisTrialN,training.thisN,training.thisIndex,firstHalf.thisRepN,firstHalf.thisTrialN,firstHalf.thisN,firstHalf.thisIndex,blocksA.thisRepN,blocksA.thisTrialN,blocksA.thisN,blocksA.thisIndex,secondHalf.thisRepN,secondHalf.thisTrialN,secondHalf.thisN,secondHalf.thisIndex,blocksB.thisRepN,blocksB.thisTrialN,blocksB.thisN,blocksB.thisIndex,mouseClickOnCall.x,mouseClickOnCall.y,mouseClickOnCall.leftButton,mouseClickOnCall.midButton,mouseClickOnCall.rightButton,mouseClickOnCall.time,mouseClickOnCall.clicked_name,mouseClickOnColour.x,mouseClickOnColour.y,mouseClickOnColour.leftButton,mouseClickOnColour.midButton,mouseClickOnColour.rightButton,mouseClickOnColour.time,mouseClickOnColour.clicked_name,mouseClickOnNumber.x,mouseClickOnNumber.y,mouseClickOnNumber.leftButton,mouseClickOnNumber.midButton,mouseClickOnNumber.rightButton,mouseClickOnNumber.time,mouseClickOnNumber.clicked_name,callSignCorrect,colourCorrect,numberCorrect,participant,order,date,expName,psychopyVersion,frameRate,
video/Training/zh_sp01_Ad_We_4_NVocInAudio_NoVideo.avi,vocoded,noVideo,sp01,Ad,We,4,,,,,,,,0,0,0,0,,,,,,,,,,,,,,,,,-0.3902777777777778,0.28055555555555556,1,0,0,6.221424000003026,call1,0.013888888888888888,-0.3013888888888889,1,0,0,7.234558199997991,colour4,0.4152777777777778,-0.33611111111111114,1,0,0,7.7911424999911105,number4,True,True,True,39,4,2019_Nov_20_1602,MA_Theta_Exp,3.0.7,59.916045637552344,
video/Training/zh_sp07_Ad_Ge_3_NVocInAudio_NoVideo.avi,vocoded,noVideo,sp07,Ad,Ge,3,,,,,,,,0,1,1,1,,,,,,,,,,,,,,,,,-0.3888888888888889,0.31527777777777777,1,0,0,4.566156000000774,call1,0.07222222222222222,0.2708333333333333,1,0,0,5.260505400001421,colour1,0.43472222222222223,-0.1111111111111111,1,0,0,6.006303800008027,number3,True,True,True,39,4,2019_Nov_20_1602,MA_Theta_Exp,3.0.7,59.916045637552344,
video/Training/zh_sp01_Dr_Ro_3_NVocInAudio_GlobalThetaInVideo.avi,vocoded,plusVideo,sp01,Dr,Ro,3,,,,,,,,0,2,2,2,,,,,,,,,,,,,,,,,-0.4,0.06805555555555555,1,0,0,5.598936100010178,call2,0.029166666666666667,-0.13194444444444445,1,0,0,6.3850396999914665,colour3,0.4027777777777778,-0.11944444444444445,1,0,0,7.004675400006818,number3,True,True,True,39,4,2019_Nov_20_1602,MA_Theta_Exp,3.0.7,59.916045637552344,
video/Training/zh_sp07_Dr_Gr_4_NVocInAudio_GlobalThetaInVideo.avi,vocoded,plusVideo,sp07,Dr,Gr,4,,,,,,,,0,3,3,3,,,,,,,,,,,,,,,,,-0.4111111111111111,0.08888888888888889,1,0,0,5.260326899995562,call2,-0.006944444444444444,0.08888888888888889,1,0,0,5.802593499989598,colour2,0.4444444444444444,-0.3277777777777778,1,0,0,6.439505899994401,number4,True,True,True,39,4,2019_Nov_20_1602,MA_Theta_Exp,3.0.7,59.916045637552344,
video/Training/zh_sp01_Ti_Gr_2_NoThetaInAudio_NoVideo.avi,noTheta,noVideo,sp01,Ti,Gr,2,,,,,,,,0,4,4,4,,,,,,,,,,,,,,,,,-0.38472222222222224,-0.33055555555555555,1,0,0,7.141728399990825,call4,0.03611111111111111,0.375,1,0,0,7.985694799994235,colour1,0.41388888888888886,0.08194444444444444,1,0,0,8.93763119999494,number2,False,False,True,39,4,2019_Nov_20_1602,MA_Theta_Exp,3.0.7,59.916045637552344,
video/Training/zh_sp07_Ti_Ro_1_NoThetaInAudio_NoVideo.avi,noTheta,noVideo,sp07,Ti,Ro,1,,,,,,,,0,5,5,5,,,,,,,,,,,,,,,,,-0.37916666666666665,-0.3236111111111111,1,0,0,4.660043800002313,call4,0.015277777777777777,-0.325,1,0,0,5.026702199989813,colour4,0.3597222222222222,-0.3055555555555556,1,0,0,5.4193612999952165,number4,False,False,False,39,4,2019_Nov_20_1602,MA_Theta_Exp,3.0.7,59.916045637552344,
video/Training/zh_sp01_Un_Ge_1_NoThetaInAudio_GlobalThetaInVideo.avi,noTheta,plusVideo,sp01,Un,Ge,1,,,,,,,,0,6,6,6,,,,,,,,,,,,,,,,,-0.4027777777777778,-0.31666666666666665,1,0,0,5.263859799990314,call4,-0.05138888888888889,-0.10277777777777777,1,0,0,5.717443899993668,colour3,0.4263888888888889,0.3902777777777778,1,0,0,6.24324820000038,number1,True,False,True,39,4,2019_Nov_20_1602,MA_Theta_Exp,3.0.7,59.916045637552344,
video/Training/zh_sp07_Un_We_2_NoThetaInAudio_GlobalThetaInVideo.avi,noTheta,plusVideo,sp07,Un,We,2,,,,,,,,0,7,7,7,,,,,,,,,,,,,,,,,-0.4,-0.3388888888888889,1,0,0,4.702594400005182,call4,0.0375,0.1,1,0,0,6.373564399997122,colour2,0.36944444444444446,0.30972222222222223,1,0,0,7.11019110000052,number1,True,False,False,39,4,2019_Nov_20_1602,MA_Theta_Exp,3.0.7,59.916045637552344,
video/Training/zh_sp01_Ad_Ge_1_GlobalTheta_NoVideo.avi,globalTheta,noVideo,sp01,Ad,Ge,1,,,,,,,,0,8,8,8,,,,,,,,,,,,,,,,,-0.3375,0.3277777777777778,1,0,0,9.376398199994583,call1,-0.013888888888888888,0.3236111111111111,1,0,0,9.89994079999451,colour1,0.4583333333333333,0.31805555555555554,1,0,0,10.330408499998157,number1,True,True,True,39,4,2019_Nov_20_1602,MA_Theta_Exp,3.0.7,59.916045637552344,
video/Training/zh_sp07_Ad_Ro_3_GlobalTheta_NoVideo.avi,globalTheta,noVideo,sp07,Ad,Ro,3,,,,,,,,0,9,9,9,,,,,,,,,,,,,,,,,-0.37083333333333335,0.29444444444444445,1,0,0,4.615047400002368,call1,-0.022222222222222223,-0.11527777777777778,1,0,0,5.606818899992504,colour3,0.4152777777777778,-0.2861111111111111,1,0,0,6.438851300001261,number4,True,True,False,39,4,2019_Nov_20_1602,MA_Theta_Exp,3.0.7,59.916045637552344,
video/Experiment/zh_sp01_Ti_Ro_2_NVocInAudio_GlobalThetaInVideo.avi,vocoded,plusVideo,sp01,Ti,Ro,2,0,1,flow/blocks/NVocInAudio_GlobalThetaInVideo_A.csv,,,,,,,,,0,0,0,0,0,0,0,25,,,,,,,,,-0.4375,-0.09861111111111111,1,0,0,5.476224700003513,call3,-0.03194444444444444,-0.10277777777777777,1,0,0,6.106927099986933,colour3,0.4236111111111111,0.09722222222222222,1,0,0,6.880049600003986,number2,True,True,True,39,4,2019_Nov_20_1602,MA_Theta_Exp,3.0.7,59.916045637552344,
video/Experiment/zh_sp01_Dr_We_2_NVocInAudio_GlobalThetaInVideo.avi,vocoded,plusVideo,sp01,Dr,We,2,0,1,flow/blocks/NVocInAudio_GlobalThetaInVideo_A.csv,,,,,,,,,0,0,0,0,0,1,1,13,,,,,,,,,-0.39444444444444443,0.125,1,0,0,6.095634399986011,call2,0.04861111111111111,-0.30833333333333335,1,0,0,6.914054100008798,colour4,0.41944444444444445,0.13055555555555556,1,0,0,7.962920799996937,number2,True,True,True,39,4,2019_Nov_20_1602,MA_Theta_Exp,3.0.7,59.916045637552344,
video/Experiment/zh_sp07_Ad_We_2_NVocInAudio_GlobalThetaInVideo.avi,vocoded,plusVideo,sp07,Ad,We,2,0,1,flow/blocks/NVocInAudio_GlobalThetaInVideo_A.csv,,,,,,,,,0,0,0,0,0,2,2,29,,,,,,,,,-0.4263888888888889,0.2861111111111111,1,0,0,4.730244700011099,call1,0.05,-0.31527777777777777,1,0,0,6.293788399998448,colour4,0.37222222222222223,0.10694444444444444,1,0,0,7.054693300000508,number2,True,True,True,39,4,2019_Nov_20_1602,MA_Theta_Exp,3.0.7,59.916045637552344,
video/Experiment/zh_sp01_Un_Ro_1_NVocInAudio_GlobalThetaInVideo.avi,vocoded,plusVideo,sp01,Un,Ro,1,0,1,flow/blocks/NVocInAudio_GlobalThetaInVideo_A.csv,,,,,,,,,0,0,0,0,0,3,3,24,,,,,,,,,-0.4041666666666667,-0.3194444444444444,1,0,0,5.356929399989895,call4,-0.009722222222222222,-0.12083333333333333,1,0,0,5.877045500004897,colour3,0.4,0.3263888888888889,1,0,0,7.173389699994004,number1,True,True,True,39,4,2019_Nov_20_1602,MA_Theta_Exp,3.0.7,59.916045637552344,
video/Experiment/zh_sp01_Ad_Gr_2_NVocInAudio_GlobalThetaInVideo.avi,vocoded,plusVideo,sp01,Ad,Gr,2,0,1,flow/blocks/NVocInAudio_GlobalThetaInVideo_A.csv,,,,,,,,,0,0,0,0,0,4,4,21,,,,,,,,,-0.4263888888888889,0.30972222222222223,1,0,0,5.185239600003115,call1,0.03611111111111111,0.08194444444444444,1,0,0,5.886683400007314,colour2,0.4222222222222222,0.12083333333333333,1,0,0,6.672934300004272,number2,True,True,True,39,4,2019_Nov_20_1602,MA_Theta_Exp,3.0.7,59.916045637552344,
video/Experiment/zh_sp07_Ad_Gr_1_NVocInAudio_GlobalThetaInVideo.avi,vocoded,plusVideo,sp07,Ad,Gr,1,0,1,flow/blocks/NVocInAudio_GlobalThetaInVideo_A.csv,,,,,,,,,0,0,0,0,0,5,5,4,,,,,,,,,-0.39861111111111114,0.2986111111111111,1,0,0,4.571187100009411,call1,0.041666666666666664,0.09305555555555556,1,0,0,5.079686000011861,colour2,0.35555555555555557,0.2972222222222222,1,0,0,5.599641300010262,number1,True,True,True,39,4,2019_Nov_20_1602,MA_Theta_Exp,3.0.7,59.916045637552344,
video/Experiment/zh_sp07_Un_Ge_2_NVocInAudio_GlobalThetaInVideo.avi,vocoded,plusVideo,sp07,Un,Ge,2,0,1,flow/blocks/NVocInAudio_GlobalThetaInVideo_A.csv,,,,,,,,,0,0,0,0,0,6,6,17,,,,,,,,,-0.3819444444444444,-0.3194444444444444,1,0,0,4.482545399994706,call4,0.013888888888888888,0.28888888888888886,1,0,0,5.332967900001677,colour1,0.3375,0.09444444444444444,1,0,0,5.823812000002363,number2,True,True,True,39,4,2019_Nov_20_1602,MA_Theta_Exp,3.0.7,59.916045637552344,
video/Experiment/zh_sp07_Ti_Ge_1_NVocInAudio_GlobalThetaInVideo.avi,vocoded,plusVideo,sp07,Ti,Ge,1,0,1,flow/blocks/NVocInAudio_GlobalThetaInVideo_A.csv,,,,,,,,,0,0,0,0,0,7,7,16,,,,,,,,,-0.42916666666666664,-0.12083333333333333,1,0,0,4.634808600007091,call3,0.03611111111111111,0.3388888888888889,1,0,0,5.299420800001826,colour1,0.4013888888888889,0.3125,1,0,0,6.013102800003253,number1,True,True,True,39,4,2019_Nov_20_1602,MA_Theta_Exp,3.0.7,59.916045637552344,
video/Experiment/zh_sp07_Dr_Ro_4_NVocInAudio_GlobalThetaInVideo.avi,vocoded,plusVideo,sp07,Dr,Ro,4,0,1,flow/blocks/NVocInAudio_GlobalThetaInVideo_A.csv,,,,,,,,,0,0,0,0,0,8,8,27,,,,,,,,,-0.39444444444444443,0.1111111111111111,1,0,0,5.765043999999762,call2,-0.011111111111111112,-0.12638888888888888,1,0,0,6.479870100010885,colour3,0.44722222222222224,-0.3375,1,0,0,7.036516099993605,number4,True,True,True,39,4,2019_Nov_20_1602,MA_Theta_Exp,3.0.7,59.916045637552344,
video/Experiment/zh_sp07_Dr_Gr_4_NVocInAudio_GlobalThetaInVideo.avi,vocoded,plusVideo,sp07,Dr,Gr,4,0,1,flow/blocks/NVocInAudio_GlobalThetaInVideo_A.csv,,,,,,,,,0,0,0,0,0,9,9,23,,,,,,,,,-0.35138888888888886,0.10277777777777777,1,0,0,4.615493100005551,call2,0.06388888888888888,0.10416666666666667,1,0,0,5.159097000010661,colour2,0.4041666666666667,-0.3111111111111111,1,0,0,5.90362759999698,number4,True,True,True,39,4,2019_Nov_20_1602,MA_Theta_Exp,3.0.7,59.916045637552344,
video/Experiment/zh_sp07_Dr_Ge_1_NVocInAudio_GlobalThetaInVideo.avi,vocoded,plusVideo,sp07,Dr,Ge,1,0,1,flow/blocks/NVocInAudio_GlobalThetaInVideo_A.csv,,,,,,,,,0,0,0,0,0,10,10,0,,,,,,,,,-0.38472222222222224,0.13333333333333333,1,0,0,4.72454939999443,call2,0.02361111111111111,0.32083333333333336,1,0,0,5.294057799997972,colour1,0.34305555555555556,0.3236111111111111,1,0,0,5.821801500002039,number1,True,True,True,39,4,2019_Nov_20_1602,MA_Theta_Exp,3.0.7,59.916045637552344,
video/Experiment/zh_sp07_Dr_Ge_4_NVocInAudio_GlobalThetaInVideo.avi,vocoded,plusVideo,sp07,Dr,Ge,4,0,1,flow/blocks/NVocInAudio_GlobalThetaInVideo_A.csv,,,,,,,,,0,0,0,0,0,11,11,19,,,,,,,,,-0.425,0.1,1,0,0,4.741499399999157,call2,-0.05,0.3125,1,0,0,5.245315200008918,colour1,0.4041666666666667,-0.3055555555555556,1,0,0,5.996961900003953,number4,True,True,True,39,4,2019_Nov_20_1602,MA_Theta_Exp,3.0.7,59.916045637552344,
video/Experiment/zh_sp01_Ad_We_1_NVocInAudio_GlobalThetaInVideo.avi,vocoded,plusVideo,sp01,Ad,We,1,0,1,flow/blocks/NVocInAudio_GlobalThetaInVideo_A.csv,,,,,,,,,0,0,0,0,0,12,12,12,,,,,,,,,-0.37777777777777777,0.32222222222222224,1,0,0,5.2707236999995075,call1,0.005555555555555556,-0.3263888888888889,1,0,0,6.032366100000218,colour4,0.43472222222222223,0.325,1,0,0,6.723515099991346,number1,True,True,True,39,4,2019_Nov_20_1602,MA_Theta_Exp,3.0.7,59.916045637552344,
video/Experiment/zh_sp01_Un_Ro_3_NVocInAudio_GlobalThetaInVideo.avi,vocoded,plusVideo,sp01,Un,Ro,3,0,1,flow/blocks/NVocInAudio_GlobalThetaInVideo_A.csv,,,,,,,,,0,0,0,0,0,13,13,26,,,,,,,,,-0.4097222222222222,-0.31527777777777777,1,0,0,5.137443200001144,call4,-0.034722222222222224,-0.13055555555555556,1,0,0,5.615814100005082,colour3,0.4986111111111111,-0.13194444444444445,1,0,0,6.161726599995745,number3,True,True,True,39,4,2019_Nov_20_1602,MA_Theta_Exp,3.0.7,59.916045637552344,
video/Experiment/zh_sp01_Ti_Ro_3_NVocInAudio_GlobalThetaInVideo.avi,vocoded,plusVideo,sp01,Ti,Ro,3,0,1,flow/blocks/NVocInAudio_GlobalThetaInVideo_A.csv,,,,,,,,,0,0,0,0,0,14,14,10,,,,,,,,,-0.35,-0.10833333333333334,1,0,0,4.876031100007822,call3,0.016666666666666666,-0.09166666666666666,1,0,0,5.292958699996234,colour3,0.4097222222222222,-0.10555555555555556,1,0,0,6.2044716000091285,number3,True,True,True,39,4,2019_Nov_20_1602,MA_Theta_Exp,3.0.7,59.916045637552344,
video/Experiment/zh_sp07_Ad_Ro_4_NVocInAudio_GlobalThetaInVideo.avi,vocoded,plusVideo,sp07,Ad,Ro,4,0,1,flow/blocks/NVocInAudio_GlobalThetaInVideo_A.csv,,,,,,,,,0,0,0,0,0,15,15,11,,,,,,,,,-0.4083333333333333,0.31805555555555554,1,0,0,4.761391599997296,call1,0.016666666666666666,-0.1375,1,0,0,5.464153599998099,colour3,0.4444444444444444,-0.3333333333333333,1,0,0,6.031583899995894,number4,True,True,True,39,4,2019_Nov_20_1602,MA_Theta_Exp,3.0.7,59.916045637552344,
video/Experiment/zh_sp01_Un_We_4_NVocInAudio_GlobalThetaInVideo.avi,vocoded,plusVideo,sp01,Un,We,4,0,1,flow/blocks/NVocInAudio_GlobalThetaInVideo_A.csv,,,,,,,,,0,0,0,0,0,16,16,15,,,,,,,,,-0.38333333333333336,-0.30833333333333335,1,0,0,5.317561499992735,call4,0.022222222222222223,-0.3055555555555556,1,0,0,5.871783499998855,colour4,0.4083333333333333,-0.30972222222222223,1,0,0,6.393393699996523,number4,True,True,True,39,4,2019_Nov_20_1602,MA_Theta_Exp,3.0.7,59.916045637552344,
video/Experiment/zh_sp07_Un_Ge_3_NVocInAudio_GlobalThetaInVideo.avi,vocoded,plusVideo,sp07,Un,Ge,3,0,1,flow/blocks/NVocInAudio_GlobalThetaInVideo_A.csv,,,,,,,,,0,0,0,0,0,17,17,2,,,,,,,,,-0.43194444444444446,-0.32222222222222224,1,0,0,4.949890999996569,call4,0.008333333333333333,0.35555555555555557,1,0,0,5.737075500001083,colour1,0.43472222222222223,-0.08194444444444444,1,0,0,6.602824399989913,number3,True,True,True,39,4,2019_Nov_20_1602,MA_Theta_Exp,3.0.7,59.916045637552344,
video/Experiment/zh_sp01_Un_We_3_NVocInAudio_GlobalThetaInVideo.avi,vocoded,plusVideo,sp01,Un,We,3,0,1,flow/blocks/NVocInAudio_GlobalThetaInVideo_A.csv,,,,,,,,,0,0,0,0,0,18,18,14,,,,,,,,,-0.36944444444444446,-0.28194444444444444,1,0,0,5.037065699987579,call4,-0.029166666666666667,-0.30277777777777776,1,0,0,5.515062899998156,colour4,0.37083333333333335,-0.12083333333333333,1,0,0,5.973610600005486,number3,True,True,True,39,4,2019_Nov_20_1602,MA_Theta_Exp,3.0.7,59.916045637552344,
video/Experiment/zh_sp07_Ti_We_4_NVocInAudio_GlobalThetaInVideo.avi,vocoded,plusVideo,sp07,Ti,We,4,0,1,flow/blocks/NVocInAudio_GlobalThetaInVideo_A.csv,,,,,,,,,0,0,0,0,0,19,19,31,,,,,,,,,-0.4527777777777778,-0.11388888888888889,1,0,0,4.8217218999925535,call3,-0.011111111111111112,-0.3472222222222222,1,0,0,5.369705500008422,colour4,0.4013888888888889,-0.26666666666666666,1,0,0,5.857554899994284,number4,True,True,True,39,4,2019_Nov_20_1602,MA_Theta_Exp,3.0.7,59.916045637552344,
video/Experiment/zh_sp07_Ti_Ge_3_NVocInAudio_GlobalThetaInVideo.avi,vocoded,plusVideo,sp07,Ti,Ge,3,0,1,flow/blocks/NVocInAudio_GlobalThetaInVideo_A.csv,,,,,,,,,0,0,0,0,0,20,20,18,,,,,,,,,-0.4388888888888889,-0.10972222222222222,1,0,0,5.229340200006845,call3,-0.0125,0.3125,1,0,0,6.009059000003617,colour1,0.4013888888888889,-0.11944444444444445,1,0,0,6.787295299989637,number3,True,True,True,39,4,2019_Nov_20_1602,MA_Theta_Exp,3.0.7,59.916045637552344,
video/Experiment/zh_sp07_Un_We_1_NVocInAudio_GlobalThetaInVideo.avi,vocoded,plusVideo,sp07,Un,We,1,0,1,flow/blocks/NVocInAudio_GlobalThetaInVideo_A.csv,,,,,,,,,0,0,0,0,0,21,21,28,,,,,,,,,-0.42916666666666664,-0.3055555555555556,1,0,0,4.522087899997132,call4,0.005555555555555556,-0.3013888888888889,1,0,0,5.293424599993159,colour4,-0.3763888888888889,-0.3194444444444444,1,0,0,6.2482208000001265,number1,True,True,True,39,4,2019_Nov_20_1602,MA_Theta_Exp,3.0.7,59.916045637552344,
video/Experiment/zh_sp07_Dr_Gr_3_NVocInAudio_GlobalThetaInVideo.avi,vocoded,plusVideo,sp07,Dr,Gr,3,0,1,flow/blocks/NVocInAudio_GlobalThetaInVideo_A.csv,,,,,,,,,0,0,0,0,0,22,22,6,,,,,,,,,-0.3958333333333333,0.09166666666666666,1,0,0,4.9907034000061685,call2,-0.06666666666666667,0.1,1,0,0,5.424407500002417,colour2,0.42916666666666664,-0.11805555555555555,1,0,0,6.247704399997019,number3,True,True,True,39,4,2019_Nov_20_1602,MA_Theta_Exp,3.0.7,59.916045637552344,
video/Experiment/zh_sp01_Ti_Ge_2_NVocInAudio_GlobalThetaInVideo.avi,vocoded,plusVideo,sp01,Ti,Ge,2,0,1,flow/blocks/NVocInAudio_GlobalThetaInVideo_A.csv,,,,,,,,,0,0,0,0,0,23,23,1,,,,,,,,,-0.3875,-0.13194444444444445,1,0,0,5.0509959000046365,call3,0.020833333333333332,0.2625,1,0,0,8.084911199999624,colour1,0.35,0.08055555555555556,1,0,0,8.678889000002528,number2,True,True,True,39,4,2019_Nov_20_1602,MA_Theta_Exp,3.0.7,59.916045637552344,
video/Experiment/zh_sp01_Ti_Gr_4_NVocInAudio_GlobalThetaInVideo.avi,vocoded,plusVideo,sp01,Ti,Gr,4,0,1,flow/blocks/NVocInAudio_GlobalThetaInVideo_A.csv,,,,,,,,,0,0,0,0,0,24,24,7,,,,,,,,,-0.4013888888888889,-0.11527777777777778,1,0,0,6.05433460000495,call3,-0.025,0.10138888888888889,1,0,0,6.767679700002191,colour2,0.38333333333333336,-0.325,1,0,0,7.4183533000032185,number4,True,True,True,39,4,2019_Nov_20_1602,MA_Theta_Exp,3.0.7,59.916045637552344,
video/Experiment/zh_sp07_Dr_Gr_2_NVocInAudio_GlobalThetaInVideo.avi,vocoded,plusVideo,sp07,Dr,Gr,2,0,1,flow/blocks/NVocInAudio_GlobalThetaInVideo_A.csv,,,,,,,,,0,0,0,0,0,25,25,5,,,,,,,,,-0.4152777777777778,0.08611111111111111,1,0,0,5.071023800002877,call2,0.02361111111111111,0.0875,1,0,0,5.746347400010563,colour2,0.3625,0.10833333333333334,1,0,0,6.304011000000173,number2,True,True,True,39,4,2019_Nov_20_1602,MA_Theta_Exp,3.0.7,59.916045637552344,
video/Experiment/zh_sp01_Ad_Ro_1_NVocInAudio_GlobalThetaInVideo.avi,vocoded,plusVideo,sp01,Ad,Ro,1,0,1,flow/blocks/NVocInAudio_GlobalThetaInVideo_A.csv,,,,,,,,,0,0,0,0,0,26,26,8,,,,,,,,,-0.4152777777777778,0.30833333333333335,1,0,0,5.674712399995769,call1,-0.08611111111111111,-0.06666666666666667,1,0,0,6.317658999993,colour3,0.3888888888888889,0.3013888888888889,1,0,0,7.432894599987776,number1,True,True,True,39,4,2019_Nov_20_1602,MA_Theta_Exp,3.0.7,59.916045637552344,
video/Experiment/zh_sp01_Dr_Ro_2_NVocInAudio_GlobalThetaInVideo.avi,vocoded,plusVideo,sp01,Dr,Ro,2,0,1,flow/blocks/NVocInAudio_GlobalThetaInVideo_A.csv,,,,,,,,,0,0,0,0,0,27,27,9,,,,,,,,,-0.4236111111111111,0.31666666666666665,1,0,0,5.332598699998925,call1,0.020833333333333332,-0.10277777777777777,1,0,0,6.0404056000115816,colour3,0.3625,0.08333333333333333,1,0,0,6.570893500000238,number2,False,True,True,39,4,2019_Nov_20_1602,MA_Theta_Exp,3.0.7,59.916045637552344,
video/Experiment/zh_sp01_Ad_We_3_NVocInAudio_GlobalThetaInVideo.avi,vocoded,plusVideo,sp01,Ad,We,3,0,1,flow/blocks/NVocInAudio_GlobalThetaInVideo_A.csv,,,,,,,,,0,0,0,0,0,28,28,30,,,,,,,,,-0.3958333333333333,0.2902777777777778,1,0,0,5.359364499992807,call1,-0.001388888888888889,-0.3597222222222222,1,0,0,6.09140550000302,colour4,0.3819444444444444,-0.13472222222222222,1,0,0,6.688116700010141,number3,True,True,True,39,4,2019_Nov_20_1602,MA_Theta_Exp,3.0.7,59.916045637552344,
video/Experiment/zh_sp01_Ad_Gr_3_NVocInAudio_GlobalThetaInVideo.avi,vocoded,plusVideo,sp01,Ad,Gr,3,0,1,flow/blocks/NVocInAudio_GlobalThetaInVideo_A.csv,,,,,,,,,0,0,0,0,0,29,29,22,,,,,,,,,-0.38333333333333336,0.34305555555555556,1,0,0,6.334499699994922,call1,0.018055555555555554,0.12777777777777777,1,0,0,7.1584424000029685,colour2,0.3888888888888889,-0.13055555555555556,1,0,0,7.717662100010784,number3,True,True,True,39,4,2019_Nov_20_1602,MA_Theta_Exp,3.0.7,59.916045637552344,
video/Experiment/zh_sp07_Ti_Ge_4_NVocInAudio_GlobalThetaInVideo.avi,vocoded,plusVideo,sp07,Ti,Ge,4,0,1,flow/blocks/NVocInAudio_GlobalThetaInVideo_A.csv,,,,,,,,,0,0,0,0,0,30,30,3,,,,,,,,,-0.39861111111111114,-0.10833333333333334,1,0,0,4.685230299990508,call3,-0.044444444444444446,0.31805555555555554,1,0,0,5.472036399994977,colour1,0.4125,-0.3458333333333333,1,0,0,6.478681799999322,number4,True,True,True,39,4,2019_Nov_20_1602,MA_Theta_Exp,3.0.7,59.916045637552344,
video/Experiment/zh_sp01_Un_Gr_1_NVocInAudio_GlobalThetaInVideo.avi,vocoded,plusVideo,sp01,Un,Gr,1,0,1,flow/blocks/NVocInAudio_GlobalThetaInVideo_A.csv,,,,,,,,,0,0,0,0,0,31,31,20,,,,,,,,,-0.4027777777777778,-0.34444444444444444,1,0,0,5.452541499995277,call4,0.008333333333333333,0.09166666666666666,1,0,0,6.106039399994188,colour2,0.38472222222222224,0.35,1,0,0,6.761835299999802,number1,True,True,True,39,4,2019_Nov_20_1602,MA_Theta_Exp,3.0.7,59.916045637552344,
video/Experiment/zh_sp07_Ti_We_3_NoThetaInAudio_NoVideo.avi,noTheta,noVideo,sp07,Ti,We,3,1,4,flow/blocks/NoThetaInAudio_NoVideo_B.csv,,,,,,,,,0,1,1,1,0,0,0,30,,,,,,,,,0.001388888888888889,0.08055555555555556,1,0,0,5.025100500002736,call3,0.013888888888888888,0.08333333333333333,1,0,0,8.385271099992679,colour2,0.375,-0.1111111111111111,1,0,0,8.819408099996508,number3,True,False,True,39,4,2019_Nov_20_1602,MA_Theta_Exp,3.0.7,59.916045637552344,
video/Experiment/zh_sp01_Dr_Gr_1_NoThetaInAudio_NoVideo.avi,noTheta,noVideo,sp01,Dr,Gr,1,1,4,flow/blocks/NoThetaInAudio_NoVideo_B.csv,,,,,,,,,0,1,1,1,0,1,1,20,,,,,,,,,-0.3902777777777778,0.07916666666666666,1,0,0,5.897448400006397,call2,0.0,0.08472222222222223,1,0,0,6.533904900003108,colour2,0.4263888888888889,0.30416666666666664,1,0,0,7.142869999996037,number1,True,True,True,39,4,2019_Nov_20_1602,MA_Theta_Exp,3.0.7,59.916045637552344,
video/Experiment/zh_sp07_Un_Ge_1_NoThetaInAudio_NoVideo.avi,noTheta,noVideo,sp07,Un,Ge,1,1,4,flow/blocks/NoThetaInAudio_NoVideo_B.csv,,,,,,,,,0,1,1,1,0,2,2,0,,,,,,,,,-0.375,-0.11388888888888889,1,0,0,5.078435300005367,call3,-0.018055555555555554,0.32916666666666666,1,0,0,5.808321100004832,colour1,0.45694444444444443,0.33055555555555555,1,0,0,6.32734660001006,number1,False,True,True,39,4,2019_Nov_20_1602,MA_Theta_Exp,3.0.7,59.916045637552344,
video/Experiment/zh_sp01_Un_Gr_2_NoThetaInAudio_NoVideo.avi,noTheta,noVideo,sp01,Un,Gr,2,1,4,flow/blocks/NoThetaInAudio_NoVideo_B.csv,,,,,,,,,0,1,1,1,0,3,3,5,,,,,,,,,-0.38472222222222224,-0.35694444444444445,1,0,0,5.507824799991795,call4,0.002777777777777778,0.075,1,0,0,6.23194089999015,colour2,0.4444444444444444,0.09583333333333334,1,0,0,6.778717699999106,number2,True,True,True,39,4,2019_Nov_20_1602,MA_Theta_Exp,3.0.7,59.916045637552344,
video/Experiment/zh_sp01_Un_Ge_4_NoThetaInAudio_NoVideo.avi,noTheta,noVideo,sp01,Un,Ge,4,1,4,flow/blocks/NoThetaInAudio_NoVideo_B.csv,,,,,,,,,0,1,1,1,0,4,4,19,,,,,,,,,-0.4097222222222222,-0.3347222222222222,1,0,0,6.038127399995574,call4,0.018055555555555554,0.31805555555555554,1,0,0,6.789977799999178,colour1,0.39444444444444443,-0.10277777777777777,1,0,0,9.14160930000071,number3,True,True,False,39,4,2019_Nov_20_1602,MA_Theta_Exp,3.0.7,59.916045637552344,
video/Experiment/zh_sp01_Ti_Ro_1_NoThetaInAudio_NoVideo.avi,noTheta,noVideo,sp01,Ti,Ro,1,1,4,flow/blocks/NoThetaInAudio_NoVideo_B.csv,,,,,,,,,0,1,1,1,0,5,5,8,,,,,,,,,-0.3888888888888889,-0.10138888888888889,1,0,0,5.994727900004364,call3,-0.03611111111111111,0.125,1,0,0,6.460462199989706,colour2,0.44166666666666665,0.325,1,0,0,6.965702000001329,number1,True,False,True,39,4,2019_Nov_20_1602,MA_Theta_Exp,3.0.7,59.916045637552344,
video/Experiment/zh_sp07_Ad_Gr_4_NoThetaInAudio_NoVideo.avi,noTheta,noVideo,sp07,Ad,Gr,4,1,4,flow/blocks/NoThetaInAudio_NoVideo_B.csv,,,,,,,,,0,1,1,1,0,6,6,7,,,,,,,,,-0.39444444444444443,0.0763888888888889,1,0,0,5.033005199991749,call2,-0.03333333333333333,0.08194444444444444,1,0,0,5.543648699996993,colour2,0.3958333333333333,-0.2763888888888889,1,0,0,6.057110900001135,number4,False,True,True,39,4,2019_Nov_20_1602,MA_Theta_Exp,3.0.7,59.916045637552344,
video/Experiment/zh_sp07_Dr_We_4_NoThetaInAudio_NoVideo.avi,noTheta,noVideo,sp07,Dr,We,4,1,4,flow/blocks/NoThetaInAudio_NoVideo_B.csv,,,,,,,,,0,1,1,1,0,7,7,15,,,,,,,,,-0.4097222222222222,0.09166666666666666,1,0,0,5.9701226000033785,call2,0.004166666666666667,0.08333333333333333,1,0,0,7.126455399993574,colour2,0.3625,-0.30277777777777776,1,0,0,8.123614099997212,number4,True,False,True,39,4,2019_Nov_20_1602,MA_Theta_Exp,3.0.7,59.916045637552344,
video/Experiment/zh_sp01_Dr_We_1_NoThetaInAudio_NoVideo.avi,noTheta,noVideo,sp01,Dr,We,1,1,4,flow/blocks/NoThetaInAudio_NoVideo_B.csv,,,,,,,,,0,1,1,1,0,8,8,28,,,,,,,,,-0.40555555555555556,0.09305555555555556,1,0,0,5.357143000001088,call2,-0.016666666666666666,-0.28194444444444444,1,0,0,6.128744900008314,colour4,0.3736111111111111,0.3236111111111111,1,0,0,6.893080399997416,number1,True,True,True,39,4,2019_Nov_20_1602,MA_Theta_Exp,3.0.7,59.916045637552344,
video/Experiment/zh_sp07_Ti_We_2_NoThetaInAudio_NoVideo.avi,noTheta,noVideo,sp07,Ti,We,2,1,4,flow/blocks/NoThetaInAudio_NoVideo_B.csv,,,,,,,,,0,1,1,1,0,9,9,29,,,,,,,,,-0.3736111111111111,-0.12222222222222222,1,0,0,4.665369099995587,call3,0.016666666666666666,0.07222222222222222,1,0,0,5.233808899996802,colour2,0.3388888888888889,-0.11666666666666667,1,0,0,5.709798200012301,number3,True,False,False,39,4,2019_Nov_20_1602,MA_Theta_Exp,3.0.7,59.916045637552344,
video/Experiment/zh_sp01_Dr_Ge_3_NoThetaInAudio_NoVideo.avi,noTheta,noVideo,sp01,Dr,Ge,3,1,4,flow/blocks/NoThetaInAudio_NoVideo_B.csv,,,,,,,,,0,1,1,1,0,10,10,2,,,,,,,,,-0.4166666666666667,0.10138888888888889,1,0,0,5.330004300005385,call2,0.013888888888888888,0.3736111111111111,1,0,0,6.063036099993042,colour1,0.375,-0.12083333333333333,1,0,0,7.477919700002531,number3,True,True,True,39,4,2019_Nov_20_1602,MA_Theta_Exp,3.0.7,59.916045637552344,
video/Experiment/zh_sp01_Dr_Ro_1_NoThetaInAudio_NoVideo.avi,noTheta,noVideo,sp01,Dr,Ro,1,1,4,flow/blocks/NoThetaInAudio_NoVideo_B.csv,,,,,,,,,0,1,1,1,0,11,11,24,,,,,,,,,-0.45555555555555555,0.13194444444444445,1,0,0,5.1985929000074975,call2,0.016666666666666666,-0.09583333333333334,1,0,0,5.987454500005697,colour3,0.3902777777777778,0.30277777777777776,1,0,0,6.626995400001761,number1,True,True,True,39,4,2019_Nov_20_1602,MA_Theta_Exp,3.0.7,59.916045637552344,
video/Experiment/zh_sp07_Un_Ro_4_NoThetaInAudio_NoVideo.avi,noTheta,noVideo,sp07,Un,Ro,4,1,4,flow/blocks/NoThetaInAudio_NoVideo_B.csv,,,,,,,,,0,1,1,1,0,12,12,27,,,,,,,,,-0.35138888888888886,-0.3194444444444444,1,0,0,5.153319400007604,call4,-0.018055555555555554,-0.14166666666666666,1,0,0,5.602775500010466,colour3,0.44305555555555554,-0.07361111111111111,1,0,0,6.091093899987754,number3,True,True,False,39,4,2019_Nov_20_1602,MA_Theta_Exp,3.0.7,59.916045637552344,
video/Experiment/zh_sp01_Ad_Ge_1_NoThetaInAudio_NoVideo.avi,noTheta,noVideo,sp01,Ad,Ge,1,1,4,flow/blocks/NoThetaInAudio_NoVideo_B.csv,,,,,,,,,0,1,1,1,0,13,13,16,,,,,,,,,-0.39861111111111114,0.30277777777777776,1,0,0,5.274941499999841,call1,-0.04027777777777778,0.325,1,0,0,6.093543299997691,colour1,0.4597222222222222,0.325,1,0,0,6.855060900008539,number1,True,True,True,39,4,2019_Nov_20_1602,MA_Theta_Exp,3.0.7,59.916045637552344,
video/Experiment/zh_sp07_Ti_Gr_2_NoThetaInAudio_NoVideo.avi,noTheta,noVideo,sp07,Ti,Gr,2,1,4,flow/blocks/NoThetaInAudio_NoVideo_B.csv,,,,,,,,,0,1,1,1,0,14,14,21,,,,,,,,,-0.36666666666666664,-0.11805555555555555,1,0,0,4.7776891000103205,call3,0.06111111111111111,0.11805555555555555,1,0,0,5.300898799992865,colour2,0.34305555555555556,0.12222222222222222,1,0,0,5.719952400002512,number2,True,True,True,39,4,2019_Nov_20_1602,MA_Theta_Exp,3.0.7,59.916045637552344,
video/Experiment/zh_sp01_Ti_Gr_3_NoThetaInAudio_NoVideo.avi,noTheta,noVideo,sp01,Ti,Gr,3,1,4,flow/blocks/NoThetaInAudio_NoVideo_B.csv,,,,,,,,,0,1,1,1,0,15,15,22,,,,,,,,,-0.4097222222222222,-0.12083333333333333,1,0,0,5.073237399992649,call3,-0.005555555555555556,0.0875,1,0,0,5.702039399999194,colour2,0.4166666666666667,-0.11944444444444445,1,0,0,6.195881000006921,number3,True,True,True,39,4,2019_Nov_20_1602,MA_Theta_Exp,3.0.7,59.916045637552344,
video/Experiment/zh_sp07_Ad_Ro_3_NoThetaInAudio_NoVideo.avi,noTheta,noVideo,sp07,Ad,Ro,3,1,4,flow/blocks/NoThetaInAudio_NoVideo_B.csv,,,,,,,,,0,1,1,1,0,16,16,10,,,,,,,,,-0.37916666666666665,-0.31666666666666665,1,0,0,4.597587399999611,call4,0.016666666666666666,-0.3125,1,0,0,4.976567100005923,colour4,0.3597222222222222,-0.1486111111111111,1,0,0,5.36232800000289,number3,False,False,True,39,4,2019_Nov_20_1602,MA_Theta_Exp,3.0.7,59.916045637552344,
video/Experiment/zh_sp07_Ad_Ge_4_NoThetaInAudio_NoVideo.avi,noTheta,noVideo,sp07,Ad,Ge,4,1,4,flow/blocks/NoThetaInAudio_NoVideo_B.csv,,,,,,,,,0,1,1,1,0,17,17,3,,,,,,,,,-0.40694444444444444,0.27361111111111114,1,0,0,5.383434099989245,call1,0.016666666666666666,0.2791666666666667,1,0,0,6.408107299997937,colour1,0.4388888888888889,-0.3,1,0,0,7.052626499993494,number4,True,True,True,39,4,2019_Nov_20_1602,MA_Theta_Exp,3.0.7,59.916045637552344,
video/Experiment/zh_sp07_Ti_Gr_1_NoThetaInAudio_NoVideo.avi,noTheta,noVideo,sp07,Ti,Gr,1,1,4,flow/blocks/NoThetaInAudio_NoVideo_B.csv,,,,,,,,,0,1,1,1,0,18,18,4,,,,,,,,,-0.4013888888888889,-0.10138888888888889,1,0,0,6.004427499996382,call3,-0.016666666666666666,0.10833333333333334,1,0,0,6.590160799998557,colour2,0.3958333333333333,0.2833333333333333,1,0,0,7.479777800006559,number1,True,True,True,39,4,2019_Nov_20_1602,MA_Theta_Exp,3.0.7,59.916045637552344,
video/Experiment/zh_sp07_Ti_Ro_4_NoThetaInAudio_NoVideo.avi,noTheta,noVideo,sp07,Ti,Ro,4,1,4,flow/blocks/NoThetaInAudio_NoVideo_B.csv,,,,,,,,,0,1,1,1,0,19,19,11,,,,,,,,,-0.3875,-0.12638888888888888,1,0,0,4.606238799999119,call3,0.029166666666666667,-0.10416666666666667,1,0,0,5.068041799997445,colour3,0.4236111111111111,-0.2972222222222222,1,0,0,5.608111399997142,number4,True,True,True,39,4,2019_Nov_20_1602,MA_Theta_Exp,3.0.7,59.916045637552344,
video/Experiment/zh_sp07_Un_Gr_3_NoThetaInAudio_NoVideo.avi,noTheta,noVideo,sp07,Un,Gr,3,1,4,flow/blocks/NoThetaInAudio_NoVideo_B.csv,,,,,,,,,0,1,1,1,0,20,20,6,,,,,,,,,-0.39166666666666666,-0.3277777777777778,1,0,0,4.504075100005139,call4,0.016666666666666666,0.0875,1,0,0,5.269871399999829,colour2,0.4027777777777778,-0.1,1,0,0,6.008340600004885,number3,True,True,True,39,4,2019_Nov_20_1602,MA_Theta_Exp,3.0.7,59.916045637552344,
video/Experiment/zh_sp01_Un_Gr_4_NoThetaInAudio_NoVideo.avi,noTheta,noVideo,sp01,Un,Gr,4,1,4,flow/blocks/NoThetaInAudio_NoVideo_B.csv,,,,,,,,,0,1,1,1,0,21,21,23,,,,,,,,,-0.4125,-0.12916666666666668,1,0,0,5.967990100005409,call3,-0.041666666666666664,0.08888888888888889,1,0,0,6.470583100002841,colour2,0.47638888888888886,-0.3111111111111111,1,0,0,7.064030800000182,number4,False,True,True,39,4,2019_Nov_20_1602,MA_Theta_Exp,3.0.7,59.916045637552344,
video/Experiment/zh_sp01_Un_We_2_NoThetaInAudio_NoVideo.avi,noTheta,noVideo,sp01,Un,We,2,1,4,flow/blocks/NoThetaInAudio_NoVideo_B.csv,,,,,,,,,0,1,1,1,0,22,22,13,,,,,,,,,-0.36527777777777776,-0.1388888888888889,1,0,0,5.410163599997759,call3,0.018055555555555554,-0.30416666666666664,1,0,0,5.943624599996838,colour4,0.4125,0.125,1,0,0,6.682400600009714,number2,False,True,True,39,4,2019_Nov_20_1602,MA_Theta_Exp,3.0.7,59.916045637552344,
video/Experiment/zh_sp01_Ad_Ge_3_NoThetaInAudio_NoVideo.avi,noTheta,noVideo,sp01,Ad,Ge,3,1,4,flow/blocks/NoThetaInAudio_NoVideo_B.csv,,,,,,,,,0,1,1,1,0,23,23,18,,,,,,,,,-0.3902777777777778,0.30833333333333335,1,0,0,4.8670653000008315,call1,-0.06388888888888888,0.30833333333333335,1,0,0,5.283731200004695,colour1,0.38472222222222224,-0.11944444444444445,1,0,0,5.91042670000752,number3,True,True,True,39,4,2019_Nov_20_1602,MA_Theta_Exp,3.0.7,59.916045637552344,
video/Experiment/zh_sp01_Ad_We_4_NoThetaInAudio_NoVideo.avi,noTheta,noVideo,sp01,Ad,We,4,1,4,flow/blocks/NoThetaInAudio_NoVideo_B.csv,,,,,,,,,0,1,1,1,0,24,24,31,,,,,,,,,-0.40694444444444444,0.3236111111111111,1,0,0,5.224547600009828,call1,0.005555555555555556,-0.32083333333333336,1,0,0,5.933126400006586,colour4,0.4097222222222222,-0.3138888888888889,1,0,0,6.383235500004957,number4,True,True,True,39,4,2019_Nov_20_1602,MA_Theta_Exp,3.0.7,59.916045637552344,
video/Experiment/zh_sp07_Ad_Ro_2_NoThetaInAudio_NoVideo.avi,noTheta,noVideo,sp07,Ad,Ro,2,1,4,flow/blocks/NoThetaInAudio_NoVideo_B.csv,,,,,,,,,0,1,1,1,0,25,25,25,,,,,,,,,-0.44583333333333336,0.3013888888888889,1,0,0,4.962700799995218,call1,-0.043055555555555555,-0.08472222222222223,1,0,0,5.50875530000485,colour3,0.375,0.09722222222222222,1,0,0,6.048422499996377,number2,True,True,True,39,4,2019_Nov_20_1602,MA_Theta_Exp,3.0.7,59.916045637552344,
video/Experiment/zh_sp07_Un_Ro_2_NoThetaInAudio_NoVideo.avi,noTheta,noVideo,sp07,Un,Ro,2,1,4,flow/blocks/NoThetaInAudio_NoVideo_B.csv,,,,,,,,,0,1,1,1,0,26,26,9,,,,,,,,,-0.41944444444444445,-0.35,1,0,0,4.804022399999667,call4,-0.02638888888888889,-0.12083333333333333,1,0,0,5.348453500002506,colour3,0.37916666666666665,0.12222222222222222,1,0,0,5.852452000006451,number2,True,True,True,39,4,2019_Nov_20_1602,MA_Theta_Exp,3.0.7,59.916045637552344,
video/Experiment/zh_sp01_Ti_We_1_NoThetaInAudio_NoVideo.avi,noTheta,noVideo,sp01,Ti,We,1,1,4,flow/blocks/NoThetaInAudio_NoVideo_B.csv,,,,,,,,,0,1,1,1,0,27,27,12,,,,,,,,,-0.39166666666666666,-0.10972222222222222,1,0,0,6.438608199998271,call3,0.058333333333333334,-0.3625,1,0,0,7.588353200000711,colour4,0.4152777777777778,0.3125,1,0,0,8.386487199997646,number1,True,True,True,39,4,2019_Nov_20_1602,MA_Theta_Exp,3.0.7,59.916045637552344,
video/Experiment/zh_sp07_Dr_We_3_NoThetaInAudio_NoVideo.avi,noTheta,noVideo,sp07,Dr,We,3,1,4,flow/blocks/NoThetaInAudio_NoVideo_B.csv,,,,,,,,,0,1,1,1,0,28,28,14,,,,,,,,,-0.4041666666666667,-0.09861111111111111,1,0,0,4.630658699999913,call3,0.022222222222222223,-0.36527777777777776,1,0,0,5.270319499992183,colour4,0.38055555555555554,-0.12083333333333333,1,0,0,5.987155299997539,number3,False,True,True,39,4,2019_Nov_20_1602,MA_Theta_Exp,3.0.7,59.916045637552344,
video/Experiment/zh_sp01_Ad_Ge_2_NoThetaInAudio_NoVideo.avi,noTheta,noVideo,sp01,Ad,Ge,2,1,4,flow/blocks/NoThetaInAudio_NoVideo_B.csv,,,,,,,,,0,1,1,1,0,29,29,1,,,,,,,,,-0.41944444444444445,0.29444444444444445,1,0,0,5.880567799991695,call1,0.0375,0.3,1,0,0,7.836450300004799,colour1,0.4125,0.08611111111111111,1,0,0,9.616797099995892,number2,True,True,True,39,4,2019_Nov_20_1602,MA_Theta_Exp,3.0.7,59.916045637552344,
video/Experiment/zh_sp07_Dr_Ro_3_NoThetaInAudio_NoVideo.avi,noTheta,noVideo,sp07,Dr,Ro,3,1,4,flow/blocks/NoThetaInAudio_NoVideo_B.csv,,,,,,,,,0,1,1,1,0,30,30,26,,,,,,,,,-0.4361111111111111,0.3125,1,0,0,4.601077600003919,call1,-0.004166666666666667,-0.10833333333333334,1,0,0,5.395878300012555,colour3,0.3611111111111111,-0.1111111111111111,1,0,0,6.8246658999996725,number3,False,True,True,39,4,2019_Nov_20_1602,MA_Theta_Exp,3.0.7,59.916045637552344,
video/Experiment/zh_sp01_Dr_Ge_2_NoThetaInAudio_NoVideo.avi,noTheta,noVideo,sp01,Dr,Ge,2,1,4,flow/blocks/NoThetaInAudio_NoVideo_B.csv,,,,,,,,,0,1,1,1,0,31,31,17,,,,,,,,,-0.4027777777777778,-0.11666666666666667,1,0,0,5.203651599993464,call3,-0.018055555555555554,-0.09861111111111111,1,0,0,5.803326199995354,colour3,0.42916666666666664,0.11666666666666667,1,0,0,6.941576500001247,number2,False,False,True,39,4,2019_Nov_20_1602,MA_Theta_Exp,3.0.7,59.916045637552344,
video/Experiment/zh_sp01_Dr_Gr_2_NVocInAudio_NoVideo.avi,vocoded,noVideo,sp01,Dr,Gr,2,2,2,flow/blocks/NVocInAudio_NoVideo_A.csv,,,,,,,,,0,2,2,2,0,0,0,5,,,,,,,,,-0.38333333333333336,0.09583333333333334,1,0,0,5.8970616000005975,call2,-0.043055555555555555,0.10277777777777777,1,0,0,6.352300499987905,colour2,0.37083333333333335,0.11388888888888889,1,0,0,6.861074799991911,number2,True,True,True,39,4,2019_Nov_20_1602,MA_Theta_Exp,3.0.7,59.916045637552344,
video/Experiment/zh_sp01_Un_Ro_3_NVocInAudio_NoVideo.avi,vocoded,noVideo,sp01,Un,Ro,3,2,2,flow/blocks/NVocInAudio_NoVideo_A.csv,,,,,,,,,0,2,2,2,0,1,1,26,,,,,,,,,-0.41805555555555557,-0.3125,1,0,0,5.093554599996423,call4,-0.06805555555555555,-0.16111111111111112,1,0,0,5.5632083999953466,colour3,0.39444444444444443,-0.08055555555555556,1,0,0,6.11192550000851,number3,True,True,True,39,4,2019_Nov_20_1602,MA_Theta_Exp,3.0.7,59.916045637552344,
video/Experiment/zh_sp07_Un_We_1_NVocInAudio_NoVideo.avi,vocoded,noVideo,sp07,Un,We,1,2,2,flow/blocks/NVocInAudio_NoVideo_A.csv,,,,,,,,,0,2,2,2,0,2,2,28,,,,,,,,,-0.37777777777777777,-0.31666666666666665,1,0,0,4.421456500000204,call4,-0.015277777777777777,-0.3263888888888889,1,0,0,4.878590699998313,colour4,0.37777777777777777,0.2986111111111111,1,0,0,5.5124655999970855,number1,True,True,True,39,4,2019_Nov_20_1602,MA_Theta_Exp,3.0.7,59.916045637552344,
video/Experiment/zh_sp01_Ti_Ge_3_NVocInAudio_NoVideo.avi,vocoded,noVideo,sp01,Ti,Ge,3,2,2,flow/blocks/NVocInAudio_NoVideo_A.csv,,,,,,,,,0,2,2,2,0,3,3,18,,,,,,,,,-0.35694444444444445,-0.10694444444444444,1,0,0,5.177289300001576,call3,0.0,0.31805555555555554,1,0,0,5.742738500004634,colour1,0.44027777777777777,-0.07777777777777778,1,0,0,6.463125099995523,number3,True,True,True,39,4,2019_Nov_20_1602,MA_Theta_Exp,3.0.7,59.916045637552344,
video/Experiment/zh_sp07_Ad_We_3_NVocInAudio_NoVideo.avi,vocoded,noVideo,sp07,Ad,We,3,2,2,flow/blocks/NVocInAudio_NoVideo_A.csv,,,,,,,,,0,2,2,2,0,4,4,30,,,,,,,,,-0.35833333333333334,0.30833333333333335,1,0,0,4.488123200004338,call1,-0.009722222222222222,-0.3236111111111111,1,0,0,5.3639555999980075,colour4,0.4083333333333333,-0.09722222222222222,1,0,0,6.41913540000678,number3,True,True,True,39,4,2019_Nov_20_1602,MA_Theta_Exp,3.0.7,59.916045637552344,
video/Experiment/zh_sp01_Ad_We_1_NVocInAudio_NoVideo.avi,vocoded,noVideo,sp01,Ad,We,1,2,2,flow/blocks/NVocInAudio_NoVideo_A.csv,,,,,,,,,0,2,2,2,0,5,5,12,,,,,,,,,-0.4444444444444444,0.31666666666666665,1,0,0,5.017576800004463,call1,-0.015277777777777777,-0.2722222222222222,1,0,0,5.714762100004009,colour4,0.3861111111111111,0.32916666666666666,1,0,0,6.382921600001282,number1,True,True,True,39,4,2019_Nov_20_1602,MA_Theta_Exp,3.0.7,59.916045637552344,
video/Experiment/zh_sp07_Un_We_4_NVocInAudio_NoVideo.avi,vocoded,noVideo,sp07,Un,We,4,2,2,flow/blocks/NVocInAudio_NoVideo_A.csv,,,,,,,,,0,2,2,2,0,6,6,15,,,,,,,,,-0.4388888888888889,-0.29444444444444445,1,0,0,4.571087999996962,call4,-0.059722222222222225,-0.33194444444444443,1,0,0,5.023420500001521,colour4,0.5305555555555556,-0.30416666666666664,1,0,0,5.634836500001256,number4,True,True,True,39,4,2019_Nov_20_1602,MA_Theta_Exp,3.0.7,59.916045637552344,
video/Experiment/zh_sp07_Un_Gr_1_NVocInAudio_NoVideo.avi,vocoded,noVideo,sp07,Un,Gr,1,2,2,flow/blocks/NVocInAudio_NoVideo_A.csv,,,,,,,,,0,2,2,2,0,7,7,20,,,,,,,,,-0.375,-0.3055555555555556,1,0,0,4.656107300004805,call4,-0.030555555555555555,0.06944444444444445,1,0,0,5.263946100007161,colour2,0.3888888888888889,0.30972222222222223,1,0,0,6.32386969999061,number1,True,True,True,39,4,2019_Nov_20_1602,MA_Theta_Exp,3.0.7,59.916045637552344,
video/Experiment/zh_sp07_Ad_Gr_3_NVocInAudio_NoVideo.avi,vocoded,noVideo,sp07,Ad,Gr,3,2,2,flow/blocks/NVocInAudio_NoVideo_A.csv,,,,,,,,,0,2,2,2,0,8,8,22,,,,,,,,,-0.35,0.2833333333333333,1,0,0,4.938258900001529,call1,-0.06666666666666667,0.10555555555555556,1,0,0,5.495693999997457,colour2,0.3958333333333333,-0.10555555555555556,1,0,0,6.205520200004685,number3,True,True,True,39,4,2019_Nov_20_1602,MA_Theta_Exp,3.0.7,59.916045637552344,
video/Experiment/zh_sp07_Dr_Ro_4_NVocInAudio_NoVideo.avi,vocoded,noVideo,sp07,Dr,Ro,4,2,2,flow/blocks/NVocInAudio_NoVideo_A.csv,,,,,,,,,0,2,2,2,0,9,9,27,,,,,,,,,-0.3375,0.0875,1,0,0,4.698061100003542,call2,-0.041666666666666664,-0.13055555555555556,1,0,0,5.217177399987122,colour3,0.4,-0.3236111111111111,1,0,0,5.817142599989893,number4,True,True,True,39,4,2019_Nov_20_1602,MA_Theta_Exp,3.0.7,59.916045637552344,
video/Experiment/zh_sp01_Dr_Ge_1_NVocInAudio_NoVideo.avi,vocoded,noVideo,sp01,Dr,Ge,1,2,2,flow/blocks/NVocInAudio_NoVideo_A.csv,,,,,,,,,0,2,2,2,0,10,10,0,,,,,,,,,-0.38472222222222224,0.08055555555555556,1,0,0,5.191301899991231,call2,-0.0125,0.3013888888888889,1,0,0,5.736519699989003,colour1,0.4027777777777778,0.30277777777777776,1,0,0,6.547356100010802,number1,True,True,True,39,4,2019_Nov_20_1602,MA_Theta_Exp,3.0.7,59.916045637552344,
video/Experiment/zh_sp01_Ad_Gr_2_NVocInAudio_NoVideo.avi,vocoded,noVideo,sp01,Ad,Gr,2,2,2,flow/blocks/NVocInAudio_NoVideo_A.csv,,,,,,,,,0,2,2,2,0,11,11,21,,,,,,,,,-0.3638888888888889,0.3013888888888889,1,0,0,5.1511914000002434,call1,0.05138888888888889,0.05416666666666667,1,0,0,5.799566400004551,colour2,0.36666666666666664,0.08194444444444444,1,0,0,6.302747800000361,number2,True,True,True,39,4,2019_Nov_20_1602,MA_Theta_Exp,3.0.7,59.916045637552344,
video/Experiment/zh_sp01_Ti_Ro_3_NVocInAudio_NoVideo.avi,vocoded,noVideo,sp01,Ti,Ro,3,2,2,flow/blocks/NVocInAudio_NoVideo_A.csv,,,,,,,,,0,2,2,2,0,12,12,10,,,,,,,,,-0.3875,-0.08333333333333333,1,0,0,5.022680900001433,call3,0.0625,-0.09027777777777778,1,0,0,5.533494899995276,colour3,0.3819444444444444,-0.09166666666666666,1,0,0,6.044896999999764,number3,True,True,True,39,4,2019_Nov_20_1602,MA_Theta_Exp,3.0.7,59.916045637552344,
video/Experiment/zh_sp01_Dr_Ro_2_NVocInAudio_NoVideo.avi,vocoded,noVideo,sp01,Dr,Ro,2,2,2,flow/blocks/NVocInAudio_NoVideo_A.csv,,,,,,,,,0,2,2,2,0,13,13,9,,,,,,,,,-0.40694444444444444,0.09166666666666666,1,0,0,6.821909600010258,call2,0.03888888888888889,-0.1125,1,0,0,7.906986099987989,colour3,0.3416666666666667,0.10694444444444444,1,0,0,8.402431899987278,number2,True,True,True,39,4,2019_Nov_20_1602,MA_Theta_Exp,3.0.7,59.916045637552344,
video/Experiment/zh_sp07_Dr_We_2_NVocInAudio_NoVideo.avi,vocoded,noVideo,sp07,Dr,We,2,2,2,flow/blocks/NVocInAudio_NoVideo_A.csv,,,,,,,,,0,2,2,2,0,14,14,13,,,,,,,,,-0.37916666666666665,0.09305555555555556,1,0,0,4.7518874000088545,call2,0.03333333333333333,-0.3263888888888889,1,0,0,5.363413300001412,colour4,0.4097222222222222,0.10277777777777777,1,0,0,5.902427900000475,number2,True,True,True,39,4,2019_Nov_20_1602,MA_Theta_Exp,3.0.7,59.916045637552344,
video/Experiment/zh_sp07_Ad_Ro_1_NVocInAudio_NoVideo.avi,vocoded,noVideo,sp07,Ad,Ro,1,2,2,flow/blocks/NVocInAudio_NoVideo_A.csv,,,,,,,,,0,2,2,2,0,15,15,8,,,,,,,,,-0.40694444444444444,0.31666666666666665,1,0,0,5.12095739999495,call1,0.027777777777777776,-0.13333333333333333,1,0,0,6.166195500001777,colour3,0.37916666666666665,0.2875,1,0,0,6.961014100001194,number1,True,True,True,39,4,2019_Nov_20_1602,MA_Theta_Exp,3.0.7,59.916045637552344,
video/Experiment/zh_sp07_Ad_We_2_NVocInAudio_NoVideo.avi,vocoded,noVideo,sp07,Ad,We,2,2,2,flow/blocks/NVocInAudio_NoVideo_A.csv,,,,,,,,,0,2,2,2,0,16,16,29,,,,,,,,,-0.42083333333333334,0.2916666666666667,1,0,0,4.964169999992009,call1,0.030555555555555555,0.06666666666666667,1,0,0,8.413032299999031,colour2,0.3819444444444444,0.09305555555555556,1,0,0,8.873104199999943,number2,True,False,True,39,4,2019_Nov_20_1602,MA_Theta_Exp,3.0.7,59.916045637552344,
video/Experiment/zh_sp07_Un_Ge_3_NVocInAudio_NoVideo.avi,vocoded,noVideo,sp07,Un,Ge,3,2,2,flow/blocks/NVocInAudio_NoVideo_A.csv,,,,,,,,,0,2,2,2,0,17,17,2,,,,,,,,,-0.4027777777777778,-0.3194444444444444,1,0,0,5.320161499999813,call4,0.027777777777777776,0.30416666666666664,1,0,0,5.967859399999725,colour1,0.4166666666666667,-0.15833333333333333,1,0,0,6.572307499998715,number3,True,True,True,39,4,2019_Nov_20_1602,MA_Theta_Exp,3.0.7,59.916045637552344,
video/Experiment/zh_sp07_Un_We_3_NVocInAudio_NoVideo.avi,vocoded,noVideo,sp07,Un,We,3,2,2,flow/blocks/NVocInAudio_NoVideo_A.csv,,,,,,,,,0,2,2,2,0,18,18,14,,,,,,,,,-0.3472222222222222,-0.3486111111111111,1,0,0,4.306499199999962,call4,-0.06111111111111111,-0.3347222222222222,1,0,0,4.73781130000134,colour4,0.39166666666666666,-0.08333333333333333,1,0,0,5.379206900004647,number3,True,True,True,39,4,2019_Nov_20_1602,MA_Theta_Exp,3.0.7,59.916045637552344,
video/Experiment/zh_sp07_Ti_Ge_2_NVocInAudio_NoVideo.avi,vocoded,noVideo,sp07,Ti,Ge,2,2,2,flow/blocks/NVocInAudio_NoVideo_A.csv,,,,,,,,,0,2,2,2,0,19,19,1,,,,,,,,,-0.4041666666666667,-0.1125,1,0,0,4.9731758999987505,call3,-0.030555555555555555,0.2833333333333333,1,0,0,5.7158198000106495,colour1,0.40555555555555556,0.10138888888888889,1,0,0,7.168932100001257,number2,True,True,True,39,4,2019_Nov_20_1602,MA_Theta_Exp,3.0.7,59.916045637552344,
video/Experiment/zh_sp01_Ad_Ro_4_NVocInAudio_NoVideo.avi,vocoded,noVideo,sp01,Ad,Ro,4,2,2,flow/blocks/NVocInAudio_NoVideo_A.csv,,,,,,,,,0,2,2,2,0,20,20,11,,,,,,,,,-0.4097222222222222,0.33055555555555555,1,0,0,5.8049515999882715,call1,-0.013888888888888888,-0.13194444444444445,1,0,0,6.461146900008316,colour3,0.4027777777777778,-0.3,1,0,0,7.048057899999549,number4,True,True,True,39,4,2019_Nov_20_1602,MA_Theta_Exp,3.0.7,59.916045637552344,
video/Experiment/zh_sp07_Ti_Ro_2_NVocInAudio_NoVideo.avi,vocoded,noVideo,sp07,Ti,Ro,2,2,2,flow/blocks/NVocInAudio_NoVideo_A.csv,,,,,,,,,0,2,2,2,0,21,21,25,,,,,,,,,-0.43333333333333335,-0.13333333333333333,1,0,0,4.478665700007696,call3,-0.04861111111111111,-0.08055555555555556,1,0,0,4.94944269998814,colour3,0.35,0.12083333333333333,1,0,0,5.485041799998726,number2,True,True,True,39,4,2019_Nov_20_1602,MA_Theta_Exp,3.0.7,59.916045637552344,
video/Experiment/zh_sp01_Ti_Gr_4_NVocInAudio_NoVideo.avi,vocoded,noVideo,sp01,Ti,Gr,4,2,2,flow/blocks/NVocInAudio_NoVideo_A.csv,,,,,,,,,0,2,2,2,0,22,22,7,,,,,,,,,-0.38472222222222224,-0.11805555555555555,1,0,0,5.234422900000936,call3,-0.043055555555555555,0.09444444444444444,1,0,0,5.810038200012059,colour2,0.37222222222222223,-0.2986111111111111,1,0,0,6.4164604999969015,number4,True,True,True,39,4,2019_Nov_20_1602,MA_Theta_Exp,3.0.7,59.916045637552344,
video/Experiment/zh_sp01_Ti_Ge_1_NVocInAudio_NoVideo.avi,vocoded,noVideo,sp01,Ti,Ge,1,2,2,flow/blocks/NVocInAudio_NoVideo_A.csv,,,,,,,,,0,2,2,2,0,23,23,16,,,,,,,,,-0.36527777777777776,-0.11944444444444445,1,0,0,5.3579711000056705,call3,-0.022222222222222223,0.2902777777777778,1,0,0,5.898157699994044,colour1,0.41805555555555557,0.3125,1,0,0,6.930611999996472,number1,True,True,True,39,4,2019_Nov_20_1602,MA_Theta_Exp,3.0.7,59.916045637552344,
video/Experiment/zh_sp01_Dr_Gr_3_NVocInAudio_NoVideo.avi,vocoded,noVideo,sp01,Dr,Gr,3,2,2,flow/blocks/NVocInAudio_NoVideo_A.csv,,,,,,,,,0,2,2,2,0,24,24,6,,,,,,,,,-0.41805555555555557,0.06666666666666667,1,0,0,5.079599999997299,call2,-0.059722222222222225,0.10416666666666667,1,0,0,5.591566600007354,colour2,0.3888888888888889,-0.12222222222222222,1,0,0,6.2490102000010666,number3,True,True,True,39,4,2019_Nov_20_1602,MA_Theta_Exp,3.0.7,59.916045637552344,
video/Experiment/zh_sp01_Dr_Ge_4_NVocInAudio_NoVideo.avi,vocoded,noVideo,sp01,Dr,Ge,4,2,2,flow/blocks/NVocInAudio_NoVideo_A.csv,,,,,,,,,0,2,2,2,0,25,25,19,,,,,,,,,-0.4111111111111111,0.059722222222222225,1,0,0,5.1307207999925595,call2,-0.044444444444444446,0.3125,1,0,0,5.634050299995579,colour1,0.40555555555555556,-0.31527777777777777,1,0,0,6.365491999997175,number4,True,True,True,39,4,2019_Nov_20_1602,MA_Theta_Exp,3.0.7,59.916045637552344,
video/Experiment/zh_sp07_Dr_Gr_4_NVocInAudio_NoVideo.avi,vocoded,noVideo,sp07,Dr,Gr,4,2,2,flow/blocks/NVocInAudio_NoVideo_A.csv,,,,,,,,,0,2,2,2,0,26,26,23,,,,,,,,,-0.4,0.1,1,0,0,5.608863899993594,call2,0.016666666666666666,0.09583333333333334,1,0,0,6.0917426999949384,colour2,0.39305555555555555,-0.3055555555555556,1,0,0,6.951439799988293,number4,True,True,True,39,4,2019_Nov_20_1602,MA_Theta_Exp,3.0.7,59.916045637552344,
video/Experiment/zh_sp07_Ti_Ge_4_NVocInAudio_NoVideo.avi,vocoded,noVideo,sp07,Ti,Ge,4,2,2,flow/blocks/NVocInAudio_NoVideo_A.csv,,,,,,,,,0,2,2,2,0,27,27,3,,,,,,,,,-0.35833333333333334,-0.11388888888888889,1,0,0,4.820503399998415,call3,0.029166666666666667,0.34305555555555556,1,0,0,5.819548500003293,colour1,0.37222222222222223,-0.28055555555555556,1,0,0,6.4732214999967255,number4,True,True,True,39,4,2019_Nov_20_1602,MA_Theta_Exp,3.0.7,59.916045637552344,
video/Experiment/zh_sp07_Un_Ro_1_NVocInAudio_NoVideo.avi,vocoded,noVideo,sp07,Un,Ro,1,2,2,flow/blocks/NVocInAudio_NoVideo_A.csv,,,,,,,,,0,2,2,2,0,28,28,24,,,,,,,,,-0.4125,-0.3111111111111111,1,0,0,4.713295499997912,call4,0.009722222222222222,-0.12638888888888888,1,0,0,5.185433799997554,colour3,0.38333333333333336,0.2625,1,0,0,5.767108100000769,number1,True,True,True,39,4,2019_Nov_20_1602,MA_Theta_Exp,3.0.7,59.916045637552344,
video/Experiment/zh_sp01_Ad_Gr_1_NVocInAudio_NoVideo.avi,vocoded,noVideo,sp01,Ad,Gr,1,2,2,flow/blocks/NVocInAudio_NoVideo_A.csv,,,,,,,,,0,2,2,2,0,29,29,4,,,,,,,,,-0.4041666666666667,0.29444444444444445,1,0,0,5.374733000004198,call1,-0.002777777777777778,0.09027777777777778,1,0,0,5.8540878000058,colour2,0.3888888888888889,0.29305555555555557,1,0,0,6.324467300000833,number1,True,True,True,39,4,2019_Nov_20_1602,MA_Theta_Exp,3.0.7,59.916045637552344,
video/Experiment/zh_sp01_Ti_We_4_NVocInAudio_NoVideo.avi,vocoded,noVideo,sp01,Ti,We,4,2,2,flow/blocks/NVocInAudio_NoVideo_A.csv,,,,,,,,,0,2,2,2,0,30,30,31,,,,,,,,,-0.3861111111111111,-0.09722222222222222,1,0,0,6.508384300002945,call3,-0.0125,-0.3,1,0,0,7.024261800004751,colour4,0.35555555555555557,-0.3472222222222222,1,0,0,7.562107499994454,number4,True,True,True,39,4,2019_Nov_20_1602,MA_Theta_Exp,3.0.7,59.916045637552344,
video/Experiment/zh_sp01_Un_Ge_2_NVocInAudio_NoVideo.avi,vocoded,noVideo,sp01,Un,Ge,2,2,2,flow/blocks/NVocInAudio_NoVideo_A.csv,,,,,,,,,0,2,2,2,0,31,31,17,,,,,,,,,-0.4083333333333333,-0.30694444444444446,1,0,0,5.49840110000514,call4,0.0125,0.28055555555555556,1,0,0,6.173965399997542,colour1,0.3763888888888889,0.1125,1,0,0,6.681336099994951,number2,True,True,True,39,4,2019_Nov_20_1602,MA_Theta_Exp,3.0.7,59.916045637552344,
video/Experiment/zh_sp07_Un_Ge_4_NoThetaInAudio_GlobalThetaInVideo.avi,noTheta,plusVideo,sp07,Un,Ge,4,3,3,flow/blocks/NoThetaInAudio_GlobalThetaInVideo_B.csv,,,,,,,,,0,3,3,3,0,0,0,19,,,,,,,,,-0.3888888888888889,-0.33055555555555555,1,0,0,4.75472909999371,call4,-0.002777777777777778,0.30416666666666664,1,0,0,5.479827400005888,colour1,0.37777777777777777,-0.0763888888888889,1,0,0,6.120429399990826,number3,True,True,False,39,4,2019_Nov_20_1602,MA_Theta_Exp,3.0.7,59.916045637552344,
video/Experiment/zh_sp01_Un_Gr_2_NoThetaInAudio_GlobalThetaInVideo.avi,noTheta,plusVideo,sp01,Un,Gr,2,3,3,flow/blocks/NoThetaInAudio_GlobalThetaInVideo_B.csv,,,,,,,,,0,3,3,3,0,1,1,5,,,,,,,,,-0.41388888888888886,-0.33194444444444443,1,0,0,5.261844499997096,call4,0.0,0.2513888888888889,1,0,0,6.131342900000163,colour1,0.3958333333333333,0.08888888888888889,1,0,0,6.911760399991181,number2,True,False,True,39,4,2019_Nov_20_1602,MA_Theta_Exp,3.0.7,59.916045637552344,
video/Experiment/zh_sp07_Ad_Ro_3_NoThetaInAudio_GlobalThetaInVideo.avi,noTheta,plusVideo,sp07,Ad,Ro,3,3,3,flow/blocks/NoThetaInAudio_GlobalThetaInVideo_B.csv,,,,,,,,,0,3,3,3,0,2,2,10,,,,,,,,,-0.375,-0.11388888888888889,1,0,0,4.393656200001715,call3,-0.07222222222222222,-0.13472222222222222,1,0,0,4.777671699994244,colour3,0.32916666666666666,-0.14444444444444443,1,0,0,5.122993700002553,number3,False,True,True,39,4,2019_Nov_20_1602,MA_Theta_Exp,3.0.7,59.916045637552344,
video/Experiment/zh_sp01_Dr_We_1_NoThetaInAudio_GlobalThetaInVideo.avi,noTheta,plusVideo,sp01,Dr,We,1,3,3,flow/blocks/NoThetaInAudio_GlobalThetaInVideo_B.csv,,,,,,,,,0,3,3,3,0,3,3,28,,,,,,,,,-0.4111111111111111,-0.3277777777777778,1,0,0,5.215203899992048,call4,-0.015277777777777777,-0.32222222222222224,1,0,0,5.715782999992371,colour4,0.37083333333333335,0.25277777777777777,1,0,0,6.280037699994864,number1,False,True,True,39,4,2019_Nov_20_1602,MA_Theta_Exp,3.0.7,59.916045637552344,
video/Experiment/zh_sp07_Dr_Gr_1_NoThetaInAudio_GlobalThetaInVideo.avi,noTheta,plusVideo,sp07,Dr,Gr,1,3,3,flow/blocks/NoThetaInAudio_GlobalThetaInVideo_B.csv,,,,,,,,,0,3,3,3,0,4,4,20,,,,,,,,,-0.4083333333333333,-0.3625,1,0,0,4.8729145000106655,call4,-0.0125,0.06944444444444445,1,0,0,5.486973000006401,colour2,0.37083333333333335,0.35138888888888886,1,0,0,5.992167900010827,number1,False,True,True,39,4,2019_Nov_20_1602,MA_Theta_Exp,3.0.7,59.916045637552344,
video/Experiment/zh_sp01_Ad_Ge_4_NoThetaInAudio_GlobalThetaInVideo.avi,noTheta,plusVideo,sp01,Ad,Ge,4,3,3,flow/blocks/NoThetaInAudio_GlobalThetaInVideo_B.csv,,,,,,,,,0,3,3,3,0,5,5,3,,,,,,,,,-0.3958333333333333,0.33055555555555555,1,0,0,5.175518299991381,call1,0.030555555555555555,0.3111111111111111,1,0,0,5.656638700005715,colour1,0.3763888888888889,-0.33194444444444443,1,0,0,6.318180599992047,number4,True,True,True,39,4,2019_Nov_20_1602,MA_Theta_Exp,3.0.7,59.916045637552344,
video/Experiment/zh_sp07_Ad_Ro_2_NoThetaInAudio_GlobalThetaInVideo.avi,noTheta,plusVideo,sp07,Ad,Ro,2,3,3,flow/blocks/NoThetaInAudio_GlobalThetaInVideo_B.csv,,,,,,,,,0,3,3,3,0,6,6,25,,,,,,,,,-0.4,0.33611111111111114,1,0,0,5.407937700001639,call1,0.0,-0.08611111111111111,1,0,0,6.070686899998691,colour3,0.39861111111111114,0.14583333333333334,1,0,0,6.58921669999836,number2,True,True,True,39,4,2019_Nov_20_1602,MA_Theta_Exp,3.0.7,59.916045637552344,
video/Experiment/zh_sp07_Un_Gr_3_NoThetaInAudio_GlobalThetaInVideo.avi,noTheta,plusVideo,sp07,Un,Gr,3,3,3,flow/blocks/NoThetaInAudio_GlobalThetaInVideo_B.csv,,,,,,,,,0,3,3,3,0,7,7,6,,,,,,,,,-0.3875,-0.30972222222222223,1,0,0,4.177886599994963,call4,0.027777777777777776,0.08611111111111111,1,0,0,4.756274800005485,colour2,0.35555555555555557,-0.12638888888888888,1,0,0,5.370732199997292,number3,True,True,True,39,4,2019_Nov_20_1602,MA_Theta_Exp,3.0.7,59.916045637552344,
video/Experiment/zh_sp07_Dr_Ro_1_NoThetaInAudio_GlobalThetaInVideo.avi,noTheta,plusVideo,sp07,Dr,Ro,1,3,3,flow/blocks/NoThetaInAudio_GlobalThetaInVideo_B.csv,,,,,,,,,0,3,3,3,0,8,8,24,,,,,,,,,-0.40694444444444444,-0.10833333333333334,1,0,0,4.730575299996417,call3,-0.011111111111111112,-0.11527777777777778,1,0,0,5.074249500001315,colour3,0.34444444444444444,0.29305555555555557,1,0,0,5.588858999995864,number1,False,True,True,39,4,2019_Nov_20_1602,MA_Theta_Exp,3.0.7,59.916045637552344,
video/Experiment/zh_sp01_Ad_Ge_3_NoThetaInAudio_GlobalThetaInVideo.avi,noTheta,plusVideo,sp01,Ad,Ge,3,3,3,flow/blocks/NoThetaInAudio_GlobalThetaInVideo_B.csv,,,,,,,,,0,3,3,3,0,9,9,18,,,,,,,,,-0.40694444444444444,0.31527777777777777,1,0,0,4.854824499998358,call1,-0.043055555555555555,0.2986111111111111,1,0,0,5.409168600002886,colour1,0.4444444444444444,-0.12916666666666668,1,0,0,6.052521000005072,number3,True,True,True,39,4,2019_Nov_20_1602,MA_Theta_Exp,3.0.7,59.916045637552344,
video/Experiment/zh_sp07_Un_Ro_2_NoThetaInAudio_GlobalThetaInVideo.avi,noTheta,plusVideo,sp07,Un,Ro,2,3,3,flow/blocks/NoThetaInAudio_GlobalThetaInVideo_B.csv,,,,,,,,,0,3,3,3,0,10,10,9,,,,,,,,,-0.38472222222222224,-0.29305555555555557,1,0,0,4.639579099995899,call4,-0.013888888888888888,-0.11944444444444445,1,0,0,5.086603299991111,colour3,0.3680555555555556,0.3111111111111111,1,0,0,5.636698600006639,number1,True,True,False,39,4,2019_Nov_20_1602,MA_Theta_Exp,3.0.7,59.916045637552344,
video/Experiment/zh_sp07_Dr_We_3_NoThetaInAudio_GlobalThetaInVideo.avi,noTheta,plusVideo,sp07,Dr,We,3,3,3,flow/blocks/NoThetaInAudio_GlobalThetaInVideo_B.csv,,,,,,,,,0,3,3,3,0,11,11,14,,,,,,,,,-0.3680555555555556,-0.33194444444444443,1,0,0,4.903533600008814,call4,-0.0625,-0.3333333333333333,1,0,0,5.279297100001713,colour4,0.37777777777777777,-0.10833333333333334,1,0,0,5.793803700013086,number3,False,True,True,39,4,2019_Nov_20_1602,MA_Theta_Exp,3.0.7,59.916045637552344,
video/Experiment/zh_sp01_Ti_Ro_4_NoThetaInAudio_GlobalThetaInVideo.avi,noTheta,plusVideo,sp01,Ti,Ro,4,3,3,flow/blocks/NoThetaInAudio_GlobalThetaInVideo_B.csv,,,,,,,,,0,3,3,3,0,12,12,11,,,,,,,,,-0.35555555555555557,-0.2763888888888889,1,0,0,4.983147899998585,call4,0.04583333333333333,-0.12083333333333333,1,0,0,5.8977801999863,colour3,0.3819444444444444,-0.30416666666666664,1,0,0,6.382534999997006,number4,False,True,True,39,4,2019_Nov_20_1602,MA_Theta_Exp,3.0.7,59.916045637552344,
video/Experiment/zh_sp07_Ti_Gr_3_NoThetaInAudio_GlobalThetaInVideo.avi,noTheta,plusVideo,sp07,Ti,Gr,3,3,3,flow/blocks/NoThetaInAudio_GlobalThetaInVideo_B.csv,,,,,,,,,0,3,3,3,0,13,13,22,,,,,,,,,-0.4375,-0.10555555555555556,1,0,0,5.268562500001281,call3,-0.013888888888888888,-0.125,1,0,0,5.774282099999255,colour3,0.011111111111111112,0.07916666666666666,1,0,0,6.4100972000014735,number3,True,False,True,39,4,2019_Nov_20_1602,MA_Theta_Exp,3.0.7,59.916045637552344,
video/Experiment/zh_sp01_Un_Ro_4_NoThetaInAudio_GlobalThetaInVideo.avi,noTheta,plusVideo,sp01,Un,Ro,4,3,3,flow/blocks/NoThetaInAudio_GlobalThetaInVideo_B.csv,,,,,,,,,0,3,3,3,0,14,14,27,,,,,,,,,-0.3333333333333333,-0.29305555555555557,1,0,0,5.473389999999199,call4,0.0375,-0.11944444444444445,1,0,0,5.940902300004382,colour3,0.32222222222222224,-0.29583333333333334,1,0,0,6.379641900013667,number4,True,True,True,39,4,2019_Nov_20_1602,MA_Theta_Exp,3.0.7,59.916045637552344,
video/Experiment/zh_sp01_Ad_Ge_2_NoThetaInAudio_GlobalThetaInVideo.avi,noTheta,plusVideo,sp01,Ad,Ge,2,3,3,flow/blocks/NoThetaInAudio_GlobalThetaInVideo_B.csv,,,,,,,,,0,3,3,3,0,15,15,1,,,,,,,,,-0.42083333333333334,0.3347222222222222,1,0,0,5.980425299989292,call1,-0.03194444444444444,0.29305555555555557,1,0,0,6.534036700002616,colour1,0.39305555555555555,0.1125,1,0,0,8.464056999990134,number2,True,True,True,39,4,2019_Nov_20_1602,MA_Theta_Exp,3.0.7,59.916045637552344,
video/Experiment/zh_sp07_Dr_We_4_NoThetaInAudio_GlobalThetaInVideo.avi,noTheta,plusVideo,sp07,Dr,We,4,3,3,flow/blocks/NoThetaInAudio_GlobalThetaInVideo_B.csv,,,,,,,,,0,3,3,3,0,16,16,15,,,,,,,,,-0.3763888888888889,-0.325,1,0,0,4.681213300005766,call4,0.02361111111111111,-0.32916666666666666,1,0,0,5.1250033999967854,colour4,0.4527777777777778,-0.09027777777777778,1,0,0,5.60608849998971,number3,False,True,False,39,4,2019_Nov_20_1602,MA_Theta_Exp,3.0.7,59.916045637552344,
video/Experiment/zh_sp01_Un_Gr_4_NoThetaInAudio_GlobalThetaInVideo.avi,noTheta,plusVideo,sp01,Un,Gr,4,3,3,flow/blocks/NoThetaInAudio_GlobalThetaInVideo_B.csv,,,,,,,,,0,3,3,3,0,17,17,23,,,,,,,,,-0.37083333333333335,-0.3013888888888889,1,0,0,5.3377860999898985,call4,0.025,0.08055555555555556,1,0,0,5.8490888999949675,colour2,0.38055555555555554,-0.2972222222222222,1,0,0,6.299276099991403,number4,True,True,True,39,4,2019_Nov_20_1602,MA_Theta_Exp,3.0.7,59.916045637552344,
video/Experiment/zh_sp07_Ti_We_2_NoThetaInAudio_GlobalThetaInVideo.avi,noTheta,plusVideo,sp07,Ti,We,2,3,3,flow/blocks/NoThetaInAudio_GlobalThetaInVideo_B.csv,,,,,,,,,0,3,3,3,0,18,18,29,,,,,,,,,-0.4305555555555556,0.10694444444444444,1,0,0,5.301035199998296,call2,0.05138888888888889,-0.35,1,0,0,5.8525857999920845,colour4,0.3888888888888889,0.08055555555555556,1,0,0,6.507660900009796,number2,False,True,True,39,4,2019_Nov_20_1602,MA_Theta_Exp,3.0.7,59.916045637552344,
video/Experiment/zh_sp01_Dr_Ro_3_NoThetaInAudio_GlobalThetaInVideo.avi,noTheta,plusVideo,sp01,Dr,Ro,3,3,3,flow/blocks/NoThetaInAudio_GlobalThetaInVideo_B.csv,,,,,,,,,0,3,3,3,0,19,19,26,,,,,,,,,-0.37916666666666665,-0.1361111111111111,1,0,0,5.65387809999811,call3,-0.029166666666666667,-0.11805555555555555,1,0,0,6.21163059999526,colour3,0.425,-0.09166666666666666,1,0,0,6.788831899990328,number3,False,True,True,39,4,2019_Nov_20_1602,MA_Theta_Exp,3.0.7,59.916045637552344,
video/Experiment/zh_sp07_Ad_We_4_NoThetaInAudio_GlobalThetaInVideo.avi,noTheta,plusVideo,sp07,Ad,We,4,3,3,flow/blocks/NoThetaInAudio_GlobalThetaInVideo_B.csv,,,,,,,,,0,3,3,3,0,20,20,31,,,,,,,,,-0.31527777777777777,-0.3138888888888889,1,0,0,4.601950500000385,call4,0.04722222222222222,-0.3416666666666667,1,0,0,4.886689099992509,colour4,0.3458333333333333,-0.2916666666666667,1,0,0,5.259669100007159,number4,False,True,True,39,4,2019_Nov_20_1602,MA_Theta_Exp,3.0.7,59.916045637552344,
video/Experiment/zh_sp01_Ti_We_3_NoThetaInAudio_GlobalThetaInVideo.avi,noTheta,plusVideo,sp01,Ti,We,3,3,3,flow/blocks/NoThetaInAudio_GlobalThetaInVideo_B.csv,,,,,,,,,0,3,3,3,0,21,21,30,,,,,,,,,-0.45416666666666666,-0.10833333333333334,1,0,0,5.190652500008582,call3,-0.0125,-0.3333333333333333,1,0,0,5.673067900002934,colour4,0.42916666666666664,-0.16805555555555557,1,0,0,6.134577200005879,number3,True,True,True,39,4,2019_Nov_20_1602,MA_Theta_Exp,3.0.7,59.916045637552344,
video/Experiment/zh_sp01_Ti_We_1_NoThetaInAudio_GlobalThetaInVideo.avi,noTheta,plusVideo,sp01,Ti,We,1,3,3,flow/blocks/NoThetaInAudio_GlobalThetaInVideo_B.csv,,,,,,,,,0,3,3,3,0,22,22,12,,,,,,,,,-0.41944444444444445,-0.12222222222222222,1,0,0,5.17611859999306,call3,-0.0125,-0.3472222222222222,1,0,0,5.8278600000048755,colour4,0.41388888888888886,0.3125,1,0,0,6.71524409999256,number1,True,True,True,39,4,2019_Nov_20_1602,MA_Theta_Exp,3.0.7,59.916045637552344,
video/Experiment/zh_sp07_Ti_Gr_1_NoThetaInAudio_GlobalThetaInVideo.avi,noTheta,plusVideo,sp07,Ti,Gr,1,3,3,flow/blocks/NoThetaInAudio_GlobalThetaInVideo_B.csv,,,,,,,,,0,3,3,3,0,23,23,4,,,,,,,,,-0.41944444444444445,-0.10833333333333334,1,0,0,4.60384029999841,call3,0.041666666666666664,0.08888888888888889,1,0,0,5.070980700009386,colour2,0.47638888888888886,0.3458333333333333,1,0,0,5.603517399998964,number1,True,True,True,39,4,2019_Nov_20_1602,MA_Theta_Exp,3.0.7,59.916045637552344,
video/Experiment/zh_sp01_Un_Ge_1_NoThetaInAudio_GlobalThetaInVideo.avi,noTheta,plusVideo,sp01,Un,Ge,1,3,3,flow/blocks/NoThetaInAudio_GlobalThetaInVideo_B.csv,,,,,,,,,0,3,3,3,0,24,24,0,,,,,,,,,-0.3625,-0.3055555555555556,1,0,0,5.58855109999422,call4,0.04027777777777778,0.31805555555555554,1,0,0,6.268832200003089,colour1,0.44722222222222224,0.30416666666666664,1,0,0,6.809069700000691,number1,True,True,True,39,4,2019_Nov_20_1602,MA_Theta_Exp,3.0.7,59.916045637552344,
video/Experiment/zh_sp01_Dr_Ge_3_NoThetaInAudio_GlobalThetaInVideo.avi,noTheta,plusVideo,sp01,Dr,Ge,3,3,3,flow/blocks/NoThetaInAudio_GlobalThetaInVideo_B.csv,,,,,,,,,0,3,3,3,0,25,25,2,,,,,,,,,-0.4236111111111111,-0.30416666666666664,1,0,0,5.184697699995013,call4,0.05277777777777778,0.34305555555555556,1,0,0,5.82970899999782,colour1,0.3416666666666667,-0.10833333333333334,1,0,0,6.486883799996576,number3,False,True,True,39,4,2019_Nov_20_1602,MA_Theta_Exp,3.0.7,59.916045637552344,
video/Experiment/zh_sp01_Dr_Ge_2_NoThetaInAudio_GlobalThetaInVideo.avi,noTheta,plusVideo,sp01,Dr,Ge,2,3,3,flow/blocks/NoThetaInAudio_GlobalThetaInVideo_B.csv,,,,,,,,,0,3,3,3,0,26,26,17,,,,,,,,,-0.38472222222222224,-0.14027777777777778,1,0,0,6.0176540999964345,call3,0.022222222222222223,0.28194444444444444,1,0,0,6.75609350000741,colour1,0.4027777777777778,0.05555555555555555,1,0,0,7.254619699990144,number2,False,True,True,39,4,2019_Nov_20_1602,MA_Theta_Exp,3.0.7,59.916045637552344,
video/Experiment/zh_sp07_Ad_Gr_4_NoThetaInAudio_GlobalThetaInVideo.avi,noTheta,plusVideo,sp07,Ad,Gr,4,3,3,flow/blocks/NoThetaInAudio_GlobalThetaInVideo_B.csv,,,,,,,,,0,3,3,3,0,27,27,7,,,,,,,,,-0.4263888888888889,0.2902777777777778,1,0,0,5.187129999991157,call1,0.06805555555555555,0.06944444444444445,1,0,0,5.70441170000413,colour2,0.36944444444444446,-0.3013888888888889,1,0,0,6.302490500005661,number4,True,True,True,39,4,2019_Nov_20_1602,MA_Theta_Exp,3.0.7,59.916045637552344,
video/Experiment/zh_sp01_Un_We_2_NoThetaInAudio_GlobalThetaInVideo.avi,noTheta,plusVideo,sp01,Un,We,2,3,3,flow/blocks/NoThetaInAudio_GlobalThetaInVideo_B.csv,,,,,,,,,0,3,3,3,0,28,28,13,,,,,,,,,-0.35833333333333334,-0.26666666666666666,1,0,0,5.449970200003008,call4,0.002777777777777778,-0.2916666666666667,1,0,0,5.83641859999625,colour4,0.3819444444444444,0.08194444444444444,1,0,0,6.291501599989715,number2,True,True,True,39,4,2019_Nov_20_1602,MA_Theta_Exp,3.0.7,59.916045637552344,
video/Experiment/zh_sp07_Ad_Ge_1_NoThetaInAudio_GlobalThetaInVideo.avi,noTheta,plusVideo,sp07,Ad,Ge,1,3,3,flow/blocks/NoThetaInAudio_GlobalThetaInVideo_B.csv,,,,,,,,,0,3,3,3,0,29,29,16,,,,,,,,,-0.3888888888888889,0.30416666666666664,1,0,0,4.598003400009475,call1,0.015277777777777777,0.30416666666666664,1,0,0,5.000304200002574,colour1,0.4027777777777778,0.2972222222222222,1,0,0,5.353128399990965,number1,True,True,True,39,4,2019_Nov_20_1602,MA_Theta_Exp,3.0.7,59.916045637552344,
video/Experiment/zh_sp01_Ti_Ro_1_NoThetaInAudio_GlobalThetaInVideo.avi,noTheta,plusVideo,sp01,Ti,Ro,1,3,3,flow/blocks/NoThetaInAudio_GlobalThetaInVideo_B.csv,,,,,,,,,0,3,3,3,0,30,30,8,,,,,,,,,-0.3902777777777778,-0.13194444444444445,1,0,0,5.363676499997382,call3,-0.013888888888888888,-0.09305555555555556,1,0,0,6.501602700009244,colour3,0.39166666666666666,0.32916666666666666,1,0,0,7.19136840000283,number1,True,True,True,39,4,2019_Nov_20_1602,MA_Theta_Exp,3.0.7,59.916045637552344,
video/Experiment/zh_sp07_Ti_Gr_2_NoThetaInAudio_GlobalThetaInVideo.avi,noTheta,plusVideo,sp07,Ti,Gr,2,3,3,flow/blocks/NoThetaInAudio_GlobalThetaInVideo_B.csv,,,,,,,,,0,3,3,3,0,31,31,21,,,,,,,,,-0.4236111111111111,-0.11944444444444445,1,0,0,4.689629300002707,call3,-0.06527777777777778,0.08472222222222223,1,0,0,5.222590299992589,colour2,0.4083333333333333,0.33611111111111114,1,0,0,5.725361899996642,number1,True,True,False,39,4,2019_Nov_20_1602,MA_Theta_Exp,3.0.7,59.916045637552344,
video/Experiment/zh_sp01_Ad_We_2_GlobalTheta_NoVideo.avi,globalTheta,noVideo,sp01,Ad,We,2,4,5,flow/blocks/GlobalTheta_NoVideo_A.csv,,,,,,,,,0,4,4,4,0,0,0,29,,,,,,,,,-0.3972222222222222,0.3388888888888889,1,0,0,5.644008799994481,call1,0.0625,-0.30833333333333335,1,0,0,6.298834000001079,colour4,0.3638888888888889,0.12083333333333333,1,0,0,6.907911700007389,number2,True,True,True,39,4,2019_Nov_20_1602,MA_Theta_Exp,3.0.7,59.916045637552344,
video/Experiment/zh_sp07_Ti_Ro_2_GlobalTheta_NoVideo.avi,globalTheta,noVideo,sp07,Ti,Ro,2,4,5,flow/blocks/GlobalTheta_NoVideo_A.csv,,,,,,,,,0,4,4,4,0,1,1,25,,,,,,,,,-0.3972222222222222,-0.11527777777777778,1,0,0,5.482058599998709,call3,-0.013888888888888888,0.27361111111111114,1,0,0,7.2319856000103755,colour1,0.37222222222222223,0.06944444444444445,1,0,0,7.842156300001079,number2,True,False,True,39,4,2019_Nov_20_1602,MA_Theta_Exp,3.0.7,59.916045637552344,
video/Experiment/zh_sp01_Dr_Gr_2_GlobalTheta_NoVideo.avi,globalTheta,noVideo,sp01,Dr,Gr,2,4,5,flow/blocks/GlobalTheta_NoVideo_A.csv,,,,,,,,,0,4,4,4,0,2,2,5,,,,,,,,,-0.4152777777777778,-0.11805555555555555,1,0,0,5.386072499997681,call3,0.03333333333333333,0.06527777777777778,1,0,0,5.898938400001498,colour2,0.3736111111111111,0.0625,1,0,0,6.408197099997778,number2,False,True,True,39,4,2019_Nov_20_1602,MA_Theta_Exp,3.0.7,59.916045637552344,
video/Experiment/zh_sp01_Ti_Ro_3_GlobalTheta_NoVideo.avi,globalTheta,noVideo,sp01,Ti,Ro,3,4,5,flow/blocks/GlobalTheta_NoVideo_A.csv,,,,,,,,,0,4,4,4,0,3,3,10,,,,,,,,,-0.38333333333333336,-0.12083333333333333,1,0,0,4.808213900003466,call3,-0.013888888888888888,-0.10416666666666667,1,0,0,5.535340299989912,colour3,0.3638888888888889,-0.1125,1,0,0,5.991149900000892,number3,True,True,True,39,4,2019_Nov_20_1602,MA_Theta_Exp,3.0.7,59.916045637552344,
video/Experiment/zh_sp01_Ad_We_1_GlobalTheta_NoVideo.avi,globalTheta,noVideo,sp01,Ad,We,1,4,5,flow/blocks/GlobalTheta_NoVideo_A.csv,,,,,,,,,0,4,4,4,0,4,4,12,,,,,,,,,-0.39861111111111114,0.30833333333333335,1,0,0,5.210635299998103,call1,0.018055555555555554,-0.35833333333333334,1,0,0,5.890139299997827,colour4,0.4222222222222222,0.32222222222222224,1,0,0,6.6069543000048725,number1,True,True,True,39,4,2019_Nov_20_1602,MA_Theta_Exp,3.0.7,59.916045637552344,
video/Experiment/zh_sp07_Ad_Ro_1_GlobalTheta_NoVideo.avi,globalTheta,noVideo,sp07,Ad,Ro,1,4,5,flow/blocks/GlobalTheta_NoVideo_A.csv,,,,,,,,,0,4,4,4,0,5,5,8,,,,,,,,,-0.3763888888888889,-0.3055555555555556,1,0,0,4.239868499993463,call4,-0.013888888888888888,-0.12777777777777777,1,0,0,4.637069100004737,colour3,0.48055555555555557,0.34444444444444444,1,0,0,5.053260000000591,number1,False,True,True,39,4,2019_Nov_20_1602,MA_Theta_Exp,3.0.7,59.916045637552344,
video/Experiment/zh_sp07_Un_Ge_3_GlobalTheta_NoVideo.avi,globalTheta,noVideo,sp07,Un,Ge,3,4,5,flow/blocks/GlobalTheta_NoVideo_A.csv,,,,,,,,,0,4,4,4,0,6,6,2,,,,,,,,,-0.4222222222222222,-0.32083333333333336,1,0,0,4.537924500007648,call4,0.0,0.30972222222222223,1,0,0,5.193602700004703,colour1,0.4041666666666667,-0.10972222222222222,1,0,0,6.50410489999922,number3,True,True,True,39,4,2019_Nov_20_1602,MA_Theta_Exp,3.0.7,59.916045637552344,
video/Experiment/zh_sp01_Dr_Ge_4_GlobalTheta_NoVideo.avi,globalTheta,noVideo,sp01,Dr,Ge,4,4,5,flow/blocks/GlobalTheta_NoVideo_A.csv,,,,,,,,,0,4,4,4,0,7,7,19,,,,,,,,,-0.4152777777777778,-0.11527777777777778,1,0,0,5.321629900005064,call3,0.034722222222222224,0.30833333333333335,1,0,0,6.49364990000322,colour1,0.4083333333333333,-0.11944444444444445,1,0,0,8.32630600000266,number3,False,True,False,39,4,2019_Nov_20_1602,MA_Theta_Exp,3.0.7,59.916045637552344,
video/Experiment/zh_sp07_Dr_Ro_2_GlobalTheta_NoVideo.avi,globalTheta,noVideo,sp07,Dr,Ro,2,4,5,flow/blocks/GlobalTheta_NoVideo_A.csv,,,,,,,,,0,4,4,4,0,8,8,9,,,,,,,,,-0.3486111111111111,0.08333333333333333,1,0,0,4.517862300010165,call2,0.029166666666666667,0.09444444444444444,1,0,0,4.781185400002869,colour2,0.44166666666666665,0.09583333333333334,1,0,0,5.0627530999918235,number2,True,False,True,39,4,2019_Nov_20_1602,MA_Theta_Exp,3.0.7,59.916045637552344,
video/Experiment/zh_sp01_Ad_Ro_4_GlobalTheta_NoVideo.avi,globalTheta,noVideo,sp01,Ad,Ro,4,4,5,flow/blocks/GlobalTheta_NoVideo_A.csv,,,,,,,,,0,4,4,4,0,9,9,11,,,,,,,,,-0.3875,-0.10833333333333334,1,0,0,5.551925200008554,call3,0.03611111111111111,-0.1388888888888889,1,0,0,6.016006999998353,colour3,0.3972222222222222,-0.14305555555555555,1,0,0,6.365471199998865,number3,False,True,False,39,4,2019_Nov_20_1602,MA_Theta_Exp,3.0.7,59.916045637552344,
video/Experiment/zh_sp07_Ad_Gr_3_GlobalTheta_NoVideo.avi,globalTheta,noVideo,sp07,Ad,Gr,3,4,5,flow/blocks/GlobalTheta_NoVideo_A.csv,,,,,,,,,0,4,4,4,0,10,10,22,,,,,,,,,-0.3763888888888889,0.2972222222222222,1,0,0,4.719276699994225,call1,0.016666666666666666,0.11944444444444445,1,0,0,5.142709899999318,colour2,0.375,-0.1111111111111111,1,0,0,7.915693499991903,number3,True,True,True,39,4,2019_Nov_20_1602,MA_Theta_Exp,3.0.7,59.916045637552344,
video/Experiment/zh_sp07_Un_Gr_1_GlobalTheta_NoVideo.avi,globalTheta,noVideo,sp07,Un,Gr,1,4,5,flow/blocks/GlobalTheta_NoVideo_A.csv,,,,,,,,,0,4,4,4,0,11,11,20,,,,,,,,,-0.39861111111111114,-0.14444444444444443,1,0,0,4.813544399992679,call3,0.058333333333333334,0.08194444444444444,1,0,0,5.279530200001318,colour2,0.36944444444444446,0.3,1,0,0,5.715369500001543,number1,False,True,True,39,4,2019_Nov_20_1602,MA_Theta_Exp,3.0.7,59.916045637552344,
video/Experiment/zh_sp01_Un_We_3_GlobalTheta_NoVideo.avi,globalTheta,noVideo,sp01,Un,We,3,4,5,flow/blocks/GlobalTheta_NoVideo_A.csv,,,,,,,,,0,4,4,4,0,12,12,14,,,,,,,,,-0.4597222222222222,-0.36527777777777776,1,0,0,5.033279000010225,call4,0.009722222222222222,0.10833333333333334,1,0,0,5.68804779999482,colour2,0.3472222222222222,-0.08055555555555556,1,0,0,6.121599399994011,number3,True,False,True,39,4,2019_Nov_20_1602,MA_Theta_Exp,3.0.7,59.916045637552344,
video/Experiment/zh_sp07_Ti_We_4_GlobalTheta_NoVideo.avi,globalTheta,noVideo,sp07,Ti,We,4,4,5,flow/blocks/GlobalTheta_NoVideo_A.csv,,,,,,,,,0,4,4,4,0,13,13,31,,,,,,,,,-0.4305555555555556,-0.1388888888888889,1,0,0,4.735000700005912,call3,-0.02638888888888889,0.04861111111111111,1,0,0,5.167269700003089,colour2,0.38333333333333336,-0.3194444444444444,1,0,0,6.2089245000097435,number4,True,False,True,39,4,2019_Nov_20_1602,MA_Theta_Exp,3.0.7,59.916045637552344,
video/Experiment/zh_sp07_Un_We_4_GlobalTheta_NoVideo.avi,globalTheta,noVideo,sp07,Un,We,4,4,5,flow/blocks/GlobalTheta_NoVideo_A.csv,,,,,,,,,0,4,4,4,0,14,14,15,,,,,,,,,-0.3541666666666667,0.11666666666666667,1,0,0,4.416646199999377,call2,-0.0125,0.10277777777777777,1,0,0,4.683726299990667,colour2,0.35555555555555557,0.1,1,0,0,5.020257199998014,number2,False,False,False,39,4,2019_Nov_20_1602,MA_Theta_Exp,3.0.7,59.916045637552344,
video/Experiment/zh_sp01_Dr_Ro_4_GlobalTheta_NoVideo.avi,globalTheta,noVideo,sp01,Dr,Ro,4,4,5,flow/blocks/GlobalTheta_NoVideo_A.csv,,,,,,,,,0,4,4,4,0,15,15,27,,,,,,,,,-0.4125,-0.125,1,0,0,5.11683020000055,call3,0.03611111111111111,-0.13333333333333333,1,0,0,5.522941000002902,colour3,0.4305555555555556,-0.25277777777777777,1,0,0,6.039625899997191,number4,False,True,True,39,4,2019_Nov_20_1602,MA_Theta_Exp,3.0.7,59.916045637552344,
video/Experiment/zh_sp07_Ti_Gr_4_GlobalTheta_NoVideo.avi,globalTheta,noVideo,sp07,Ti,Gr,4,4,5,flow/blocks/GlobalTheta_NoVideo_A.csv,,,,,,,,,0,4,4,4,0,16,16,7,,,,,,,,,-0.4486111111111111,-0.12361111111111112,1,0,0,4.662229699999443,call3,-0.05416666666666667,0.1,1,0,0,5.0756018999964,colour2,0.3763888888888889,-0.14583333333333334,1,0,0,5.633408900001086,number3,True,True,False,39,4,2019_Nov_20_1602,MA_Theta_Exp,3.0.7,59.916045637552344,
video/Experiment/zh_sp07_Ti_Ge_2_GlobalTheta_NoVideo.avi,globalTheta,noVideo,sp07,Ti,Ge,2,4,5,flow/blocks/GlobalTheta_NoVideo_A.csv,,,,,,,,,0,4,4,4,0,17,17,1,,,,,,,,,-0.425,-0.10694444444444444,1,0,0,4.587465699994937,call3,-0.030555555555555555,0.23194444444444445,1,0,0,5.059726200008299,colour1,0.4375,-0.28055555555555556,1,0,0,6.366250999999465,number4,True,True,False,39,4,2019_Nov_20_1602,MA_Theta_Exp,3.0.7,59.916045637552344,
video/Experiment/zh_sp07_Ti_Ge_4_GlobalTheta_NoVideo.avi,globalTheta,noVideo,sp07,Ti,Ge,4,4,5,flow/blocks/GlobalTheta_NoVideo_A.csv,,,,,,,,,0,4,4,4,0,18,18,3,,,,,,,,,-0.39166666666666666,-0.12361111111111112,1,0,0,4.106417200004216,call3,-0.002777777777777778,0.3111111111111111,1,0,0,4.658906900003785,colour1,0.44027777777777777,-0.3402777777777778,1,0,0,5.359088800003519,number4,True,True,True,39,4,2019_Nov_20_1602,MA_Theta_Exp,3.0.7,59.916045637552344,
video/Experiment/zh_sp07_Un_Ro_1_GlobalTheta_NoVideo.avi,globalTheta,noVideo,sp07,Un,Ro,1,4,5,flow/blocks/GlobalTheta_NoVideo_A.csv,,,,,,,,,0,4,4,4,0,19,19,24,,,,,,,,,-0.33611111111111114,-0.12638888888888888,1,0,0,4.307498199996189,call3,0.001388888888888889,-0.125,1,0,0,4.770485600005486,colour3,0.3486111111111111,0.28888888888888886,1,0,0,5.24029960000189,number1,False,True,True,39,4,2019_Nov_20_1602,MA_Theta_Exp,3.0.7,59.916045637552344,
video/Experiment/zh_sp01_Un_We_1_GlobalTheta_NoVideo.avi,globalTheta,noVideo,sp01,Un,We,1,4,5,flow/blocks/GlobalTheta_NoVideo_A.csv,,,,,,,,,0,4,4,4,0,20,20,28,,,,,,,,,-0.4388888888888889,-0.10277777777777777,1,0,0,4.995585600001505,call3,-0.0125,-0.3375,1,0,0,5.481486399992718,colour4,0.3861111111111111,0.2763888888888889,1,0,0,6.05116070000804,number1,False,True,True,39,4,2019_Nov_20_1602,MA_Theta_Exp,3.0.7,59.916045637552344,
video/Experiment/zh_sp01_Un_Ro_3_GlobalTheta_NoVideo.avi,globalTheta,noVideo,sp01,Un,Ro,3,4,5,flow/blocks/GlobalTheta_NoVideo_A.csv,,,,,,,,,0,4,4,4,0,21,21,26,,,,,,,,,-0.40555555555555556,-0.12222222222222222,1,0,0,5.128599100004067,call3,-0.0125,-0.09722222222222222,1,0,0,5.505460500004119,colour3,0.46805555555555556,-0.09305555555555556,1,0,0,5.955963099986548,number3,False,True,True,39,4,2019_Nov_20_1602,MA_Theta_Exp,3.0.7,59.916045637552344,
video/Experiment/zh_sp01_Un_Ge_2_GlobalTheta_NoVideo.avi,globalTheta,noVideo,sp01,Un,Ge,2,4,5,flow/blocks/GlobalTheta_NoVideo_A.csv,,,,,,,,,0,4,4,4,0,22,22,17,,,,,,,,,-0.36944444444444446,-0.2916666666666667,1,0,0,5.517273999997997,call4,0.022222222222222223,0.28888888888888886,1,0,0,6.207206700011739,colour1,0.42083333333333334,0.13055555555555556,1,0,0,6.832424799998989,number2,True,True,True,39,4,2019_Nov_20_1602,MA_Theta_Exp,3.0.7,59.916045637552344,
video/Experiment/zh_sp07_Ad_Gr_2_GlobalTheta_NoVideo.avi,globalTheta,noVideo,sp07,Ad,Gr,2,4,5,flow/blocks/GlobalTheta_NoVideo_A.csv,,,,,,,,,0,4,4,4,0,23,23,21,,,,,,,,,-0.39861111111111114,-0.3333333333333333,1,0,0,4.41151710000122,call4,0.020833333333333332,0.12777777777777777,1,0,0,5.02529130000039,colour2,0.3958333333333333,0.13055555555555556,1,0,0,7.733017999998992,number2,False,True,True,39,4,2019_Nov_20_1602,MA_Theta_Exp,3.0.7,59.916045637552344,
video/Experiment/zh_sp01_Dr_We_2_GlobalTheta_NoVideo.avi,globalTheta,noVideo,sp01,Dr,We,2,4,5,flow/blocks/GlobalTheta_NoVideo_A.csv,,,,,,,,,0,4,4,4,0,24,24,13,,,,,,,,,-0.4,-0.325,1,0,0,4.970072000010987,call4,-0.04861111111111111,-0.29444444444444445,1,0,0,5.38160280000011,colour4,0.4083333333333333,0.10833333333333334,1,0,0,6.299022699997295,number2,False,True,True,39,4,2019_Nov_20_1602,MA_Theta_Exp,3.0.7,59.916045637552344,
video/Experiment/zh_sp01_Dr_Gr_3_GlobalTheta_NoVideo.avi,globalTheta,noVideo,sp01,Dr,Gr,3,4,5,flow/blocks/GlobalTheta_NoVideo_A.csv,,,,,,,,,0,4,4,4,0,25,25,6,,,,,,,,,-0.34444444444444444,-0.30972222222222223,1,0,0,4.927664499991806,call4,0.027777777777777776,0.08194444444444444,1,0,0,5.587883800006239,colour2,0.3486111111111111,-0.08611111111111111,1,0,0,6.077772900011041,number3,False,True,True,39,4,2019_Nov_20_1602,MA_Theta_Exp,3.0.7,59.916045637552344,
video/Experiment/zh_sp07_Ad_Gr_1_GlobalTheta_NoVideo.avi,globalTheta,noVideo,sp07,Ad,Gr,1,4,5,flow/blocks/GlobalTheta_NoVideo_A.csv,,,,,,,,,0,4,4,4,0,26,26,4,,,,,,,,,-0.3875,-0.3375,1,0,0,4.540711499997997,call4,0.025,0.075,1,0,0,5.108720700009144,colour2,0.3472222222222222,0.30416666666666664,1,0,0,5.6066277000063565,number1,False,True,True,39,4,2019_Nov_20_1602,MA_Theta_Exp,3.0.7,59.916045637552344,
video/Experiment/zh_sp07_Dr_Ge_1_GlobalTheta_NoVideo.avi,globalTheta,noVideo,sp07,Dr,Ge,1,4,5,flow/blocks/GlobalTheta_NoVideo_A.csv,,,,,,,,,0,4,4,4,0,27,27,0,,,,,,,,,-0.41944444444444445,-0.3013888888888889,1,0,0,4.490351299988106,call4,0.013888888888888888,0.28888888888888886,1,0,0,5.4042274999956135,colour1,0.37916666666666665,0.2986111111111111,1,0,0,5.802289899991592,number1,False,True,True,39,4,2019_Nov_20_1602,MA_Theta_Exp,3.0.7,59.916045637552344,
video/Experiment/zh_sp01_Ti_Ge_1_GlobalTheta_NoVideo.avi,globalTheta,noVideo,sp01,Ti,Ge,1,4,5,flow/blocks/GlobalTheta_NoVideo_A.csv,,,,,,,,,0,4,4,4,0,28,28,16,,,,,,,,,-0.3472222222222222,-0.1361111111111111,1,0,0,5.212409200001275,call3,-0.0125,0.26944444444444443,1,0,0,5.673519499992835,colour1,0.43333333333333335,0.30277777777777776,1,0,0,6.20126829999208,number1,True,True,True,39,4,2019_Nov_20_1602,MA_Theta_Exp,3.0.7,59.916045637552344,
video/Experiment/zh_sp07_Dr_Gr_4_GlobalTheta_NoVideo.avi,globalTheta,noVideo,sp07,Dr,Gr,4,4,5,flow/blocks/GlobalTheta_NoVideo_A.csv,,,,,,,,,0,4,4,4,0,29,29,23,,,,,,,,,-0.4152777777777778,-0.12222222222222222,1,0,0,4.544633199999225,call3,0.03888888888888889,0.30833333333333335,1,0,0,5.361364700002014,colour1,0.36944444444444446,-0.11666666666666667,1,0,0,5.885238900009426,number3,False,False,False,39,4,2019_Nov_20_1602,MA_Theta_Exp,3.0.7,59.916045637552344,
video/Experiment/zh_sp01_Ad_We_3_GlobalTheta_NoVideo.avi,globalTheta,noVideo,sp01,Ad,We,3,4,5,flow/blocks/GlobalTheta_NoVideo_A.csv,,,,,,,,,0,4,4,4,0,30,30,30,,,,,,,,,-0.3541666666666667,0.3194444444444444,1,0,0,5.179812200003653,call1,0.001388888888888889,-0.32222222222222224,1,0,0,5.768679799992242,colour4,0.43472222222222223,-0.09305555555555556,1,0,0,6.231337800010806,number3,True,True,True,39,4,2019_Nov_20_1602,MA_Theta_Exp,3.0.7,59.916045637552344,
video/Experiment/zh_sp01_Ti_Ge_3_GlobalTheta_NoVideo.avi,globalTheta,noVideo,sp01,Ti,Ge,3,4,5,flow/blocks/GlobalTheta_NoVideo_A.csv,,,,,,,,,0,4,4,4,0,31,31,18,,,,,,,,,-0.3875,-0.075,1,0,0,5.220464000012726,call3,-0.0125,0.2972222222222222,1,0,0,6.104344100007438,colour1,0.4361111111111111,-0.08333333333333333,1,0,0,6.985850500001106,number3,True,True,True,39,4,2019_Nov_20_1602,MA_Theta_Exp,3.0.7,59.916045637552344,
video/Experiment/zh_sp07_Ad_Ro_2_NVocInAudio_NoVideo.avi,vocoded,noVideo,sp07,Ad,Ro,2,0,2,flow/blocks/NVocInAudio_NoVideo_B.csv,,,,,,,,,,,,,,,,,0,0,0,0,0,0,0,25,-0.37777777777777777,0.2796296296296296,1,0,0,4.958078999989084,call1,-0.001388888888888889,-0.16342592592592592,1,0,0,5.443552900003851,colour3,0.35138888888888886,0.11157407407407408,1,0,0,5.865256200006115,number2,True,True,True,39,4,2019_Nov_20_1602,MA_Theta_Exp,3.0.7,59.916045637552344,
video/Experiment/zh_sp07_Un_Ge_1_NVocInAudio_NoVideo.avi,vocoded,noVideo,sp07,Un,Ge,1,0,2,flow/blocks/NVocInAudio_NoVideo_B.csv,,,,,,,,,,,,,,,,,0,0,0,0,0,1,1,0,-0.4,-0.35509259259259257,1,0,0,4.4193363999947906,call4,-0.008333333333333333,0.34629629629629627,1,0,0,5.020776999997906,colour1,0.44305555555555554,0.28379629629629627,1,0,0,5.768632599996636,number1,True,True,True,39,4,2019_Nov_20_1602,MA_Theta_Exp,3.0.7,59.916045637552344,
video/Experiment/zh_sp01_Ti_We_1_NVocInAudio_NoVideo.avi,vocoded,noVideo,sp01,Ti,We,1,0,2,flow/blocks/NVocInAudio_NoVideo_B.csv,,,,,,,,,,,,,,,,,0,0,0,0,0,2,2,12,-0.41388888888888886,-0.13703703703703704,1,0,0,5.555099199991673,call3,-0.04861111111111111,-0.32314814814814813,1,0,0,6.031058699998539,colour4,0.375,0.2740740740740741,1,0,0,6.6931870999978855,number1,True,True,True,39,4,2019_Nov_20_1602,MA_Theta_Exp,3.0.7,59.916045637552344,
video/Experiment/zh_sp01_Un_Gr_2_NVocInAudio_NoVideo.avi,vocoded,noVideo,sp01,Un,Gr,2,0,2,flow/blocks/NVocInAudio_NoVideo_B.csv,,,,,,,,,,,,,,,,,0,0,0,0,0,3,3,5,-0.4111111111111111,-0.31342592592592594,1,0,0,5.3172125999990385,call4,-0.019444444444444445,0.10740740740740741,1,0,0,5.972756100003608,colour2,0.3638888888888889,0.11851851851851852,1,0,0,6.477689200008172,number2,True,True,True,39,4,2019_Nov_20_1602,MA_Theta_Exp,3.0.7,59.916045637552344,
video/Experiment/zh_sp07_Ti_Ro_1_NVocInAudio_NoVideo.avi,vocoded,noVideo,sp07,Ti,Ro,1,0,2,flow/blocks/NVocInAudio_NoVideo_B.csv,,,,,,,,,,,,,,,,,0,0,0,0,0,4,4,8,-0.4152777777777778,-0.10231481481481482,1,0,0,4.908218299999135,call3,-0.07361111111111111,-0.10092592592592593,1,0,0,5.373483999996097,colour3,0.41388888888888886,0.2726851851851852,1,0,0,6.109777399993618,number1,True,True,True,39,4,2019_Nov_20_1602,MA_Theta_Exp,3.0.7,59.916045637552344,
video/Experiment/zh_sp01_Ad_Ro_3_NVocInAudio_NoVideo.avi,vocoded,noVideo,sp01,Ad,Ro,3,0,2,flow/blocks/NVocInAudio_NoVideo_B.csv,,,,,,,,,,,,,,,,,0,0,0,0,0,5,5,10,-0.42083333333333334,0.31712962962962965,1,0,0,5.070208000004641,call1,-0.006944444444444444,-0.1050925925925926,1,0,0,5.583521699998528,colour3,0.33194444444444443,-0.1175925925925926,1,0,0,5.967501599996467,number3,True,True,True,39,4,2019_Nov_20_1602,MA_Theta_Exp,3.0.7,59.916045637552344,
video/Experiment/zh_sp01_Ti_Ro_4_NVocInAudio_NoVideo.avi,vocoded,noVideo,sp01,Ti,Ro,4,0,2,flow/blocks/NVocInAudio_NoVideo_B.csv,,,,,,,,,,,,,,,,,0,0,0,0,0,6,6,11,-0.34444444444444444,-0.09537037037037037,1,0,0,5.3354214999999385,call3,-0.04722222222222222,-0.12314814814814815,1,0,0,5.728200499986997,colour3,0.4305555555555556,-0.32037037037037036,1,0,0,6.275828600002569,number4,True,True,True,39,4,2019_Nov_20_1602,MA_Theta_Exp,3.0.7,59.916045637552344,
video/Experiment/zh_sp07_Dr_We_1_NVocInAudio_NoVideo.avi,vocoded,noVideo,sp07,Dr,We,1,0,2,flow/blocks/NVocInAudio_NoVideo_B.csv,,,,,,,,,,,,,,,,,0,0,0,0,0,7,7,28,-0.43333333333333335,0.08796296296296297,1,0,0,5.2464446000085445,call2,-0.03194444444444444,-0.3175925925925926,1,0,0,5.926483000002918,colour4,0.3611111111111111,0.29074074074074074,1,0,0,6.552663000009488,number1,True,True,True,39,4,2019_Nov_20_1602,MA_Theta_Exp,3.0.7,59.916045637552344,
video/Experiment/zh_sp01_Dr_Gr_1_NVocInAudio_NoVideo.avi,vocoded,noVideo,sp01,Dr,Gr,1,0,2,flow/blocks/NVocInAudio_NoVideo_B.csv,,,,,,,,,,,,,,,,,0,0,0,0,0,8,8,20,-0.425,0.09907407407407408,1,0,0,5.504812099999981,call2,-0.059722222222222225,0.09074074074074075,1,0,0,5.960757900000317,colour2,0.3888888888888889,0.3337962962962963,1,0,0,6.526007799999206,number1,True,True,True,39,4,2019_Nov_20_1602,MA_Theta_Exp,3.0.7,59.916045637552344,
video/Experiment/zh_sp07_Ti_We_2_NVocInAudio_NoVideo.avi,vocoded,noVideo,sp07,Ti,We,2,0,2,flow/blocks/NVocInAudio_NoVideo_B.csv,,,,,,,,,,,,,,,,,0,0,0,0,0,9,9,29,-0.3972222222222222,-0.09953703703703703,1,0,0,4.781354699996882,call3,0.05,-0.3425925925925926,1,0,0,5.431846799998311,colour4,0.375,0.14351851851851852,1,0,0,5.961746399989352,number2,True,True,True,39,4,2019_Nov_20_1602,MA_Theta_Exp,3.0.7,59.916045637552344,
video/Experiment/zh_sp01_Dr_We_3_NVocInAudio_NoVideo.avi,vocoded,noVideo,sp01,Dr,We,3,0,2,flow/blocks/NVocInAudio_NoVideo_B.csv,,,,,,,,,,,,,,,,,0,0,0,0,0,10,10,14,-0.3902777777777778,0.08101851851851852,1,0,0,5.2470061000058195,call2,-0.006944444444444444,-0.37175925925925923,1,0,0,5.805525299991132,colour4,0.4361111111111111,-0.08425925925925926,1,0,0,6.268445699999575,number3,True,True,True,39,4,2019_Nov_20_1602,MA_Theta_Exp,3.0.7,59.916045637552344,
video/Experiment/zh_sp01_Ad_Ge_2_NVocInAudio_NoVideo.avi,vocoded,noVideo,sp01,Ad,Ge,2,0,2,flow/blocks/NVocInAudio_NoVideo_B.csv,,,,,,,,,,,,,,,,,0,0,0,0,0,11,11,1,-0.3875,0.3060185185185185,1,0,0,5.700866400002269,call1,-0.030555555555555555,0.30324074074074076,1,0,0,6.149578200012911,colour1,0.4,0.08101851851851852,1,0,0,6.784092200003215,number2,True,True,True,39,4,2019_Nov_20_1602,MA_Theta_Exp,3.0.7,59.916045637552344,
video/Experiment/zh_sp01_Un_Ro_4_NVocInAudio_NoVideo.avi,vocoded,noVideo,sp01,Un,Ro,4,0,2,flow/blocks/NVocInAudio_NoVideo_B.csv,,,,,,,,,,,,,,,,,0,0,0,0,0,12,12,27,-0.3861111111111111,-0.32175925925925924,1,0,0,7.559332400007406,call4,0.041666666666666664,-0.11898148148148148,1,0,0,8.135827599995537,colour3,0.3611111111111111,-0.3523148148148148,1,0,0,8.65979089999746,number4,True,True,True,39,4,2019_Nov_20_1602,MA_Theta_Exp,3.0.7,59.916045637552344,
video/Experiment/zh_sp07_Ti_We_3_NVocInAudio_NoVideo.avi,vocoded,noVideo,sp07,Ti,We,3,0,2,flow/blocks/NVocInAudio_NoVideo_B.csv,,,,,,,,,,,,,,,,,0,0,0,0,0,13,13,30,-0.3902777777777778,-0.10231481481481482,1,0,0,5.350137799992808,call3,0.03611111111111111,-0.3314814814814815,1,0,0,5.77209440000297,colour4,0.35833333333333334,-0.1398148148148148,1,0,0,6.194894000000204,number3,True,True,True,39,4,2019_Nov_20_1602,MA_Theta_Exp,3.0.7,59.916045637552344,
video/Experiment/zh_sp01_Ti_Gr_1_NVocInAudio_NoVideo.avi,vocoded,noVideo,sp01,Ti,Gr,1,0,2,flow/blocks/NVocInAudio_NoVideo_B.csv,,,,,,,,,,,,,,,,,0,0,0,0,0,14,14,4,-0.3902777777777778,-0.12453703703703704,1,0,0,5.650431500005652,call3,0.016666666666666666,0.0712962962962963,1,0,0,6.132566999993287,colour2,0.3194444444444444,0.3226851851851852,1,0,0,6.541491199997836,number1,True,True,True,39,4,2019_Nov_20_1602,MA_Theta_Exp,3.0.7,59.916045637552344,
video/Experiment/zh_sp01_Ad_Ge_1_NVocInAudio_NoVideo.avi,vocoded,noVideo,sp01,Ad,Ge,1,0,2,flow/blocks/NVocInAudio_NoVideo_B.csv,,,,,,,,,,,,,,,,,0,0,0,0,0,15,15,16,-0.36527777777777776,0.2740740740740741,1,0,0,5.895059599992237,call1,0.07916666666666666,0.29212962962962963,1,0,0,6.303017199999886,colour1,0.35833333333333334,0.31851851851851853,1,0,0,6.717554699993343,number1,True,True,True,39,4,2019_Nov_20_1602,MA_Theta_Exp,3.0.7,59.916045637552344,
video/Experiment/zh_sp07_Dr_We_4_NVocInAudio_NoVideo.avi,vocoded,noVideo,sp07,Dr,We,4,0,2,flow/blocks/NVocInAudio_NoVideo_B.csv,,,,,,,,,,,,,,,,,0,0,0,0,0,16,16,15,-0.36944444444444446,0.10185185185185185,1,0,0,4.672297299999627,call2,-0.03611111111111111,-0.3425925925925926,1,0,0,5.345046899994486,colour4,0.3597222222222222,-0.3523148148148148,1,0,0,5.791812600000412,number4,True,True,True,39,4,2019_Nov_20_1602,MA_Theta_Exp,3.0.7,59.916045637552344,
video/Experiment/zh_sp07_Un_Ro_2_NVocInAudio_NoVideo.avi,vocoded,noVideo,sp07,Un,Ro,2,0,2,flow/blocks/NVocInAudio_NoVideo_B.csv,,,,,,,,,,,,,,,,,0,0,0,0,0,17,17,9,-0.3972222222222222,-0.2689814814814815,1,0,0,4.947734799992759,call4,-0.03333333333333333,-0.1550925925925926,1,0,0,5.382926300007966,colour3,0.4222222222222222,0.17407407407407408,1,0,0,5.850195599996368,number2,True,True,True,39,4,2019_Nov_20_1602,MA_Theta_Exp,3.0.7,59.916045637552344,
video/Experiment/zh_sp01_Un_Gr_3_NVocInAudio_NoVideo.avi,vocoded,noVideo,sp01,Un,Gr,3,0,2,flow/blocks/NVocInAudio_NoVideo_B.csv,,,,,,,,,,,,,,,,,0,0,0,0,0,18,18,6,-0.33055555555555555,-0.3148148148148148,1,0,0,5.148076800003764,call4,-0.05694444444444444,0.03935185185185185,1,0,0,5.767846100003226,colour2,0.42916666666666664,-0.12453703703703704,1,0,0,6.8615176000021165,number3,True,True,True,39,4,2019_Nov_20_1602,MA_Theta_Exp,3.0.7,59.916045637552344,
video/Experiment/zh_sp07_Dr_Ge_3_NVocInAudio_NoVideo.avi,vocoded,noVideo,sp07,Dr,Ge,3,0,2,flow/blocks/NVocInAudio_NoVideo_B.csv,,,,,,,,,,,,,,,,,0,0,0,0,0,19,19,2,-0.35833333333333334,0.1087962962962963,1,0,0,4.961558099996182,call2,0.0375,0.3060185185185185,1,0,0,6.245173799994518,colour1,0.3875,-0.12314814814814815,1,0,0,7.030274100005045,number3,True,True,True,39,4,2019_Nov_20_1602,MA_Theta_Exp,3.0.7,59.916045637552344,
video/Experiment/zh_sp07_Dr_Ge_2_NVocInAudio_NoVideo.avi,vocoded,noVideo,sp07,Dr,Ge,2,0,2,flow/blocks/NVocInAudio_NoVideo_B.csv,,,,,,,,,,,,,,,,,0,0,0,0,0,20,20,17,-0.3902777777777778,0.11435185185185186,1,0,0,4.704429999997956,call2,0.009722222222222222,0.3490740740740741,1,0,0,5.781484699997236,colour1,0.37916666666666665,0.06296296296296296,1,0,0,6.410501899998053,number2,True,True,True,39,4,2019_Nov_20_1602,MA_Theta_Exp,3.0.7,59.916045637552344,
video/Experiment/zh_sp07_Dr_Ro_3_NVocInAudio_NoVideo.avi,vocoded,noVideo,sp07,Dr,Ro,3,0,2,flow/blocks/NVocInAudio_NoVideo_B.csv,,,,,,,,,,,,,,,,,0,0,0,0,0,21,21,26,-0.3888888888888889,0.09907407407407408,1,0,0,5.059998500000802,call2,-0.029166666666666667,-0.16203703703703703,1,0,0,5.499569099993096,colour3,0.3888888888888889,-0.11342592592592593,1,0,0,5.919232400003239,number3,True,True,True,39,4,2019_Nov_20_1602,MA_Theta_Exp,3.0.7,59.916045637552344,
video/Experiment/zh_sp01_Un_We_2_NVocInAudio_NoVideo.avi,vocoded,noVideo,sp01,Un,We,2,0,2,flow/blocks/NVocInAudio_NoVideo_B.csv,,,,,,,,,,,,,,,,,0,0,0,0,0,22,22,13,-0.3625,-0.32175925925925924,1,0,0,6.70183609999367,call4,0.005555555555555556,-0.324537037037037,1,0,0,7.077010299995891,colour4,0.39444444444444443,0.09490740740740741,1,0,0,7.571270300002652,number2,True,True,True,39,4,2019_Nov_20_1602,MA_Theta_Exp,3.0.7,59.916045637552344,
video/Experiment/zh_sp07_Ad_We_4_NVocInAudio_NoVideo.avi,vocoded,noVideo,sp07,Ad,We,4,0,2,flow/blocks/NVocInAudio_NoVideo_B.csv,,,,,,,,,,,,,,,,,0,0,0,0,0,23,23,31,-0.3902777777777778,0.3476851851851852,1,0,0,6.194241100005456,call1,0.02638888888888889,-0.32175925925925924,1,0,0,6.9304629000107525,colour4,0.42777777777777776,-0.3175925925925926,1,0,0,7.407535299993469,number4,True,True,True,39,4,2019_Nov_20_1602,MA_Theta_Exp,3.0.7,59.916045637552344,
video/Experiment/zh_sp01_Ti_Gr_3_NVocInAudio_NoVideo.avi,vocoded,noVideo,sp01,Ti,Gr,3,0,2,flow/blocks/NVocInAudio_NoVideo_B.csv,,,,,,,,,,,,,,,,,0,0,0,0,0,24,24,22,-0.425,-0.10648148148148148,1,0,0,5.705510600004345,call3,-0.05416666666666667,0.0712962962962963,1,0,0,6.145757199992659,colour2,0.39305555555555555,-0.17037037037037037,1,0,0,6.689426299999468,number3,True,True,True,39,4,2019_Nov_20_1602,MA_Theta_Exp,3.0.7,59.916045637552344,
video/Experiment/zh_sp07_Ad_Gr_4_NVocInAudio_NoVideo.avi,vocoded,noVideo,sp07,Ad,Gr,4,0,2,flow/blocks/NVocInAudio_NoVideo_B.csv,,,,,,,,,,,,,,,,,0,0,0,0,0,25,25,7,-0.40555555555555556,0.31157407407407406,1,0,0,5.396117799988133,call1,-0.005555555555555556,0.0587962962962963,1,0,0,6.469117200002074,colour2,0.3763888888888889,-0.3398148148148148,1,0,0,7.3904539000068326,number4,True,True,True,39,4,2019_Nov_20_1602,MA_Theta_Exp,3.0.7,59.916045637552344,
video/Experiment/zh_sp07_Ti_Gr_2_NVocInAudio_NoVideo.avi,vocoded,noVideo,sp07,Ti,Gr,2,0,2,flow/blocks/NVocInAudio_NoVideo_B.csv,,,,,,,,,,,,,,,,,0,0,0,0,0,26,26,21,-0.3736111111111111,-0.12731481481481483,1,0,0,5.0924747999961255,call3,0.004166666666666667,0.06018518518518518,1,0,0,5.456207199997152,colour2,0.4236111111111111,0.0699074074074074,1,0,0,5.812998299996252,number2,True,True,True,39,4,2019_Nov_20_1602,MA_Theta_Exp,3.0.7,59.916045637552344,
video/Experiment/zh_sp01_Un_Ge_4_NVocInAudio_NoVideo.avi,vocoded,noVideo,sp01,Un,Ge,4,0,2,flow/blocks/NVocInAudio_NoVideo_B.csv,,,,,,,,,,,,,,,,,0,0,0,0,0,27,27,19,-0.3819444444444444,-0.28425925925925927,1,0,0,5.295305899999221,call4,0.011111111111111112,0.3074074074074074,1,0,0,5.876484199994593,colour1,0.3736111111111111,-0.2912037037037037,1,0,0,6.432309000010719,number4,True,True,True,39,4,2019_Nov_20_1602,MA_Theta_Exp,3.0.7,59.916045637552344,
video/Experiment/zh_sp07_Dr_Ro_1_NVocInAudio_NoVideo.avi,vocoded,noVideo,sp07,Dr,Ro,1,0,2,flow/blocks/NVocInAudio_NoVideo_B.csv,,,,,,,,,,,,,,,,,0,0,0,0,0,28,28,24,-0.4,0.09907407407407408,1,0,0,6.35723809999763,call2,0.06111111111111111,-0.13148148148148148,1,0,0,6.896254899998894,colour3,0.35833333333333334,0.2337962962962963,1,0,0,7.396483899996383,number1,True,True,True,39,4,2019_Nov_20_1602,MA_Theta_Exp,3.0.7,59.916045637552344,
video/Experiment/zh_sp01_Ad_Ge_4_NVocInAudio_NoVideo.avi,vocoded,noVideo,sp01,Ad,Ge,4,0,2,flow/blocks/NVocInAudio_NoVideo_B.csv,,,,,,,,,,,,,,,,,0,0,0,0,0,29,29,3,-0.41388888888888886,0.27685185185185185,1,0,0,6.2507528999994975,call1,0.0375,0.30324074074074076,1,0,0,7.941651000001002,colour1,0.3875,-0.29398148148148145,1,0,0,8.91066999999748,number4,True,True,True,39,4,2019_Nov_20_1602,MA_Theta_Exp,3.0.7,59.916045637552344,
video/Experiment/zh_sp07_Ad_Ge_3_NVocInAudio_NoVideo.avi,vocoded,noVideo,sp07,Ad,Ge,3,0,2,flow/blocks/NVocInAudio_NoVideo_B.csv,,,,,,,,,,,,,,,,,0,0,0,0,0,30,30,18,-0.42083333333333334,0.33240740740740743,1,0,0,4.493546500001685,call1,-0.07222222222222222,0.3351851851851852,1,0,0,4.935965399999986,colour1,0.40694444444444444,-0.15092592592592594,1,0,0,5.554312899999786,number3,True,True,True,39,4,2019_Nov_20_1602,MA_Theta_Exp,3.0.7,59.916045637552344,
video/Experiment/zh_sp01_Un_Gr_4_NVocInAudio_NoVideo.avi,vocoded,noVideo,sp01,Un,Gr,4,0,2,flow/blocks/NVocInAudio_NoVideo_B.csv,,,,,,,,,,,,,,,,,0,0,0,0,0,31,31,23,-0.3597222222222222,-0.27870370370370373,1,0,0,5.032702399999835,call4,0.027777777777777776,0.10324074074074074,1,0,0,6.021285599999828,colour2,0.38333333333333336,-0.27314814814814814,1,0,0,6.594434099999489,number4,True,True,True,39,4,2019_Nov_20_1602,MA_Theta_Exp,3.0.7,59.916045637552344,
video/Experiment/zh_sp01_Un_Ro_1_NVocInAudio_GlobalThetaInVideo.avi,vocoded,plusVideo,sp01,Un,Ro,1,1,1,flow/blocks/NVocInAudio_GlobalThetaInVideo_A.csv,,,,,,,,,,,,,,,,,0,1,1,1,0,0,0,24,-0.3958333333333333,-0.3148148148148148,1,0,0,5.150319899999886,call4,0.030555555555555555,-0.11481481481481481,1,0,0,5.720747200000915,colour3,0.3819444444444444,0.3212962962962963,1,0,0,6.308052000007592,number1,True,True,True,39,4,2019_Nov_20_1602,MA_Theta_Exp,3.0.7,59.916045637552344,
video/Experiment/zh_sp01_Ti_Ge_2_NVocInAudio_GlobalThetaInVideo.avi,vocoded,plusVideo,sp01,Ti,Ge,2,1,1,flow/blocks/NVocInAudio_GlobalThetaInVideo_A.csv,,,,,,,,,,,,,,,,,0,1,1,1,0,1,1,1,-0.4097222222222222,-0.09537037037037037,1,0,0,5.32779070000106,call3,-0.022222222222222223,0.24212962962962964,1,0,0,5.773169099993538,colour1,0.44583333333333336,0.10324074074074074,1,0,0,6.414155999998911,number2,True,True,True,39,4,2019_Nov_20_1602,MA_Theta_Exp,3.0.7,59.916045637552344,
video/Experiment/zh_sp01_Un_Ro_3_NVocInAudio_GlobalThetaInVideo.avi,vocoded,plusVideo,sp01,Un,Ro,3,1,1,flow/blocks/NVocInAudio_GlobalThetaInVideo_A.csv,,,,,,,,,,,,,,,,,0,1,1,1,0,2,2,26,-0.39305555555555555,-0.31203703703703706,1,0,0,5.549125499994261,call4,0.04027777777777778,-0.12175925925925926,1,0,0,6.037650700003724,colour3,0.3625,-0.04675925925925926,1,0,0,6.549042899991036,number3,True,True,True,39,4,2019_Nov_20_1602,MA_Theta_Exp,3.0.7,59.916045637552344,
video/Experiment/zh_sp07_Un_We_1_NVocInAudio_GlobalThetaInVideo.avi,vocoded,plusVideo,sp07,Un,We,1,1,1,flow/blocks/NVocInAudio_GlobalThetaInVideo_A.csv,,,,,,,,,,,,,,,,,0,1,1,1,0,3,3,28,-0.39305555555555555,-0.30925925925925923,1,0,0,4.368159799996647,call4,0.001388888888888889,-0.2759259259259259,1,0,0,4.987631600000896,colour4,0.4013888888888889,0.3199074074074074,1,0,0,5.801775300002191,number1,True,True,True,39,4,2019_Nov_20_1602,MA_Theta_Exp,3.0.7,59.916045637552344,
video/Experiment/zh_sp01_Ad_Gr_2_NVocInAudio_GlobalThetaInVideo.avi,vocoded,plusVideo,sp01,Ad,Gr,2,1,1,flow/blocks/NVocInAudio_GlobalThetaInVideo_A.csv,,,,,,,,,,,,,,,,,0,1,1,1,0,4,4,21,-0.3861111111111111,0.31851851851851853,1,0,0,5.916624300007243,call1,0.0125,0.09768518518518518,1,0,0,6.478006699995603,colour2,0.3972222222222222,0.11990740740740741,1,0,0,6.90691269999661,number2,True,True,True,39,4,2019_Nov_20_1602,MA_Theta_Exp,3.0.7,59.916045637552344,
video/Experiment/zh_sp01_Un_We_3_NVocInAudio_GlobalThetaInVideo.avi,vocoded,plusVideo,sp01,Un,We,3,1,1,flow/blocks/NVocInAudio_GlobalThetaInVideo_A.csv,,,,,,,,,,,,,,,,,0,1,1,1,0,5,5,14,-0.3736111111111111,-0.2967592592592593,1,0,0,5.144759400005569,call4,0.005555555555555556,-0.3189814814814815,1,0,0,5.554162699991139,colour4,0.41388888888888886,-0.11342592592592593,1,0,0,6.178242199996021,number3,True,True,True,39,4,2019_Nov_20_1602,MA_Theta_Exp,3.0.7,59.916045637552344,
video/Experiment/zh_sp07_Dr_Ge_1_NVocInAudio_GlobalThetaInVideo.avi,vocoded,plusVideo,sp07,Dr,Ge,1,1,1,flow/blocks/NVocInAudio_GlobalThetaInVideo_A.csv,,,,,,,,,,,,,,,,,0,1,1,1,0,6,6,0,-0.3819444444444444,0.09351851851851851,1,0,0,5.827700399997411,call2,0.019444444444444445,0.2851851851851852,1,0,0,7.605314599990379,colour1,0.49722222222222223,0.3421296296296296,1,0,0,8.045658799994271,number1,True,True,True,39,4,2019_Nov_20_1602,MA_Theta_Exp,3.0.7,59.916045637552344,
video/Experiment/zh_sp07_Ti_Ge_1_NVocInAudio_GlobalThetaInVideo.avi,vocoded,plusVideo,sp07,Ti,Ge,1,1,1,flow/blocks/NVocInAudio_GlobalThetaInVideo_A.csv,,,,,,,,,,,,,,,,,0,1,1,1,0,7,7,16,-0.375,-0.0912037037037037,1,0,0,4.726166199994623,call3,-0.027777777777777776,0.24768518518518517,1,0,0,5.180191499995999,colour1,0.4777777777777778,0.3226851851851852,1,0,0,5.637894700004836,number1,True,True,True,39,4,2019_Nov_20_1602,MA_Theta_Exp,3.0.7,59.916045637552344,
video/Experiment/zh_sp07_Un_Ge_3_NVocInAudio_GlobalThetaInVideo.avi,vocoded,plusVideo,sp07,Un,Ge,3,1,1,flow/blocks/NVocInAudio_GlobalThetaInVideo_A.csv,,,,,,,,,,,,,,,,,0,1,1,1,0,8,8,2,-0.3736111111111111,0.0712962962962963,1,0,0,5.488263999999617,call2,0.02361111111111111,0.27546296296296297,1,0,0,6.095437800002401,colour1,0.3458333333333333,-0.10925925925925926,1,0,0,6.652873600003659,number3,False,True,True,39,4,2019_Nov_20_1602,MA_Theta_Exp,3.0.7,59.916045637552344,
video/Experiment/zh_sp01_Ad_We_1_NVocInAudio_GlobalThetaInVideo.avi,vocoded,plusVideo,sp01,Ad,We,1,1,1,flow/blocks/NVocInAudio_GlobalThetaInVideo_A.csv,,,,,,,,,,,,,,,,,0,1,1,1,0,9,9,12,-0.3458333333333333,0.2810185185185185,1,0,0,6.5944757999968715,call1,-0.004166666666666667,-0.36898148148148147,1,0,0,7.171755299990764,colour4,0.3472222222222222,0.2671296296296296,1,0,0,7.807659600002808,number1,True,True,True,39,4,2019_Nov_20_1602,MA_Theta_Exp,3.0.7,59.916045637552344,
video/Experiment/zh_sp01_Ti_Gr_4_NVocInAudio_GlobalThetaInVideo.avi,vocoded,plusVideo,sp01,Ti,Gr,4,1,1,flow/blocks/NVocInAudio_GlobalThetaInVideo_A.csv,,,,,,,,,,,,,,,,,0,1,1,1,0,10,10,7,-0.41388888888888886,-0.09537037037037037,1,0,0,5.285878999988199,call3,0.005555555555555556,0.08101851851851852,1,0,0,5.728593699997873,colour2,0.3472222222222222,-0.2550925925925926,1,0,0,6.242267900001025,number4,True,True,True,39,4,2019_Nov_20_1602,MA_Theta_Exp,3.0.7,59.916045637552344,
video/Experiment/zh_sp07_Ad_We_2_NVocInAudio_GlobalThetaInVideo.avi,vocoded,plusVideo,sp07,Ad,We,2,1,1,flow/blocks/NVocInAudio_GlobalThetaInVideo_A.csv,,,,,,,,,,,,,,,,,0,1,1,1,0,11,11,29,-0.38333333333333336,0.3060185185185185,1,0,0,5.292331599994213,call1,0.02638888888888889,-0.3287037037037037,1,0,0,6.378195700002834,colour4,0.36527777777777776,0.06018518518518518,1,0,0,7.008214599991334,number2,True,True,True,39,4,2019_Nov_20_1602,MA_Theta_Exp,3.0.7,59.916045637552344,
video/Experiment/zh_sp07_Ti_Ge_3_NVocInAudio_GlobalThetaInVideo.avi,vocoded,plusVideo,sp07,Ti,Ge,3,1,1,flow/blocks/NVocInAudio_GlobalThetaInVideo_A.csv,,,,,,,,,,,,,,,,,0,1,1,1,0,12,12,18,-0.35555555555555557,-0.09537037037037037,1,0,0,4.734667299999273,call3,-0.022222222222222223,0.26851851851851855,1,0,0,5.2654788000072585,colour1,0.3763888888888889,-0.10925925925925926,1,0,0,5.7888202000031015,number3,True,True,True,39,4,2019_Nov_20_1602,MA_Theta_Exp,3.0.7,59.916045637552344,
video/Experiment/zh_sp07_Ad_Gr_1_NVocInAudio_GlobalThetaInVideo.avi,vocoded,plusVideo,sp07,Ad,Gr,1,1,1,flow/blocks/NVocInAudio_GlobalThetaInVideo_A.csv,,,,,,,,,,,,,,,,,0,1,1,1,0,13,13,4,-0.3763888888888889,0.3296296296296296,1,0,0,5.713949400000274,call1,-0.0375,0.09907407407407408,1,0,0,6.17710509999597,colour2,0.3111111111111111,0.2962962962962963,1,0,0,6.667667799993069,number1,True,True,True,39,4,2019_Nov_20_1602,MA_Theta_Exp,3.0.7,59.916045637552344,
video/Experiment/zh_sp01_Ad_Gr_3_NVocInAudio_GlobalThetaInVideo.avi,vocoded,plusVideo,sp01,Ad,Gr,3,1,1,flow/blocks/NVocInAudio_GlobalThetaInVideo_A.csv,,,,,,,,,,,,,,,,,0,1,1,1,0,14,14,22,-0.4083333333333333,0.31712962962962965,1,0,0,5.926950399996713,call1,0.020833333333333332,0.04212962962962963,1,0,0,6.448668299999554,colour2,0.44305555555555554,-0.13425925925925927,1,0,0,7.047775599989109,number3,True,True,True,39,4,2019_Nov_20_1602,MA_Theta_Exp,3.0.7,59.916045637552344,
