videoFile,condition,video,speaker,callSign,colour,number,seq,id,block,exp.thisRepN,exp.thisTrialN,exp.thisN,exp.thisIndex,training.thisRepN,training.thisTrialN,training.thisN,training.thisIndex,firstHalf.thisRepN,firstHalf.thisTrialN,firstHalf.thisN,firstHalf.thisIndex,blocksA.thisRepN,blocksA.thisTrialN,blocksA.thisN,blocksA.thisIndex,secondHalf.thisRepN,secondHalf.thisTrialN,secondHalf.thisN,secondHalf.thisIndex,blocksB.thisRepN,blocksB.thisTrialN,blocksB.thisN,blocksB.thisIndex,mouseClickOnCall.x,mouseClickOnCall.y,mouseClickOnCall.leftButton,mouseClickOnCall.midButton,mouseClickOnCall.rightButton,mouseClickOnCall.time,mouseClickOnCall.clicked_name,mouseClickOnColour.x,mouseClickOnColour.y,mouseClickOnColour.leftButton,mouseClickOnColour.midButton,mouseClickOnColour.rightButton,mouseClickOnColour.time,mouseClickOnColour.clicked_name,mouseClickOnNumber.x,mouseClickOnNumber.y,mouseClickOnNumber.leftButton,mouseClickOnNumber.midButton,mouseClickOnNumber.rightButton,mouseClickOnNumber.time,mouseClickOnNumber.clicked_name,callSignCorrect,colourCorrect,numberCorrect,participant,order,date,expName,psychopyVersion,frameRate,
video/Training/zh_sp01_Ad_We_4_NVocInAudio_NoVideo.avi,vocoded,noVideo,sp01,Ad,We,4,,,,,,,,0,0,0,0,,,,,,,,,,,,,,,,,-0.4222222222222222,0.3736111111111111,1,0,0,6.017099499993492,call1,0.03333333333333333,-0.3013888888888889,1,0,0,6.800950199976796,colour4,0.39166666666666666,-0.3402777777777778,1,0,0,7.349274999985937,number4,True,True,True,40,5,2019_Nov_21_1002,MA_Theta_Exp,3.0.7,60.15830055638842,
video/Training/zh_sp07_Ad_Ge_3_NVocInAudio_NoVideo.avi,vocoded,noVideo,sp07,Ad,Ge,3,,,,,,,,0,1,1,1,,,,,,,,,,,,,,,,,-0.40046296296296297,0.3194444444444444,1,0,0,4.676923299994087,call1,0.09537037037037037,0.30833333333333335,1,0,0,5.158466599998064,colour1,0.4287037037037037,-0.1597222222222222,1,0,0,7.4689401000214275,number3,True,True,True,40,5,2019_Nov_21_1002,MA_Theta_Exp,3.0.7,60.15830055638842,
video/Training/zh_sp01_Dr_Ro_3_NVocInAudio_GlobalThetaInVideo.avi,vocoded,plusVideo,sp01,Dr,Ro,3,,,,,,,,0,2,2,2,,,,,,,,,,,,,,,,,-0.4101851851851852,-0.35555555555555557,1,0,0,5.722023300011642,call4,-0.01712962962962963,0.2986111111111111,1,0,0,6.885321200010367,colour1,0.45092592592592595,-0.125,1,0,0,7.569174100004602,number3,False,False,True,40,5,2019_Nov_21_1002,MA_Theta_Exp,3.0.7,60.15830055638842,
video/Training/zh_sp07_Dr_Gr_4_NVocInAudio_GlobalThetaInVideo.avi,vocoded,plusVideo,sp07,Dr,Gr,4,,,,,,,,0,3,3,3,,,,,,,,,,,,,,,,,-0.40185185185185185,0.125,1,0,0,4.75265749997925,call2,0.05925925925925926,0.09583333333333334,1,0,0,5.25137299997732,colour2,0.43148148148148147,-0.28055555555555556,1,0,0,5.936837699991884,number4,True,True,True,40,5,2019_Nov_21_1002,MA_Theta_Exp,3.0.7,60.15830055638842,
video/Training/zh_sp01_Ti_Gr_2_NoThetaInAudio_NoVideo.avi,noTheta,noVideo,sp01,Ti,Gr,2,,,,,,,,0,4,4,4,,,,,,,,,,,,,,,,,0.4078703703703704,0.06944444444444445,1,0,0,6.639953899983084,call1,0.028703703703703703,0.09444444444444444,1,0,0,9.436902499990538,colour2,0.4078703703703704,0.08888888888888889,1,0,0,9.92414810002083,number2,False,True,True,40,5,2019_Nov_21_1002,MA_Theta_Exp,3.0.7,60.15830055638842,
video/Training/zh_sp07_Ti_Ro_1_NoThetaInAudio_NoVideo.avi,noTheta,noVideo,sp07,Ti,Ro,1,,,,,,,,0,5,5,5,,,,,,,,,,,,,,,,,0.4773148148148148,0.3902777777777778,1,0,0,7.444767799985129,call2,0.03148148148148148,0.03888888888888889,1,0,0,10.12830660000327,colour2,0.387037037037037,0.2375,1,0,0,10.510498899995582,number1,False,False,True,40,5,2019_Nov_21_1002,MA_Theta_Exp,3.0.7,60.15830055638842,
video/Training/zh_sp01_Un_Ge_1_NoThetaInAudio_GlobalThetaInVideo.avi,noTheta,plusVideo,sp01,Un,Ge,1,,,,,,,,0,6,6,6,,,,,,,,,,,,,,,,,-0.33935185185185185,0.28055555555555556,1,0,0,6.308340699994005,call1,0.006481481481481481,0.1,1,0,0,7.994867400004296,colour2,0.4023148148148148,0.2902777777777778,1,0,0,8.394747200014535,number1,False,False,True,40,5,2019_Nov_21_1002,MA_Theta_Exp,3.0.7,60.15830055638842,
video/Training/zh_sp07_Un_We_2_NoThetaInAudio_GlobalThetaInVideo.avi,noTheta,plusVideo,sp07,Un,We,2,,,,,,,,0,7,7,7,,,,,,,,,,,,,,,,,-0.3851851851851852,0.32222222222222224,1,0,0,7.707309399993392,call1,-0.026851851851851852,-0.1597222222222222,1,0,0,8.38604199999827,colour3,0.4023148148148148,0.05555555555555555,1,0,0,8.81932500001858,number2,False,False,True,40,5,2019_Nov_21_1002,MA_Theta_Exp,3.0.7,60.15830055638842,
video/Training/zh_sp01_Ad_Ge_1_GlobalTheta_NoVideo.avi,globalTheta,noVideo,sp01,Ad,Ge,1,,,,,,,,0,8,8,8,,,,,,,,,,,,,,,,,-0.4199074074074074,0.30277777777777776,1,0,0,6.276821799983736,call1,-0.033796296296296297,0.12222222222222222,1,0,0,6.777542600000743,colour2,0.4273148148148148,0.275,1,0,0,7.1101340999885,number1,True,False,True,40,5,2019_Nov_21_1002,MA_Theta_Exp,3.0.7,60.15830055638842,
video/Training/zh_sp07_Ad_Ro_3_GlobalTheta_NoVideo.avi,globalTheta,noVideo,sp07,Ad,Ro,3,,,,,,,,0,9,9,9,,,,,,,,,,,,,,,,,-0.4615740740740741,0.35555555555555557,1,0,0,4.801722600008361,call1,-0.047685185185185185,-0.12361111111111112,1,0,0,7.015741799987154,colour3,0.42314814814814816,-0.17916666666666667,1,0,0,7.6994996999856085,number3,True,True,True,40,5,2019_Nov_21_1002,MA_Theta_Exp,3.0.7,60.15830055638842,
video/Experiment/zh_sp01_Un_Gr_1_NoThetaInAudio_NoVideo.avi,noTheta,noVideo,sp01,Un,Gr,1,0,4,flow/blocks/NoThetaInAudio_NoVideo_A.csv,,,,,,,,,0,0,0,0,0,0,0,20,,,,,,,,,-0.41574074074074074,-0.12777777777777777,1,0,0,5.49932840000838,call3,0.020370370370370372,0.13194444444444445,1,0,0,5.982976700004656,colour2,0.4356481481481482,0.32222222222222224,1,0,0,6.49774749999051,number1,False,True,True,40,5,2019_Nov_21_1002,MA_Theta_Exp,3.0.7,60.15830055638842,
video/Experiment/zh_sp01_Ad_We_1_NoThetaInAudio_NoVideo.avi,noTheta,noVideo,sp01,Ad,We,1,0,4,flow/blocks/NoThetaInAudio_NoVideo_A.csv,,,,,,,,,0,0,0,0,0,1,1,12,,,,,,,,,-0.42962962962962964,0.32083333333333336,1,0,0,5.2988900000054855,call1,0.05925925925925926,0.25277777777777777,1,0,0,6.368026300013298,colour1,0.43842592592592594,0.28194444444444444,1,0,0,6.764258199982578,number1,True,False,True,40,5,2019_Nov_21_1002,MA_Theta_Exp,3.0.7,60.15830055638842,
video/Experiment/zh_sp07_Un_Ge_2_NoThetaInAudio_NoVideo.avi,noTheta,noVideo,sp07,Un,Ge,2,0,4,flow/blocks/NoThetaInAudio_NoVideo_A.csv,,,,,,,,,0,0,0,0,0,2,2,17,,,,,,,,,-0.3768518518518518,0.09583333333333334,1,0,0,7.35192059999099,call2,0.053703703703703705,0.07916666666666666,1,0,0,9.337648899992928,colour2,0.48564814814814816,0.08472222222222223,1,0,0,9.751530600013211,number2,False,False,True,40,5,2019_Nov_21_1002,MA_Theta_Exp,3.0.7,60.15830055638842,
video/Experiment/zh_sp01_Ad_Gr_3_NoThetaInAudio_NoVideo.avi,noTheta,noVideo,sp01,Ad,Gr,3,0,4,flow/blocks/NoThetaInAudio_NoVideo_A.csv,,,,,,,,,0,0,0,0,0,3,3,22,,,,,,,,,-0.44351851851851853,0.3194444444444444,1,0,0,5.011850699986098,call1,0.024537037037037038,0.11388888888888889,1,0,0,5.626887299993541,colour2,0.38287037037037036,-0.1388888888888889,1,0,0,6.092651500017382,number3,True,True,True,40,5,2019_Nov_21_1002,MA_Theta_Exp,3.0.7,60.15830055638842,
video/Experiment/zh_sp07_Ti_Ro_2_NoThetaInAudio_NoVideo.avi,noTheta,noVideo,sp07,Ti,Ro,2,0,4,flow/blocks/NoThetaInAudio_NoVideo_A.csv,,,,,,,,,0,0,0,0,0,4,4,25,,,,,,,,,-0.40046296296296297,0.09444444444444444,1,0,0,6.21040510002058,call2,0.000925925925925926,-0.31527777777777777,1,0,0,7.474757999996655,colour4,0.4078703703703704,0.10972222222222222,1,0,0,8.077579799981322,number2,False,False,True,40,5,2019_Nov_21_1002,MA_Theta_Exp,3.0.7,60.15830055638842,
video/Experiment/zh_sp07_Dr_Ge_4_NoThetaInAudio_NoVideo.avi,noTheta,noVideo,sp07,Dr,Ge,4,0,4,flow/blocks/NoThetaInAudio_NoVideo_A.csv,,,,,,,,,0,0,0,0,0,5,5,19,,,,,,,,,0.36064814814814816,-0.37916666666666665,1,0,0,7.519953499984695,call2,-0.0060185185185185185,-0.3,1,0,0,11.136347899999237,colour4,0.48564814814814816,-0.36944444444444446,1,0,0,11.46064320000005,number4,True,False,True,40,5,2019_Nov_21_1002,MA_Theta_Exp,3.0.7,60.15830055638842,
video/Experiment/zh_sp07_Ad_Ro_4_NoThetaInAudio_NoVideo.avi,noTheta,noVideo,sp07,Ad,Ro,4,0,4,flow/blocks/NoThetaInAudio_NoVideo_A.csv,,,,,,,,,0,0,0,0,0,6,6,11,,,,,,,,,-0.43796296296296294,0.35555555555555557,1,0,0,4.771670699992683,call1,-0.01574074074074074,-0.125,1,0,0,5.264352700003656,colour3,0.43425925925925923,-0.325,1,0,0,5.685068000020692,number4,True,True,True,40,5,2019_Nov_21_1002,MA_Theta_Exp,3.0.7,60.15830055638842,
video/Experiment/zh_sp07_Dr_Gr_2_NoThetaInAudio_NoVideo.avi,noTheta,noVideo,sp07,Dr,Gr,2,0,4,flow/blocks/NoThetaInAudio_NoVideo_A.csv,,,,,,,,,0,0,0,0,0,7,7,5,,,,,,,,,-0.38796296296296295,-0.35694444444444445,1,0,0,9.685425500007113,call4,0.009259259259259259,0.10416666666666667,1,0,0,10.30094069999177,colour2,0.42453703703703705,0.09027777777777778,1,0,0,10.598598700016737,number2,False,True,True,40,5,2019_Nov_21_1002,MA_Theta_Exp,3.0.7,60.15830055638842,
video/Experiment/zh_sp07_Ti_Ge_3_NoThetaInAudio_NoVideo.avi,noTheta,noVideo,sp07,Ti,Ge,3,0,4,flow/blocks/NoThetaInAudio_NoVideo_A.csv,,,,,,,,,0,0,0,0,0,8,8,18,,,,,,,,,-0.3574074074074074,0.3236111111111111,1,0,0,5.48431490000803,call1,0.010648148148148148,-0.36944444444444446,1,0,0,6.597958099999232,colour4,0.44675925925925924,-0.19305555555555556,1,0,0,6.9667254999803845,number3,False,False,True,40,5,2019_Nov_21_1002,MA_Theta_Exp,3.0.7,60.15830055638842,
video/Experiment/zh_sp01_Dr_Gr_3_NoThetaInAudio_NoVideo.avi,noTheta,noVideo,sp01,Dr,Gr,3,0,4,flow/blocks/NoThetaInAudio_NoVideo_A.csv,,,,,,,,,0,0,0,0,0,9,9,6,,,,,,,,,-0.4212962962962963,-0.15416666666666667,1,0,0,6.684698999975808,call3,0.07453703703703704,0.15416666666666667,1,0,0,7.136111499974504,colour2,0.4148148148148148,-0.17083333333333334,1,0,0,7.600678599992534,number3,False,True,True,40,5,2019_Nov_21_1002,MA_Theta_Exp,3.0.7,60.15830055638842,
video/Experiment/zh_sp07_Un_Ge_3_NoThetaInAudio_NoVideo.avi,noTheta,noVideo,sp07,Un,Ge,3,0,4,flow/blocks/NoThetaInAudio_NoVideo_A.csv,,,,,,,,,0,0,0,0,0,10,10,2,,,,,,,,,-0.3685185185185185,0.07083333333333333,1,0,0,6.504692700022133,call2,0.010648148148148148,0.26805555555555555,1,0,0,6.939741300011519,colour1,0.3925925925925926,-0.18333333333333332,1,0,0,7.476217799994629,number3,False,True,True,40,5,2019_Nov_21_1002,MA_Theta_Exp,3.0.7,60.15830055638842,
video/Experiment/zh_sp07_Ti_Ro_3_NoThetaInAudio_NoVideo.avi,noTheta,noVideo,sp07,Ti,Ro,3,0,4,flow/blocks/NoThetaInAudio_NoVideo_A.csv,,,,,,,,,0,0,0,0,0,11,11,10,,,,,,,,,-0.3824074074074074,-0.3333333333333333,1,0,0,7.602228200004902,call4,0.03425925925925926,0.15416666666666667,1,0,0,10.35078720000456,colour2,0.39675925925925926,-0.13333333333333333,1,0,0,10.767804000002798,number3,False,False,True,40,5,2019_Nov_21_1002,MA_Theta_Exp,3.0.7,60.15830055638842,
video/Experiment/zh_sp01_Ad_Ro_1_NoThetaInAudio_NoVideo.avi,noTheta,noVideo,sp01,Ad,Ro,1,0,4,flow/blocks/NoThetaInAudio_NoVideo_A.csv,,,,,,,,,0,0,0,0,0,12,12,8,,,,,,,,,-0.3990740740740741,0.2916666666666667,1,0,0,5.305760899995221,call1,-0.010185185185185186,-0.09027777777777778,1,0,0,5.823471000010613,colour3,0.42592592592592593,0.31805555555555554,1,0,0,6.318310200003907,number1,True,True,True,40,5,2019_Nov_21_1002,MA_Theta_Exp,3.0.7,60.15830055638842,
video/Experiment/zh_sp01_Ad_We_3_NoThetaInAudio_NoVideo.avi,noTheta,noVideo,sp01,Ad,We,3,0,4,flow/blocks/NoThetaInAudio_NoVideo_A.csv,,,,,,,,,0,0,0,0,0,13,13,30,,,,,,,,,-0.3726851851851852,0.3111111111111111,1,0,0,5.131175999995321,call1,0.02175925925925926,-0.3597222222222222,1,0,0,5.747905199998058,colour4,0.4773148148148148,-0.13472222222222222,1,0,0,6.183017800009111,number3,True,True,True,40,5,2019_Nov_21_1002,MA_Theta_Exp,3.0.7,60.15830055638842,
video/Experiment/zh_sp07_Ad_We_2_NoThetaInAudio_NoVideo.avi,noTheta,noVideo,sp07,Ad,We,2,0,4,flow/blocks/NoThetaInAudio_NoVideo_A.csv,,,,,,,,,0,0,0,0,0,14,14,29,,,,,,,,,-0.31712962962962965,0.3,1,0,0,4.620702399988659,call1,-0.033796296296296297,-0.3680555555555556,1,0,0,5.265439900016645,colour4,0.4162037037037037,0.1486111111111111,1,0,0,5.7336200999852736,number2,True,True,True,40,5,2019_Nov_21_1002,MA_Theta_Exp,3.0.7,60.15830055638842,
video/Experiment/zh_sp01_Un_We_4_NoThetaInAudio_NoVideo.avi,noTheta,noVideo,sp01,Un,We,4,0,4,flow/blocks/NoThetaInAudio_NoVideo_A.csv,,,,,,,,,0,0,0,0,0,15,15,15,,,,,,,,,-0.41435185185185186,-0.3,1,0,0,5.415126200008672,call4,0.08981481481481482,-0.29444444444444445,1,0,0,5.783305300021311,colour4,0.4217592592592593,-0.32222222222222224,1,0,0,6.5318448999896646,number4,True,True,True,40,5,2019_Nov_21_1002,MA_Theta_Exp,3.0.7,60.15830055638842,
video/Experiment/zh_sp07_Ti_Ge_4_NoThetaInAudio_NoVideo.avi,noTheta,noVideo,sp07,Ti,Ge,4,0,4,flow/blocks/NoThetaInAudio_NoVideo_A.csv,,,,,,,,,0,0,0,0,0,16,16,3,,,,,,,,,-0.425,-0.09027777777777778,1,0,0,4.753461199987214,call3,-0.011111111111111112,0.3138888888888889,1,0,0,5.290386299981037,colour1,0.5222222222222223,-0.3416666666666667,1,0,0,5.889718199992785,number4,True,True,True,40,5,2019_Nov_21_1002,MA_Theta_Exp,3.0.7,60.15830055638842,
video/Experiment/zh_sp01_Dr_Ro_2_NoThetaInAudio_NoVideo.avi,noTheta,noVideo,sp01,Dr,Ro,2,0,4,flow/blocks/NoThetaInAudio_NoVideo_A.csv,,,,,,,,,0,0,0,0,0,17,17,9,,,,,,,,,-0.37083333333333335,-0.3800925925925926,1,0,0,5.049597799981711,call4,-0.006944444444444444,-0.1398148148148148,1,0,0,5.5760913000267465,colour3,0.4583333333333333,0.13935185185185187,1,0,0,6.0172808000061195,number2,False,True,True,40,5,2019_Nov_21_1002,MA_Theta_Exp,3.0.7,60.15830055638842,
video/Experiment/zh_sp01_Ti_We_4_NoThetaInAudio_NoVideo.avi,noTheta,noVideo,sp01,Ti,We,4,0,4,flow/blocks/NoThetaInAudio_NoVideo_A.csv,,,,,,,,,0,0,0,0,0,18,18,31,,,,,,,,,-0.35138888888888886,-0.1037037037037037,1,0,0,5.141053600003943,call3,0.006944444444444444,-0.31203703703703706,1,0,0,5.8836919000023045,colour4,0.43333333333333335,-0.3148148148148148,1,0,0,6.277247499994701,number4,True,True,True,40,5,2019_Nov_21_1002,MA_Theta_Exp,3.0.7,60.15830055638842,
video/Experiment/zh_sp07_Ti_Gr_4_NoThetaInAudio_NoVideo.avi,noTheta,noVideo,sp07,Ti,Gr,4,0,4,flow/blocks/NoThetaInAudio_NoVideo_A.csv,,,,,,,,,0,0,0,0,0,19,19,7,,,,,,,,,-0.42083333333333334,-0.13842592592592592,1,0,0,5.097519999981159,call3,-0.013888888888888888,0.12268518518518519,1,0,0,5.6498393999936525,colour2,0.425,-0.2800925925925926,1,0,0,6.193293799995445,number4,True,True,True,40,5,2019_Nov_21_1002,MA_Theta_Exp,3.0.7,60.15830055638842,
video/Experiment/zh_sp01_Dr_We_2_NoThetaInAudio_NoVideo.avi,noTheta,noVideo,sp01,Dr,We,2,0,4,flow/blocks/NoThetaInAudio_NoVideo_A.csv,,,,,,,,,0,0,0,0,0,20,20,13,,,,,,,,,-0.38472222222222224,-0.08287037037037037,1,0,0,5.661018500017235,call3,0.027777777777777776,-0.3287037037037037,1,0,0,6.238150000019232,colour4,0.4041666666666667,0.1087962962962963,1,0,0,6.76884780000546,number2,False,True,True,40,5,2019_Nov_21_1002,MA_Theta_Exp,3.0.7,60.15830055638842,
video/Experiment/zh_sp01_Un_Ro_1_NoThetaInAudio_NoVideo.avi,noTheta,noVideo,sp01,Un,Ro,1,0,4,flow/blocks/NoThetaInAudio_NoVideo_A.csv,,,,,,,,,0,0,0,0,0,21,21,24,,,,,,,,,-0.39166666666666666,-0.37175925925925923,1,0,0,5.2708913999958895,call4,0.09444444444444444,-0.32175925925925924,1,0,0,5.73937549997936,colour4,0.4125,0.27685185185185185,1,0,0,7.00232580001466,number1,True,False,True,40,5,2019_Nov_21_1002,MA_Theta_Exp,3.0.7,60.15830055638842,
video/Experiment/zh_sp01_Ti_Ge_1_NoThetaInAudio_NoVideo.avi,noTheta,noVideo,sp01,Ti,Ge,1,0,4,flow/blocks/NoThetaInAudio_NoVideo_A.csv,,,,,,,,,0,0,0,0,0,22,22,16,,,,,,,,,-0.37083333333333335,-0.09675925925925925,1,0,0,5.651504400011618,call3,0.041666666666666664,0.3226851851851852,1,0,0,6.2044952000142075,colour1,0.4388888888888889,0.32546296296296295,1,0,0,6.64646950000315,number1,True,True,True,40,5,2019_Nov_21_1002,MA_Theta_Exp,3.0.7,60.15830055638842,
video/Experiment/zh_sp07_Dr_Ge_1_NoThetaInAudio_NoVideo.avi,noTheta,noVideo,sp07,Dr,Ge,1,0,4,flow/blocks/NoThetaInAudio_NoVideo_A.csv,,,,,,,,,0,0,0,0,0,23,23,0,,,,,,,,,-0.44027777777777777,-0.1259259259259259,1,0,0,4.759100199997192,call3,0.03888888888888889,0.3449074074074074,1,0,0,5.291894000023603,colour1,0.4486111111111111,0.3143518518518518,1,0,0,5.754788499994902,number1,False,True,True,40,5,2019_Nov_21_1002,MA_Theta_Exp,3.0.7,60.15830055638842,
video/Experiment/zh_sp07_Un_We_1_NoThetaInAudio_NoVideo.avi,noTheta,noVideo,sp07,Un,We,1,0,4,flow/blocks/NoThetaInAudio_NoVideo_A.csv,,,,,,,,,0,0,0,0,0,24,24,28,,,,,,,,,-0.5,-0.30925925925925923,1,0,0,4.507524900021963,call4,-0.009722222222222222,-0.337037037037037,1,0,0,5.42433800001163,colour4,0.4638888888888889,0.33240740740740743,1,0,0,6.1041811000031885,number1,True,True,True,40,5,2019_Nov_21_1002,MA_Theta_Exp,3.0.7,60.15830055638842,
video/Experiment/zh_sp01_Un_Ro_3_NoThetaInAudio_NoVideo.avi,noTheta,noVideo,sp01,Un,Ro,3,0,4,flow/blocks/NoThetaInAudio_NoVideo_A.csv,,,,,,,,,0,0,0,0,0,25,25,26,,,,,,,,,-0.3902777777777778,-0.3384259259259259,1,0,0,5.705767600011313,call4,-0.006944444444444444,-0.1537037037037037,1,0,0,7.117779700027313,colour3,0.4361111111111111,-0.1398148148148148,1,0,0,8.018982000008691,number3,True,True,True,40,5,2019_Nov_21_1002,MA_Theta_Exp,3.0.7,60.15830055638842,
video/Experiment/zh_sp01_Dr_Gr_4_NoThetaInAudio_NoVideo.avi,noTheta,noVideo,sp01,Dr,Gr,4,0,4,flow/blocks/NoThetaInAudio_NoVideo_A.csv,,,,,,,,,0,0,0,0,0,26,26,23,,,,,,,,,-0.39166666666666666,-0.29398148148148145,1,0,0,4.867687499994645,call4,0.034722222222222224,0.03935185185185185,1,0,0,5.386065900005633,colour2,0.36944444444444446,-0.3592592592592593,1,0,0,5.854739800008247,number4,False,True,True,40,5,2019_Nov_21_1002,MA_Theta_Exp,3.0.7,60.15830055638842,
video/Experiment/zh_sp01_Un_We_3_NoThetaInAudio_NoVideo.avi,noTheta,noVideo,sp01,Un,We,3,0,4,flow/blocks/NoThetaInAudio_NoVideo_A.csv,,,,,,,,,0,0,0,0,0,27,27,14,,,,,,,,,-0.4,-0.33425925925925926,1,0,0,4.991292699996848,call4,0.022222222222222223,-0.31342592592592594,1,0,0,5.471929999999702,colour4,0.43472222222222223,-0.08703703703703704,1,0,0,6.0354011000017636,number3,True,True,True,40,5,2019_Nov_21_1002,MA_Theta_Exp,3.0.7,60.15830055638842,
video/Experiment/zh_sp07_Ti_Ge_2_NoThetaInAudio_NoVideo.avi,noTheta,noVideo,sp07,Ti,Ge,2,0,4,flow/blocks/NoThetaInAudio_NoVideo_A.csv,,,,,,,,,0,0,0,0,0,28,28,1,,,,,,,,,-0.41805555555555557,-0.13842592592592592,1,0,0,4.722338699997636,call3,0.044444444444444446,0.35185185185185186,1,0,0,5.318512700003339,colour1,0.39861111111111114,0.0699074074074074,1,0,0,5.823996799997985,number2,True,True,True,40,5,2019_Nov_21_1002,MA_Theta_Exp,3.0.7,60.15830055638842,
video/Experiment/zh_sp01_Ad_Gr_1_NoThetaInAudio_NoVideo.avi,noTheta,noVideo,sp01,Ad,Gr,1,0,4,flow/blocks/NoThetaInAudio_NoVideo_A.csv,,,,,,,,,0,0,0,0,0,29,29,4,,,,,,,,,-0.4027777777777778,0.3101851851851852,1,0,0,5.344940200011479,call1,0.03333333333333333,0.08657407407407407,1,0,0,5.827616900001885,colour2,0.4722222222222222,0.29074074074074074,1,0,0,6.3338174000091385,number1,True,True,True,40,5,2019_Nov_21_1002,MA_Theta_Exp,3.0.7,60.15830055638842,
video/Experiment/zh_sp07_Ad_Gr_2_NoThetaInAudio_NoVideo.avi,noTheta,noVideo,sp07,Ad,Gr,2,0,4,flow/blocks/NoThetaInAudio_NoVideo_A.csv,,,,,,,,,0,0,0,0,0,30,30,21,,,,,,,,,-0.4083333333333333,0.30185185185185187,1,0,0,4.4537792000046466,call1,-0.009722222222222222,0.0837962962962963,1,0,0,4.859702599991579,colour2,0.4041666666666667,0.10740740740740741,1,0,0,5.351973699987866,number2,True,True,True,40,5,2019_Nov_21_1002,MA_Theta_Exp,3.0.7,60.15830055638842,
video/Experiment/zh_sp07_Dr_Ro_4_NoThetaInAudio_NoVideo.avi,noTheta,noVideo,sp07,Dr,Ro,4,0,4,flow/blocks/NoThetaInAudio_NoVideo_A.csv,,,,,,,,,0,0,0,0,0,31,31,27,,,,,,,,,-0.3819444444444444,0.29768518518518516,1,0,0,4.454014200018719,call1,-0.002777777777777778,-0.1439814814814815,1,0,0,5.130470599979162,colour3,0.42916666666666664,-0.3314814814814815,1,0,0,5.580080899992026,number4,False,True,True,40,5,2019_Nov_21_1002,MA_Theta_Exp,3.0.7,60.15830055638842,
video/Experiment/zh_sp07_Un_Ge_1_NVocInAudio_NoVideo.avi,vocoded,noVideo,sp07,Un,Ge,1,1,2,flow/blocks/NVocInAudio_NoVideo_B.csv,,,,,,,,,0,1,1,1,0,0,0,0,,,,,,,,,-0.41805555555555557,-0.33564814814814814,1,0,0,4.5750143000041135,call4,0.0375,0.3282407407407407,1,0,0,5.194464800006244,colour1,0.3902777777777778,0.27685185185185185,1,0,0,5.68070280001848,number1,True,True,True,40,5,2019_Nov_21_1002,MA_Theta_Exp,3.0.7,60.15830055638842,
video/Experiment/zh_sp07_Ad_Ro_2_NVocInAudio_NoVideo.avi,vocoded,noVideo,sp07,Ad,Ro,2,1,2,flow/blocks/NVocInAudio_NoVideo_B.csv,,,,,,,,,0,1,1,1,0,1,1,25,,,,,,,,,-0.37777777777777777,0.34629629629629627,1,0,0,4.656481299985899,call1,0.005555555555555556,-0.09675925925925925,1,0,0,5.339796599990223,colour3,0.4152777777777778,0.06296296296296296,1,0,0,5.958902800019132,number2,True,True,True,40,5,2019_Nov_21_1002,MA_Theta_Exp,3.0.7,60.15830055638842,
video/Experiment/zh_sp07_Dr_Ro_1_NVocInAudio_NoVideo.avi,vocoded,noVideo,sp07,Dr,Ro,1,1,2,flow/blocks/NVocInAudio_NoVideo_B.csv,,,,,,,,,0,1,1,1,0,2,2,24,,,,,,,,,-0.35555555555555557,0.12129629629629629,1,0,0,4.675173299998278,call2,0.06666666666666667,-0.15787037037037038,1,0,0,5.50664930001949,colour3,0.4013888888888889,0.30462962962962964,1,0,0,6.122211099980632,number1,True,True,True,40,5,2019_Nov_21_1002,MA_Theta_Exp,3.0.7,60.15830055638842,
video/Experiment/zh_sp01_Ad_Ro_3_NVocInAudio_NoVideo.avi,vocoded,noVideo,sp01,Ad,Ro,3,1,2,flow/blocks/NVocInAudio_NoVideo_B.csv,,,,,,,,,0,1,1,1,0,3,3,10,,,,,,,,,-0.38055555555555554,0.3199074074074074,1,0,0,6.330721100006485,call1,0.018055555555555554,-0.13425925925925927,1,0,0,7.051720700022997,colour3,0.49722222222222223,-0.11481481481481481,1,0,0,7.580705599975772,number3,True,True,True,40,5,2019_Nov_21_1002,MA_Theta_Exp,3.0.7,60.15830055638842,
video/Experiment/zh_sp01_Un_Ro_4_NVocInAudio_NoVideo.avi,vocoded,noVideo,sp01,Un,Ro,4,1,2,flow/blocks/NVocInAudio_NoVideo_B.csv,,,,,,,,,0,1,1,1,0,4,4,27,,,,,,,,,-0.4125,-0.32314814814814813,1,0,0,5.105043899995508,call4,0.029166666666666667,-0.09398148148148149,1,0,0,5.62292389999493,colour3,0.42777777777777776,-0.34953703703703703,1,0,0,6.073481500003254,number4,True,True,True,40,5,2019_Nov_21_1002,MA_Theta_Exp,3.0.7,60.15830055638842,
video/Experiment/zh_sp01_Ti_Ro_4_NVocInAudio_NoVideo.avi,vocoded,noVideo,sp01,Ti,Ro,4,1,2,flow/blocks/NVocInAudio_NoVideo_B.csv,,,,,,,,,0,1,1,1,0,5,5,11,,,,,,,,,-0.425,-0.1259259259259259,1,0,0,5.508548799989512,call3,0.03888888888888889,-0.13148148148148148,1,0,0,6.069053300016094,colour3,0.44166666666666665,-0.2967592592592593,1,0,0,6.542052600008901,number4,True,True,True,40,5,2019_Nov_21_1002,MA_Theta_Exp,3.0.7,60.15830055638842,
video/Experiment/zh_sp01_Ad_Ge_2_NVocInAudio_NoVideo.avi,vocoded,noVideo,sp01,Ad,Ge,2,1,2,flow/blocks/NVocInAudio_NoVideo_B.csv,,,,,,,,,0,1,1,1,0,6,6,1,,,,,,,,,-0.3888888888888889,0.3296296296296296,1,0,0,5.2103316000138875,call1,-0.009722222222222222,0.2671296296296296,1,0,0,5.9802974999765866,colour1,0.4,0.06296296296296296,1,0,0,6.497861999989254,number2,True,True,True,40,5,2019_Nov_21_1002,MA_Theta_Exp,3.0.7,60.15830055638842,
video/Experiment/zh_sp07_Dr_Ge_3_NVocInAudio_NoVideo.avi,vocoded,noVideo,sp07,Dr,Ge,3,1,2,flow/blocks/NVocInAudio_NoVideo_B.csv,,,,,,,,,0,1,1,1,0,7,7,2,,,,,,,,,-0.4097222222222222,0.07824074074074074,1,0,0,4.779146300017601,call2,0.0125,0.3101851851851852,1,0,0,5.507259499980137,colour1,0.45555555555555555,-0.07592592592592592,1,0,0,6.045011799986241,number3,True,True,True,40,5,2019_Nov_21_1002,MA_Theta_Exp,3.0.7,60.15830055638842,
video/Experiment/zh_sp07_Dr_We_4_NVocInAudio_NoVideo.avi,vocoded,noVideo,sp07,Dr,We,4,1,2,flow/blocks/NVocInAudio_NoVideo_B.csv,,,,,,,,,0,1,1,1,0,8,8,15,,,,,,,,,-0.39166666666666666,0.13240740740740742,1,0,0,4.812791500007734,call2,-0.016666666666666666,-0.29953703703703705,1,0,0,5.311601599998539,colour4,0.4013888888888889,-0.36064814814814816,1,0,0,5.7300237999879755,number4,True,True,True,40,5,2019_Nov_21_1002,MA_Theta_Exp,3.0.7,60.15830055638842,
video/Experiment/zh_sp07_Ad_We_4_NVocInAudio_NoVideo.avi,vocoded,noVideo,sp07,Ad,We,4,1,2,flow/blocks/NVocInAudio_NoVideo_B.csv,,,,,,,,,0,1,1,1,0,9,9,31,,,,,,,,,-0.4027777777777778,0.3449074074074074,1,0,0,4.991110199975083,call1,-0.004166666666666667,-0.3592592592592593,1,0,0,5.643656000000192,colour4,0.3819444444444444,-0.3509259259259259,1,0,0,6.063910900003975,number4,True,True,True,40,5,2019_Nov_21_1002,MA_Theta_Exp,3.0.7,60.15830055638842,
video/Experiment/zh_sp07_Ad_Ge_3_NVocInAudio_NoVideo.avi,vocoded,noVideo,sp07,Ad,Ge,3,1,2,flow/blocks/NVocInAudio_NoVideo_B.csv,,,,,,,,,0,1,1,1,0,10,10,18,,,,,,,,,-0.41944444444444445,0.33240740740740743,1,0,0,4.859075900021708,call1,0.006944444444444444,0.34629629629629627,1,0,0,6.299626299994998,colour1,0.3972222222222222,-0.0912037037037037,1,0,0,6.842206499975873,number3,True,True,True,40,5,2019_Nov_21_1002,MA_Theta_Exp,3.0.7,60.15830055638842,
video/Experiment/zh_sp07_Ti_Ro_1_NVocInAudio_NoVideo.avi,vocoded,noVideo,sp07,Ti,Ro,1,1,2,flow/blocks/NVocInAudio_NoVideo_B.csv,,,,,,,,,0,1,1,1,0,11,11,8,,,,,,,,,-0.36527777777777776,-0.05925925925925926,1,0,0,4.565224999998463,call3,0.029166666666666667,-0.10648148148148148,1,0,0,5.004615100013325,colour3,0.4097222222222222,0.2657407407407407,1,0,0,5.466506400000071,number1,True,True,True,40,5,2019_Nov_21_1002,MA_Theta_Exp,3.0.7,60.15830055638842,
video/Experiment/zh_sp01_Un_Ge_4_NVocInAudio_NoVideo.avi,vocoded,noVideo,sp01,Un,Ge,4,1,2,flow/blocks/NVocInAudio_NoVideo_B.csv,,,,,,,,,0,1,1,1,0,12,12,19,,,,,,,,,-0.4444444444444444,-0.3300925925925926,1,0,0,5.190661700005876,call4,0.006944444444444444,0.2865740740740741,1,0,0,5.776191499986453,colour1,0.3736111111111111,-0.3675925925925926,1,0,0,6.360539200017229,number4,True,True,True,40,5,2019_Nov_21_1002,MA_Theta_Exp,3.0.7,60.15830055638842,
video/Experiment/zh_sp07_Ti_We_3_NVocInAudio_NoVideo.avi,vocoded,noVideo,sp07,Ti,We,3,1,2,flow/blocks/NVocInAudio_NoVideo_B.csv,,,,,,,,,0,1,1,1,0,13,13,30,,,,,,,,,-0.3888888888888889,-0.1648148148148148,1,0,0,4.788275600003544,call3,0.03333333333333333,-0.3287037037037037,1,0,0,5.220641300023999,colour4,0.44027777777777777,-0.07453703703703704,1,0,0,5.839967100007925,number3,True,True,True,40,5,2019_Nov_21_1002,MA_Theta_Exp,3.0.7,60.15830055638842,
video/Experiment/zh_sp01_Un_Gr_2_NVocInAudio_NoVideo.avi,vocoded,noVideo,sp01,Un,Gr,2,1,2,flow/blocks/NVocInAudio_NoVideo_B.csv,,,,,,,,,0,1,1,1,0,14,14,5,,,,,,,,,-0.44027777777777777,-0.3287037037037037,1,0,0,5.314223800000036,call4,-0.020833333333333332,0.1087962962962963,1,0,0,5.893109199998435,colour2,0.4125,0.0837962962962963,1,0,0,6.298076800012495,number2,True,True,True,40,5,2019_Nov_21_1002,MA_Theta_Exp,3.0.7,60.15830055638842,
video/Experiment/zh_sp07_Ti_Gr_2_NVocInAudio_NoVideo.avi,vocoded,noVideo,sp07,Ti,Gr,2,1,2,flow/blocks/NVocInAudio_NoVideo_B.csv,,,,,,,,,0,1,1,1,0,15,15,21,,,,,,,,,-0.39861111111111114,-0.3162037037037037,1,0,0,4.778279299993301,call4,-0.02638888888888889,0.13935185185185187,1,0,0,5.388407099992037,colour2,0.3527777777777778,0.0962962962962963,1,0,0,5.7564560000027996,number2,False,True,True,40,5,2019_Nov_21_1002,MA_Theta_Exp,3.0.7,60.15830055638842,
video/Experiment/zh_sp07_Dr_Ge_2_NVocInAudio_NoVideo.avi,vocoded,noVideo,sp07,Dr,Ge,2,1,2,flow/blocks/NVocInAudio_NoVideo_B.csv,,,,,,,,,0,1,1,1,0,16,16,17,,,,,,,,,-0.3736111111111111,0.08796296296296297,1,0,0,5.090095699997619,call2,0.03194444444444444,0.3435185185185185,1,0,0,5.5694246999919415,colour1,0.3541666666666667,0.0962962962962963,1,0,0,6.050945299997693,number2,True,True,True,40,5,2019_Nov_21_1002,MA_Theta_Exp,3.0.7,60.15830055638842,
video/Experiment/zh_sp07_Dr_We_1_NVocInAudio_NoVideo.avi,vocoded,noVideo,sp07,Dr,We,1,1,2,flow/blocks/NVocInAudio_NoVideo_B.csv,,,,,,,,,0,1,1,1,0,17,17,28,,,,,,,,,-0.4263888888888889,0.11018518518518519,1,0,0,4.905751399986912,call2,-0.016666666666666666,-0.3384259259259259,1,0,0,5.5236127999960445,colour4,0.4305555555555556,0.3851851851851852,1,0,0,6.093706400017254,number1,True,True,True,40,5,2019_Nov_21_1002,MA_Theta_Exp,3.0.7,60.15830055638842,
video/Experiment/zh_sp01_Ti_Gr_1_NVocInAudio_NoVideo.avi,vocoded,noVideo,sp01,Ti,Gr,1,1,2,flow/blocks/NVocInAudio_NoVideo_B.csv,,,,,,,,,0,1,1,1,0,18,18,4,,,,,,,,,-0.425,-0.10787037037037037,1,0,0,5.877054299984593,call3,0.002777777777777778,0.10601851851851851,1,0,0,6.362146500003291,colour2,0.4027777777777778,0.31296296296296294,1,0,0,6.809717399999499,number1,True,True,True,40,5,2019_Nov_21_1002,MA_Theta_Exp,3.0.7,60.15830055638842,
video/Experiment/zh_sp01_Dr_We_3_NVocInAudio_NoVideo.avi,vocoded,noVideo,sp01,Dr,We,3,1,2,flow/blocks/NVocInAudio_NoVideo_B.csv,,,,,,,,,0,1,1,1,0,19,19,14,,,,,,,,,-0.37222222222222223,0.11296296296296296,1,0,0,5.701253099978203,call2,0.001388888888888889,-0.3523148148148148,1,0,0,6.3804880999960005,colour4,0.41388888888888886,-0.13425925925925927,1,0,0,7.0883865999931,number3,True,True,True,40,5,2019_Nov_21_1002,MA_Theta_Exp,3.0.7,60.15830055638842,
video/Experiment/zh_sp07_Dr_Ro_3_NVocInAudio_NoVideo.avi,vocoded,noVideo,sp07,Dr,Ro,3,1,2,flow/blocks/NVocInAudio_NoVideo_B.csv,,,,,,,,,0,1,1,1,0,20,20,26,,,,,,,,,-0.3902777777777778,0.07824074074074074,1,0,0,4.457825100020273,call2,0.06666666666666667,-0.17592592592592593,1,0,0,4.989647700014757,colour3,0.4361111111111111,-0.13148148148148148,1,0,0,5.353019500005757,number3,True,True,True,40,5,2019_Nov_21_1002,MA_Theta_Exp,3.0.7,60.15830055638842,
video/Experiment/zh_sp01_Un_Gr_3_NVocInAudio_NoVideo.avi,vocoded,noVideo,sp01,Un,Gr,3,1,2,flow/blocks/NVocInAudio_NoVideo_B.csv,,,,,,,,,0,1,1,1,0,21,21,6,,,,,,,,,-0.43194444444444446,-0.3509259259259259,1,0,0,5.061472200002754,call4,-0.019444444444444445,0.10462962962962963,1,0,0,5.615564900013851,colour2,0.40555555555555556,-0.11898148148148148,1,0,0,6.116525699995691,number3,True,True,True,40,5,2019_Nov_21_1002,MA_Theta_Exp,3.0.7,60.15830055638842,
video/Experiment/zh_sp01_Ad_Ge_4_NVocInAudio_NoVideo.avi,vocoded,noVideo,sp01,Ad,Ge,4,1,2,flow/blocks/NVocInAudio_NoVideo_B.csv,,,,,,,,,0,1,1,1,0,22,22,3,,,,,,,,,-0.3486111111111111,0.040740740740740744,1,0,0,6.526052199973492,call2,0.059722222222222225,0.07962962962962963,1,0,0,7.040002199995797,colour2,0.44583333333333336,-0.3509259259259259,1,0,0,7.579594500013627,number4,False,False,True,40,5,2019_Nov_21_1002,MA_Theta_Exp,3.0.7,60.15830055638842,
video/Experiment/zh_sp01_Ad_Ge_1_NVocInAudio_NoVideo.avi,vocoded,noVideo,sp01,Ad,Ge,1,1,2,flow/blocks/NVocInAudio_NoVideo_B.csv,,,,,,,,,0,1,1,1,0,23,23,16,,,,,,,,,-0.38472222222222224,0.4337962962962963,1,0,0,5.25920679999399,call1,0.002777777777777778,0.31296296296296294,1,0,0,6.056816099997377,colour1,0.36666666666666664,0.28935185185185186,1,0,0,6.518615300010424,number1,True,True,True,40,5,2019_Nov_21_1002,MA_Theta_Exp,3.0.7,60.15830055638842,
video/Experiment/zh_sp07_Ti_We_2_NVocInAudio_NoVideo.avi,vocoded,noVideo,sp07,Ti,We,2,1,2,flow/blocks/NVocInAudio_NoVideo_B.csv,,,,,,,,,0,1,1,1,0,24,24,29,,,,,,,,,-0.4263888888888889,-0.15231481481481482,1,0,0,4.723212000011699,call3,0.004166666666666667,-0.3050925925925926,1,0,0,5.1982262000092305,colour4,0.43333333333333335,0.12962962962962962,1,0,0,5.734048599988455,number2,True,True,True,40,5,2019_Nov_21_1002,MA_Theta_Exp,3.0.7,60.15830055638842,
video/Experiment/zh_sp01_Ti_Gr_3_NVocInAudio_NoVideo.avi,vocoded,noVideo,sp01,Ti,Gr,3,1,2,flow/blocks/NVocInAudio_NoVideo_B.csv,,,,,,,,,0,1,1,1,0,25,25,22,,,,,,,,,-0.3736111111111111,-0.14537037037037037,1,0,0,5.53992370000924,call3,0.015277777777777777,0.06018518518518518,1,0,0,6.103439400001662,colour2,0.39305555555555555,-0.10648148148148148,1,0,0,6.510378599981777,number3,True,True,True,40,5,2019_Nov_21_1002,MA_Theta_Exp,3.0.7,60.15830055638842,
video/Experiment/zh_sp01_Un_Gr_4_NVocInAudio_NoVideo.avi,vocoded,noVideo,sp01,Un,Gr,4,1,2,flow/blocks/NVocInAudio_NoVideo_B.csv,,,,,,,,,0,1,1,1,0,26,26,23,,,,,,,,,-0.4152777777777778,-0.3148148148148148,1,0,0,5.20780430000741,call4,0.02638888888888889,0.09351851851851851,1,0,0,5.9028266000095755,colour2,0.4013888888888889,-0.3050925925925926,1,0,0,6.324871999997413,number4,True,True,True,40,5,2019_Nov_21_1002,MA_Theta_Exp,3.0.7,60.15830055638842,
video/Experiment/zh_sp01_Dr_Gr_1_NVocInAudio_NoVideo.avi,vocoded,noVideo,sp01,Dr,Gr,1,1,2,flow/blocks/NVocInAudio_NoVideo_B.csv,,,,,,,,,0,1,1,1,0,27,27,20,,,,,,,,,-0.375,0.10185185185185185,1,0,0,5.579927199985832,call2,-0.015277777777777777,0.11018518518518519,1,0,0,5.974461399979191,colour2,0.47638888888888886,0.2740740740740741,1,0,0,6.624156900012167,number1,True,True,True,40,5,2019_Nov_21_1002,MA_Theta_Exp,3.0.7,60.15830055638842,
video/Experiment/zh_sp07_Ad_Gr_4_NVocInAudio_NoVideo.avi,vocoded,noVideo,sp07,Ad,Gr,4,1,2,flow/blocks/NVocInAudio_NoVideo_B.csv,,,,,,,,,0,1,1,1,0,28,28,7,,,,,,,,,-0.3888888888888889,0.3087962962962963,1,0,0,4.438356699974975,call1,-0.05555555555555555,0.11851851851851852,1,0,0,4.852009099995485,colour2,0.38333333333333336,-0.32731481481481484,1,0,0,5.337892300012754,number4,True,True,True,40,5,2019_Nov_21_1002,MA_Theta_Exp,3.0.7,60.15830055638842,
video/Experiment/zh_sp01_Un_We_2_NVocInAudio_NoVideo.avi,vocoded,noVideo,sp01,Un,We,2,1,2,flow/blocks/NVocInAudio_NoVideo_B.csv,,,,,,,,,0,1,1,1,0,29,29,13,,,,,,,,,-0.4375,0.13240740740740742,1,0,0,5.31320920001599,call2,0.011111111111111112,-0.32175925925925924,1,0,0,6.039729200012516,colour4,0.44305555555555554,0.08657407407407407,1,0,0,6.520768999995198,number2,False,True,True,40,5,2019_Nov_21_1002,MA_Theta_Exp,3.0.7,60.15830055638842,
video/Experiment/zh_sp01_Ti_We_1_NVocInAudio_NoVideo.avi,vocoded,noVideo,sp01,Ti,We,1,1,2,flow/blocks/NVocInAudio_NoVideo_B.csv,,,,,,,,,0,1,1,1,0,30,30,12,,,,,,,,,-0.37916666666666665,-0.10092592592592593,1,0,0,5.789414900005795,call3,0.002777777777777778,-0.3314814814814815,1,0,0,6.243936299986672,colour4,0.425,0.3726851851851852,1,0,0,6.926639200013597,number1,True,True,True,40,5,2019_Nov_21_1002,MA_Theta_Exp,3.0.7,60.15830055638842,
video/Experiment/zh_sp07_Un_Ro_2_NVocInAudio_NoVideo.avi,vocoded,noVideo,sp07,Un,Ro,2,1,2,flow/blocks/NVocInAudio_NoVideo_B.csv,,,,,,,,,0,1,1,1,0,31,31,9,,,,,,,,,-0.39444444444444443,-0.3300925925925926,1,0,0,4.968933299998753,call4,0.058333333333333334,-0.14814814814814814,1,0,0,5.58617399999639,colour3,0.4625,0.11574074074074074,1,0,0,6.062904599995818,number2,True,True,True,40,5,2019_Nov_21_1002,MA_Theta_Exp,3.0.7,60.15830055638842,
video/Experiment/zh_sp07_Ti_Ro_3_NoThetaInAudio_GlobalThetaInVideo.avi,noTheta,plusVideo,sp07,Ti,Ro,3,2,3,flow/blocks/NoThetaInAudio_GlobalThetaInVideo_A.csv,,,,,,,,,0,2,2,2,0,0,0,10,,,,,,,,,-0.3416666666666667,-0.10648148148148148,1,0,0,4.526507200003834,call3,0.0375,-0.1439814814814815,1,0,0,5.091836699983105,colour3,0.4652777777777778,-0.13148148148148148,1,0,0,5.662193900003331,number3,True,True,True,40,5,2019_Nov_21_1002,MA_Theta_Exp,3.0.7,60.15830055638842,
video/Experiment/zh_sp01_Ad_Ro_4_NoThetaInAudio_GlobalThetaInVideo.avi,noTheta,plusVideo,sp01,Ad,Ro,4,2,3,flow/blocks/NoThetaInAudio_GlobalThetaInVideo_A.csv,,,,,,,,,0,2,2,2,0,1,1,11,,,,,,,,,-0.36527777777777776,-0.13194444444444445,1,0,0,5.8105031000159215,call3,0.07777777777777778,-0.13194444444444445,1,0,0,6.210949000000255,colour3,0.45,-0.3236111111111111,1,0,0,6.54412889998639,number4,False,True,True,40,5,2019_Nov_21_1002,MA_Theta_Exp,3.0.7,60.15830055638842,
video/Experiment/zh_sp01_Dr_Ro_4_NoThetaInAudio_GlobalThetaInVideo.avi,noTheta,plusVideo,sp01,Dr,Ro,4,2,3,flow/blocks/NoThetaInAudio_GlobalThetaInVideo_A.csv,,,,,,,,,0,2,2,2,0,2,2,27,,,,,,,,,-0.35833333333333334,0.1375,1,0,0,5.740326200000709,call2,0.044444444444444446,-0.1125,1,0,0,6.722055999998702,colour3,0.3527777777777778,-0.3416666666666667,1,0,0,7.144222600007197,number4,True,True,True,40,5,2019_Nov_21_1002,MA_Theta_Exp,3.0.7,60.15830055638842,
video/Experiment/zh_sp01_Un_Gr_1_NoThetaInAudio_GlobalThetaInVideo.avi,noTheta,plusVideo,sp01,Un,Gr,1,2,3,flow/blocks/NoThetaInAudio_GlobalThetaInVideo_A.csv,,,,,,,,,0,2,2,2,0,3,3,20,,,,,,,,,-0.46944444444444444,-0.2708333333333333,1,0,0,5.141136899997946,call4,0.016666666666666666,0.10972222222222222,1,0,0,5.822423200006597,colour2,0.4388888888888889,0.31666666666666665,1,0,0,6.325189199997112,number1,True,True,True,40,5,2019_Nov_21_1002,MA_Theta_Exp,3.0.7,60.15830055638842,
video/Experiment/zh_sp01_Ad_Gr_3_NoThetaInAudio_GlobalThetaInVideo.avi,noTheta,plusVideo,sp01,Ad,Gr,3,2,3,flow/blocks/NoThetaInAudio_GlobalThetaInVideo_A.csv,,,,,,,,,0,2,2,2,0,4,4,22,,,,,,,,,-0.37777777777777777,0.28055555555555556,1,0,0,5.647981799993431,call1,0.0375,0.1125,1,0,0,6.267413199995644,colour2,0.5138888888888888,-0.12222222222222222,1,0,0,6.86719330001506,number3,True,True,True,40,5,2019_Nov_21_1002,MA_Theta_Exp,3.0.7,60.15830055638842,
video/Experiment/zh_sp01_Ti_Ge_4_NoThetaInAudio_GlobalThetaInVideo.avi,noTheta,plusVideo,sp01,Ti,Ge,4,2,3,flow/blocks/NoThetaInAudio_GlobalThetaInVideo_A.csv,,,,,,,,,0,2,2,2,0,5,5,3,,,,,,,,,-0.44722222222222224,-0.16064814814814815,1,0,0,5.355342399998335,call3,0.04722222222222222,0.2671296296296296,1,0,0,6.195676500006812,colour1,0.38055555555555554,-0.3675925925925926,1,0,0,6.853628899989417,number4,True,True,True,40,5,2019_Nov_21_1002,MA_Theta_Exp,3.0.7,60.15830055638842,
video/Experiment/zh_sp07_Un_We_3_NoThetaInAudio_GlobalThetaInVideo.avi,noTheta,plusVideo,sp07,Un,We,3,2,3,flow/blocks/NoThetaInAudio_GlobalThetaInVideo_A.csv,,,,,,,,,0,2,2,2,0,6,6,14,,,,,,,,,-0.4041666666666667,-0.18009259259259258,1,0,0,4.633462800004054,call3,-0.022222222222222223,-0.27870370370370373,1,0,0,5.680335700017167,colour4,0.3527777777777778,-0.16342592592592592,1,0,0,6.040227899997262,number3,False,True,True,40,5,2019_Nov_21_1002,MA_Theta_Exp,3.0.7,60.15830055638842,
video/Experiment/zh_sp07_Dr_Ge_1_NoThetaInAudio_GlobalThetaInVideo.avi,noTheta,plusVideo,sp07,Dr,Ge,1,2,3,flow/blocks/NoThetaInAudio_GlobalThetaInVideo_A.csv,,,,,,,,,0,2,2,2,0,7,7,0,,,,,,,,,-0.4222222222222222,-0.12731481481481483,1,0,0,4.896293900004821,call3,-0.013888888888888888,0.32407407407407407,1,0,0,6.075841999991098,colour1,0.33055555555555555,0.31296296296296294,1,0,0,6.414524700026959,number1,False,True,True,40,5,2019_Nov_21_1002,MA_Theta_Exp,3.0.7,60.15830055638842,
video/Experiment/zh_sp07_Dr_Gr_2_NoThetaInAudio_GlobalThetaInVideo.avi,noTheta,plusVideo,sp07,Dr,Gr,2,2,3,flow/blocks/NoThetaInAudio_GlobalThetaInVideo_A.csv,,,,,,,,,0,2,2,2,0,8,8,5,,,,,,,,,-0.4152777777777778,-0.3314814814814815,1,0,0,6.747679200023413,call4,0.016666666666666666,0.07824074074074074,1,0,0,7.461253700021189,colour2,0.4083333333333333,0.07962962962962963,1,0,0,8.216537500004051,number2,False,True,True,40,5,2019_Nov_21_1002,MA_Theta_Exp,3.0.7,60.15830055638842,
video/Experiment/zh_sp01_Un_Ro_3_NoThetaInAudio_GlobalThetaInVideo.avi,noTheta,plusVideo,sp01,Un,Ro,3,2,3,flow/blocks/NoThetaInAudio_GlobalThetaInVideo_A.csv,,,,,,,,,0,2,2,2,0,9,9,26,,,,,,,,,-0.3888888888888889,-0.32175925925925924,1,0,0,5.195969799999148,call4,0.019444444444444445,0.08796296296296297,1,0,0,6.695970099972328,colour2,0.41805555555555557,-0.08981481481481482,1,0,0,7.059506199992029,number3,True,False,True,40,5,2019_Nov_21_1002,MA_Theta_Exp,3.0.7,60.15830055638842,
video/Experiment/zh_sp07_Dr_Gr_4_NoThetaInAudio_GlobalThetaInVideo.avi,noTheta,plusVideo,sp07,Dr,Gr,4,2,3,flow/blocks/NoThetaInAudio_GlobalThetaInVideo_A.csv,,,,,,,,,0,2,2,2,0,10,10,23,,,,,,,,,-0.42777777777777776,0.30462962962962964,1,0,0,5.562627699982841,call1,-0.009722222222222222,0.09212962962962963,1,0,0,6.133021499990718,colour2,0.42083333333333334,-0.0912037037037037,1,0,0,6.583202700014226,number3,False,True,False,40,5,2019_Nov_21_1002,MA_Theta_Exp,3.0.7,60.15830055638842,
video/Experiment/zh_sp01_Un_Ro_1_NoThetaInAudio_GlobalThetaInVideo.avi,noTheta,plusVideo,sp01,Un,Ro,1,2,3,flow/blocks/NoThetaInAudio_GlobalThetaInVideo_A.csv,,,,,,,,,0,2,2,2,0,11,11,24,,,,,,,,,-0.32222222222222224,-0.3648148148148148,1,0,0,6.525004600000102,call4,-0.015277777777777777,-0.1550925925925926,1,0,0,8.40134000001126,colour3,0.4236111111111111,0.32407407407407407,1,0,0,8.900462199992035,number1,True,True,True,40,5,2019_Nov_21_1002,MA_Theta_Exp,3.0.7,60.15830055638842,
video/Experiment/zh_sp07_Un_Ge_3_NoThetaInAudio_GlobalThetaInVideo.avi,noTheta,plusVideo,sp07,Un,Ge,3,2,3,flow/blocks/NoThetaInAudio_GlobalThetaInVideo_A.csv,,,,,,,,,0,2,2,2,0,12,12,2,,,,,,,,,-0.4166666666666667,-0.3662037037037037,1,0,0,4.671485600003507,call4,0.016666666666666666,0.3768518518518518,1,0,0,5.558325399993919,colour1,0.4041666666666667,-0.13842592592592592,1,0,0,6.147994500002824,number3,True,True,True,40,5,2019_Nov_21_1002,MA_Theta_Exp,3.0.7,60.15830055638842,
video/Experiment/zh_sp07_Ti_Ge_2_NoThetaInAudio_GlobalThetaInVideo.avi,noTheta,plusVideo,sp07,Ti,Ge,2,2,3,flow/blocks/NoThetaInAudio_GlobalThetaInVideo_A.csv,,,,,,,,,0,2,2,2,0,13,13,1,,,,,,,,,-0.4111111111111111,-0.13287037037037036,1,0,0,5.0857827000145335,call3,0.04861111111111111,0.2657407407407407,1,0,0,5.670111799990991,colour1,0.34305555555555556,0.09351851851851851,1,0,0,6.0923967999988236,number2,True,True,True,40,5,2019_Nov_21_1002,MA_Theta_Exp,3.0.7,60.15830055638842,
video/Experiment/zh_sp07_Ti_Gr_4_NoThetaInAudio_GlobalThetaInVideo.avi,noTheta,plusVideo,sp07,Ti,Gr,4,2,3,flow/blocks/NoThetaInAudio_GlobalThetaInVideo_A.csv,,,,,,,,,0,2,2,2,0,14,14,7,,,,,,,,,-0.37083333333333335,-0.12314814814814815,1,0,0,4.670008599990979,call3,0.11944444444444445,0.09490740740740741,1,0,0,5.236614499997813,colour2,0.4097222222222222,-0.2689814814814815,1,0,0,5.984808300010627,number4,True,True,True,40,5,2019_Nov_21_1002,MA_Theta_Exp,3.0.7,60.15830055638842,
video/Experiment/zh_sp01_Dr_Gr_3_NoThetaInAudio_GlobalThetaInVideo.avi,noTheta,plusVideo,sp01,Dr,Gr,3,2,3,flow/blocks/NoThetaInAudio_GlobalThetaInVideo_A.csv,,,,,,,,,0,2,2,2,0,15,15,6,,,,,,,,,-0.4125,-0.3300925925925926,1,0,0,5.27580420000595,call4,-0.002777777777777778,0.06018518518518518,1,0,0,5.929223299986916,colour2,0.44722222222222224,-0.12037037037037036,1,0,0,6.357112199999392,number3,False,True,True,40,5,2019_Nov_21_1002,MA_Theta_Exp,3.0.7,60.15830055638842,
video/Experiment/zh_sp01_Ad_Ro_1_NoThetaInAudio_GlobalThetaInVideo.avi,noTheta,plusVideo,sp01,Ad,Ro,1,2,3,flow/blocks/NoThetaInAudio_GlobalThetaInVideo_A.csv,,,,,,,,,0,2,2,2,0,16,16,8,,,,,,,,,-0.3902777777777778,0.28379629629629627,1,0,0,5.400348299997859,call1,-0.05416666666666667,-0.10648148148148148,1,0,0,5.858576499973424,colour3,0.3736111111111111,0.2865740740740741,1,0,0,6.312837600009516,number1,True,True,True,40,5,2019_Nov_21_1002,MA_Theta_Exp,3.0.7,60.15830055638842,
video/Experiment/zh_sp01_Dr_Ge_4_NoThetaInAudio_GlobalThetaInVideo.avi,noTheta,plusVideo,sp01,Dr,Ge,4,2,3,flow/blocks/NoThetaInAudio_GlobalThetaInVideo_A.csv,,,,,,,,,0,2,2,2,0,17,17,19,,,,,,,,,-0.43194444444444446,-0.3398148148148148,1,0,0,6.98765419999836,call4,0.025,0.31296296296296294,1,0,0,8.117192200006684,colour1,0.39861111111111114,-0.32592592592592595,1,0,0,8.704017800017027,number4,False,True,True,40,5,2019_Nov_21_1002,MA_Theta_Exp,3.0.7,60.15830055638842,
video/Experiment/zh_sp01_Ti_Ge_1_NoThetaInAudio_GlobalThetaInVideo.avi,noTheta,plusVideo,sp01,Ti,Ge,1,2,3,flow/blocks/NoThetaInAudio_GlobalThetaInVideo_A.csv,,,,,,,,,0,2,2,2,0,18,18,16,,,,,,,,,-0.36944444444444446,-0.16620370370370371,1,0,0,5.353990100004012,call3,-0.02361111111111111,0.2587962962962963,1,0,0,5.811206000013044,colour1,0.425,0.2851851851851852,1,0,0,6.2660697999817785,number1,True,True,True,40,5,2019_Nov_21_1002,MA_Theta_Exp,3.0.7,60.15830055638842,
video/Experiment/zh_sp07_Un_Ge_2_NoThetaInAudio_GlobalThetaInVideo.avi,noTheta,plusVideo,sp07,Un,Ge,2,2,3,flow/blocks/NoThetaInAudio_GlobalThetaInVideo_A.csv,,,,,,,,,0,2,2,2,0,19,19,17,,,,,,,,,-0.4305555555555556,-0.324537037037037,1,0,0,4.648069499991834,call4,0.06388888888888888,0.3087962962962963,1,0,0,5.34781269999803,colour1,0.5458333333333333,0.07407407407407407,1,0,0,5.832525199977681,number2,True,True,True,40,5,2019_Nov_21_1002,MA_Theta_Exp,3.0.7,60.15830055638842,
video/Experiment/zh_sp01_Un_We_1_NoThetaInAudio_GlobalThetaInVideo.avi,noTheta,plusVideo,sp01,Un,We,1,2,3,flow/blocks/NoThetaInAudio_GlobalThetaInVideo_A.csv,,,,,,,,,0,2,2,2,0,20,20,28,,,,,,,,,-0.43333333333333335,-0.37037037037037035,1,0,0,5.083897599979537,call4,-0.029166666666666667,-0.32314814814814813,1,0,0,5.497804699989501,colour4,0.36944444444444446,0.23935185185185184,1,0,0,5.983274800004438,number1,True,True,True,40,5,2019_Nov_21_1002,MA_Theta_Exp,3.0.7,60.15830055638842,
video/Experiment/zh_sp07_Ti_Ge_3_NoThetaInAudio_GlobalThetaInVideo.avi,noTheta,plusVideo,sp07,Ti,Ge,3,2,3,flow/blocks/NoThetaInAudio_GlobalThetaInVideo_A.csv,,,,,,,,,0,2,2,2,0,21,21,18,,,,,,,,,-0.3597222222222222,-0.09675925925925925,1,0,0,4.430325900000753,call3,0.04583333333333333,0.30185185185185187,1,0,0,4.969471699994756,colour1,0.4486111111111111,-0.09675925925925925,1,0,0,5.381912800017744,number3,True,True,True,40,5,2019_Nov_21_1002,MA_Theta_Exp,3.0.7,60.15830055638842,
video/Experiment/zh_sp07_Un_We_4_NoThetaInAudio_GlobalThetaInVideo.avi,noTheta,plusVideo,sp07,Un,We,4,2,3,flow/blocks/NoThetaInAudio_GlobalThetaInVideo_A.csv,,,,,,,,,0,2,2,2,0,22,22,15,,,,,,,,,-0.4013888888888889,-0.3398148148148148,1,0,0,4.425510299974121,call4,0.05277777777777778,0.10046296296296296,1,0,0,4.90607060000184,colour2,0.4625,-0.3037037037037037,1,0,0,5.400928999995813,number4,True,False,True,40,5,2019_Nov_21_1002,MA_Theta_Exp,3.0.7,60.15830055638842,
video/Experiment/zh_sp01_Ad_We_1_NoThetaInAudio_GlobalThetaInVideo.avi,noTheta,plusVideo,sp01,Ad,We,1,2,3,flow/blocks/NoThetaInAudio_GlobalThetaInVideo_A.csv,,,,,,,,,0,2,2,2,0,23,23,12,,,,,,,,,-0.375,0.3587962962962963,1,0,0,5.601014899992151,call1,0.05138888888888889,-0.22592592592592592,1,0,0,6.27426460001152,colour4,0.4083333333333333,0.287962962962963,1,0,0,6.930705999984639,number1,True,True,True,40,5,2019_Nov_21_1002,MA_Theta_Exp,3.0.7,60.15830055638842,
video/Experiment/zh_sp01_Ad_Gr_2_NoThetaInAudio_GlobalThetaInVideo.avi,noTheta,plusVideo,sp01,Ad,Gr,2,2,3,flow/blocks/NoThetaInAudio_GlobalThetaInVideo_A.csv,,,,,,,,,0,2,2,2,0,24,24,21,,,,,,,,,-0.37777777777777777,0.30185185185185187,1,0,0,5.344814899988705,call1,0.020833333333333332,0.06435185185185185,1,0,0,5.7433884999773,colour2,0.3888888888888889,0.09907407407407408,1,0,0,6.095761300006416,number2,True,True,True,40,5,2019_Nov_21_1002,MA_Theta_Exp,3.0.7,60.15830055638842,
video/Experiment/zh_sp07_Ad_Gr_1_NoThetaInAudio_GlobalThetaInVideo.avi,noTheta,plusVideo,sp07,Ad,Gr,1,2,3,flow/blocks/NoThetaInAudio_GlobalThetaInVideo_A.csv,,,,,,,,,0,2,2,2,0,25,25,4,,,,,,,,,-0.39444444444444443,0.29074074074074074,1,0,0,4.390459899994312,call1,-0.06111111111111111,0.11296296296296296,1,0,0,4.740052000008291,colour2,0.37777777777777777,0.27546296296296297,1,0,0,5.144265300012194,number1,True,True,True,40,5,2019_Nov_21_1002,MA_Theta_Exp,3.0.7,60.15830055638842,
video/Experiment/zh_sp07_Dr_We_2_NoThetaInAudio_GlobalThetaInVideo.avi,noTheta,plusVideo,sp07,Dr,We,2,2,3,flow/blocks/NoThetaInAudio_GlobalThetaInVideo_A.csv,,,,,,,,,0,2,2,2,0,26,26,13,,,,,,,,,-0.3402777777777778,0.26435185185185184,1,0,0,4.792878999985987,call1,0.07083333333333333,-0.3300925925925926,1,0,0,5.592454199999338,colour4,0.38333333333333336,0.10185185185185185,1,0,0,6.073339399998076,number2,False,True,True,40,5,2019_Nov_21_1002,MA_Theta_Exp,3.0.7,60.15830055638842,
video/Experiment/zh_sp07_Ad_We_3_NoThetaInAudio_GlobalThetaInVideo.avi,noTheta,plusVideo,sp07,Ad,We,3,2,3,flow/blocks/NoThetaInAudio_GlobalThetaInVideo_A.csv,,,,,,,,,0,2,2,2,0,27,27,30,,,,,,,,,-0.37222222222222223,0.31296296296296294,1,0,0,4.274503900000127,call1,-0.004166666666666667,-0.35648148148148145,1,0,0,4.904676800011657,colour4,0.43194444444444446,-0.1675925925925926,1,0,0,5.340429000003496,number3,True,True,True,40,5,2019_Nov_21_1002,MA_Theta_Exp,3.0.7,60.15830055638842,
video/Experiment/zh_sp07_Dr_Ro_2_NoThetaInAudio_GlobalThetaInVideo.avi,noTheta,plusVideo,sp07,Dr,Ro,2,2,3,flow/blocks/NoThetaInAudio_GlobalThetaInVideo_A.csv,,,,,,,,,0,2,2,2,0,28,28,9,,,,,,,,,-0.43194444444444446,0.28379629629629627,1,0,0,4.543305600003805,call1,0.044444444444444446,-0.1550925925925926,1,0,0,5.124014700006228,colour3,0.4597222222222222,0.09212962962962963,1,0,0,5.5427639999834355,number2,False,True,True,40,5,2019_Nov_21_1002,MA_Theta_Exp,3.0.7,60.15830055638842,
video/Experiment/zh_sp07_Ti_We_4_NoThetaInAudio_GlobalThetaInVideo.avi,noTheta,plusVideo,sp07,Ti,We,4,2,3,flow/blocks/NoThetaInAudio_GlobalThetaInVideo_A.csv,,,,,,,,,0,2,2,2,0,29,29,31,,,,,,,,,-0.39444444444444443,-0.12175925925925926,1,0,0,4.774732799996855,call3,0.04583333333333333,-0.36203703703703705,1,0,0,5.3114164999860805,colour4,0.4388888888888889,-0.3175925925925926,1,0,0,5.8639142000174616,number4,True,True,True,40,5,2019_Nov_21_1002,MA_Theta_Exp,3.0.7,60.15830055638842,
video/Experiment/zh_sp01_Ti_Ro_2_NoThetaInAudio_GlobalThetaInVideo.avi,noTheta,plusVideo,sp01,Ti,Ro,2,2,3,flow/blocks/NoThetaInAudio_GlobalThetaInVideo_A.csv,,,,,,,,,0,2,2,2,0,30,30,25,,,,,,,,,-0.4027777777777778,-0.12175925925925926,1,0,0,5.3912579999887384,call3,0.001388888888888889,-0.15092592592592594,1,0,0,5.8781995000026654,colour3,0.4027777777777778,0.06851851851851852,1,0,0,6.344912400003523,number2,True,True,True,40,5,2019_Nov_21_1002,MA_Theta_Exp,3.0.7,60.15830055638842,
video/Experiment/zh_sp01_Ad_We_2_NoThetaInAudio_GlobalThetaInVideo.avi,noTheta,plusVideo,sp01,Ad,We,2,2,3,flow/blocks/NoThetaInAudio_GlobalThetaInVideo_A.csv,,,,,,,,,0,2,2,2,0,31,31,29,,,,,,,,,-0.3888888888888889,-0.13564814814814816,1,0,0,4.974137899989728,call3,0.06388888888888888,-0.34814814814814815,1,0,0,5.456558799982304,colour4,0.4097222222222222,0.0699074074074074,1,0,0,5.938395200006198,number2,False,True,True,40,5,2019_Nov_21_1002,MA_Theta_Exp,3.0.7,60.15830055638842,
video/Experiment/zh_sp01_Un_Gr_3_GlobalTheta_NoVideo.avi,globalTheta,noVideo,sp01,Un,Gr,3,3,5,flow/blocks/GlobalTheta_NoVideo_B.csv,,,,,,,,,0,3,3,3,0,0,0,6,,,,,,,,,-0.43472222222222223,-0.08287037037037037,1,0,0,5.000071299989941,call3,-0.02638888888888889,0.11435185185185186,1,0,0,5.448113199992804,colour2,0.42777777777777776,-0.14675925925925926,1,0,0,5.9072222000104375,number3,False,True,True,40,5,2019_Nov_21_1002,MA_Theta_Exp,3.0.7,60.15830055638842,
video/Experiment/zh_sp07_Dr_Ge_3_GlobalTheta_NoVideo.avi,globalTheta,noVideo,sp07,Dr,Ge,3,3,5,flow/blocks/GlobalTheta_NoVideo_B.csv,,,,,,,,,0,3,3,3,0,1,1,2,,,,,,,,,-0.3861111111111111,-0.09259259259259259,1,0,0,5.881018499989295,call3,0.016666666666666666,0.11712962962962963,1,0,0,8.712531899975147,colour2,0.4152777777777778,-0.08703703703703704,1,0,0,9.250577300001169,number3,False,False,True,40,5,2019_Nov_21_1002,MA_Theta_Exp,3.0.7,60.15830055638842,
video/Experiment/zh_sp01_Un_Ro_2_GlobalTheta_NoVideo.avi,globalTheta,noVideo,sp01,Un,Ro,2,3,5,flow/blocks/GlobalTheta_NoVideo_B.csv,,,,,,,,,0,3,3,3,0,2,2,9,,,,,,,,,-0.3902777777777778,-0.3439814814814815,1,0,0,5.1893906999903265,call4,0.029166666666666667,0.08935185185185185,1,0,0,5.648918299993966,colour2,0.36666666666666664,0.08796296296296297,1,0,0,5.983283300010953,number2,True,False,True,40,5,2019_Nov_21_1002,MA_Theta_Exp,3.0.7,60.15830055638842,
video/Experiment/zh_sp07_Un_Ge_4_GlobalTheta_NoVideo.avi,globalTheta,noVideo,sp07,Un,Ge,4,3,5,flow/blocks/GlobalTheta_NoVideo_B.csv,,,,,,,,,0,3,3,3,0,3,3,19,,,,,,,,,-0.44166666666666665,-0.28564814814814815,1,0,0,4.291056600020966,call4,-0.001388888888888889,-0.3523148148148148,1,0,0,5.294936299993424,colour4,0.4597222222222222,-0.17314814814814813,1,0,0,5.673317500011763,number3,True,False,False,40,5,2019_Nov_21_1002,MA_Theta_Exp,3.0.7,60.15830055638842,
video/Experiment/zh_sp01_Ad_Ge_1_GlobalTheta_NoVideo.avi,globalTheta,noVideo,sp01,Ad,Ge,1,3,5,flow/blocks/GlobalTheta_NoVideo_B.csv,,,,,,,,,0,3,3,3,0,4,4,16,,,,,,,,,-0.4222222222222222,-0.16064814814814815,1,0,0,5.724528399994597,call3,0.022222222222222223,0.300462962962963,1,0,0,7.136395099980291,colour1,0.36944444444444446,0.2935185185185185,1,0,0,7.486892100016121,number1,False,True,True,40,5,2019_Nov_21_1002,MA_Theta_Exp,3.0.7,60.15830055638842,
video/Experiment/zh_sp01_Ti_We_1_GlobalTheta_NoVideo.avi,globalTheta,noVideo,sp01,Ti,We,1,3,5,flow/blocks/GlobalTheta_NoVideo_B.csv,,,,,,,,,0,3,3,3,0,5,5,12,,,,,,,,,-0.36944444444444446,-0.14675925925925926,1,0,0,5.180370599991875,call3,0.018055555555555554,-0.26064814814814813,1,0,0,6.030124299984891,colour4,0.37083333333333335,0.2796296296296296,1,0,0,6.4595237000030465,number1,True,True,True,40,5,2019_Nov_21_1002,MA_Theta_Exp,3.0.7,60.15830055638842,
video/Experiment/zh_sp07_Ti_Gr_3_GlobalTheta_NoVideo.avi,globalTheta,noVideo,sp07,Ti,Gr,3,3,5,flow/blocks/GlobalTheta_NoVideo_B.csv,,,,,,,,,0,3,3,3,0,6,6,22,,,,,,,,,-0.3611111111111111,-0.1175925925925926,1,0,0,4.4052980999986175,call3,0.019444444444444445,0.06018518518518518,1,0,0,4.998190999991493,colour2,0.44166666666666665,-0.14675925925925926,1,0,0,5.577944400021806,number3,True,True,True,40,5,2019_Nov_21_1002,MA_Theta_Exp,3.0.7,60.15830055638842,
video/Experiment/zh_sp01_Dr_Gr_1_GlobalTheta_NoVideo.avi,globalTheta,noVideo,sp01,Dr,Gr,1,3,5,flow/blocks/GlobalTheta_NoVideo_B.csv,,,,,,,,,0,3,3,3,0,7,7,20,,,,,,,,,-0.3402777777777778,-0.12175925925925926,1,0,0,5.22233089999645,call3,0.03611111111111111,0.049074074074074076,1,0,0,5.644726800004719,colour2,0.44027777777777777,0.28935185185185186,1,0,0,6.257744700007606,number1,False,True,True,40,5,2019_Nov_21_1002,MA_Theta_Exp,3.0.7,60.15830055638842,
video/Experiment/zh_sp01_Ad_We_4_GlobalTheta_NoVideo.avi,globalTheta,noVideo,sp01,Ad,We,4,3,5,flow/blocks/GlobalTheta_NoVideo_B.csv,,,,,,,,,0,3,3,3,0,8,8,31,,,,,,,,,-0.4388888888888889,-0.1300925925925926,1,0,0,5.109456900012447,call3,0.03333333333333333,-0.29398148148148145,1,0,0,5.946393499994883,colour4,0.4027777777777778,-0.13564814814814816,1,0,0,6.332193300011568,number3,False,True,False,40,5,2019_Nov_21_1002,MA_Theta_Exp,3.0.7,60.15830055638842,
video/Experiment/zh_sp01_Ad_Gr_4_GlobalTheta_NoVideo.avi,globalTheta,noVideo,sp01,Ad,Gr,4,3,5,flow/blocks/GlobalTheta_NoVideo_B.csv,,,,,,,,,0,3,3,3,0,9,9,7,,,,,,,,,-0.3861111111111111,-0.10925925925925926,1,0,0,4.998446600016905,call3,0.0875,0.06018518518518518,1,0,0,5.594576500006951,colour2,0.4263888888888889,-0.324537037037037,1,0,0,6.448436000006041,number4,False,True,True,40,5,2019_Nov_21_1002,MA_Theta_Exp,3.0.7,60.15830055638842,
video/Experiment/zh_sp07_Ti_Ro_1_GlobalTheta_NoVideo.avi,globalTheta,noVideo,sp07,Ti,Ro,1,3,5,flow/blocks/GlobalTheta_NoVideo_B.csv,,,,,,,,,0,3,3,3,0,10,10,8,,,,,,,,,-0.42083333333333334,-0.13287037037037036,1,0,0,4.501679200009676,call3,-0.004166666666666667,0.024074074074074074,1,0,0,5.669791499996791,colour2,0.4236111111111111,0.24768518518518517,1,0,0,6.544260200025747,number1,True,False,True,40,5,2019_Nov_21_1002,MA_Theta_Exp,3.0.7,60.15830055638842,
video/Experiment/zh_sp01_Un_Ro_4_GlobalTheta_NoVideo.avi,globalTheta,noVideo,sp01,Un,Ro,4,3,5,flow/blocks/GlobalTheta_NoVideo_B.csv,,,,,,,,,0,3,3,3,0,11,11,27,,,,,,,,,-0.39444444444444443,-0.12314814814814815,1,0,0,4.853587199992035,call3,0.06666666666666667,0.11296296296296296,1,0,0,5.23541490000207,colour2,0.44722222222222224,-0.1814814814814815,1,0,0,5.672367799998028,number3,False,False,False,40,5,2019_Nov_21_1002,MA_Theta_Exp,3.0.7,60.15830055638842,
video/Experiment/zh_sp07_Dr_Ro_1_GlobalTheta_NoVideo.avi,globalTheta,noVideo,sp07,Dr,Ro,1,3,5,flow/blocks/GlobalTheta_NoVideo_B.csv,,,,,,,,,0,3,3,3,0,12,12,24,,,,,,,,,-0.3486111111111111,-0.10787037037037037,1,0,0,4.559706000000006,call3,0.07361111111111111,0.031018518518518518,1,0,0,5.18855479999911,colour2,0.43333333333333335,0.3060185185185185,1,0,0,5.6228118000144605,number1,False,False,True,40,5,2019_Nov_21_1002,MA_Theta_Exp,3.0.7,60.15830055638842,
video/Experiment/zh_sp07_Ti_We_3_GlobalTheta_NoVideo.avi,globalTheta,noVideo,sp07,Ti,We,3,3,5,flow/blocks/GlobalTheta_NoVideo_B.csv,,,,,,,,,0,3,3,3,0,13,13,30,,,,,,,,,-0.4375,-0.1787037037037037,1,0,0,4.307127399981255,call3,0.02361111111111111,0.08657407407407407,1,0,0,4.9547410999948625,colour2,0.49583333333333335,-0.11898148148148148,1,0,0,5.894420900003752,number3,True,False,True,40,5,2019_Nov_21_1002,MA_Theta_Exp,3.0.7,60.15830055638842,
video/Experiment/zh_sp07_Ti_Gr_1_GlobalTheta_NoVideo.avi,globalTheta,noVideo,sp07,Ti,Gr,1,3,5,flow/blocks/GlobalTheta_NoVideo_B.csv,,,,,,,,,0,3,3,3,0,14,14,4,,,,,,,,,-0.34305555555555556,-0.15092592592592594,1,0,0,4.093372900009854,call3,0.011111111111111112,0.05740740740740741,1,0,0,4.493401400017319,colour2,0.3902777777777778,0.27546296296296297,1,0,0,4.863946700002998,number1,True,True,True,40,5,2019_Nov_21_1002,MA_Theta_Exp,3.0.7,60.15830055638842,
video/Experiment/zh_sp01_Ad_Ge_3_GlobalTheta_NoVideo.avi,globalTheta,noVideo,sp01,Ad,Ge,3,3,5,flow/blocks/GlobalTheta_NoVideo_B.csv,,,,,,,,,0,3,3,3,0,15,15,18,,,,,,,,,-0.375,0.3296296296296296,1,0,0,4.526006500003859,call1,-0.015277777777777777,0.10462962962962963,1,0,0,4.996426199999405,colour2,0.3888888888888889,-0.14814814814814814,1,0,0,5.377204899996286,number3,True,False,True,40,5,2019_Nov_21_1002,MA_Theta_Exp,3.0.7,60.15830055638842,
video/Experiment/zh_sp01_Ti_Gr_2_GlobalTheta_NoVideo.avi,globalTheta,noVideo,sp01,Ti,Gr,2,3,5,flow/blocks/GlobalTheta_NoVideo_B.csv,,,,,,,,,0,3,3,3,0,16,16,21,,,,,,,,,-0.3597222222222222,-0.08564814814814815,1,0,0,5.197522900009062,call3,0.016666666666666666,0.07962962962962963,1,0,0,5.549697500013281,colour2,0.375,0.1726851851851852,1,0,0,5.956942899996648,number2,True,True,True,40,5,2019_Nov_21_1002,MA_Theta_Exp,3.0.7,60.15830055638842,
video/Experiment/zh_sp01_Un_Gr_4_GlobalTheta_NoVideo.avi,globalTheta,noVideo,sp01,Un,Gr,4,3,5,flow/blocks/GlobalTheta_NoVideo_B.csv,,,,,,,,,0,3,3,3,0,17,17,23,,,,,,,,,-0.4166666666666667,-0.1050925925925926,1,0,0,4.7282314999902155,call3,0.06527777777777778,0.0587962962962963,1,0,0,5.1170435000094585,colour2,0.425,-0.3175925925925926,1,0,0,5.531101200002013,number4,False,True,True,40,5,2019_Nov_21_1002,MA_Theta_Exp,3.0.7,60.15830055638842,
video/Experiment/zh_sp07_Dr_Ge_2_GlobalTheta_NoVideo.avi,globalTheta,noVideo,sp07,Dr,Ge,2,3,5,flow/blocks/GlobalTheta_NoVideo_B.csv,,,,,,,,,0,3,3,3,0,18,18,17,,,,,,,,,-0.40694444444444444,0.2962962962962963,1,0,0,5.281083500012755,call1,0.044444444444444446,0.30462962962962964,1,0,0,5.883146699983627,colour1,0.4263888888888889,0.10601851851851851,1,0,0,6.319230399996741,number2,False,True,True,40,5,2019_Nov_21_1002,MA_Theta_Exp,3.0.7,60.15830055638842,
video/Experiment/zh_sp01_Un_Ge_1_GlobalTheta_NoVideo.avi,globalTheta,noVideo,sp01,Un,Ge,1,3,5,flow/blocks/GlobalTheta_NoVideo_B.csv,,,,,,,,,0,3,3,3,0,19,19,0,,,,,,,,,-0.31666666666666665,-0.33564814814814814,1,0,0,5.079240099992603,call4,0.030555555555555555,0.33101851851851855,1,0,0,5.610107199987397,colour1,0.3861111111111111,0.3199074074074074,1,0,0,5.949246400006814,number1,True,True,True,40,5,2019_Nov_21_1002,MA_Theta_Exp,3.0.7,60.15830055638842,
video/Experiment/zh_sp07_Ti_We_2_GlobalTheta_NoVideo.avi,globalTheta,noVideo,sp07,Ti,We,2,3,5,flow/blocks/GlobalTheta_NoVideo_B.csv,,,,,,,,,0,3,3,3,0,20,20,29,,,,,,,,,-0.3763888888888889,-0.11203703703703703,1,0,0,4.820761599985417,call3,0.034722222222222224,0.0962962962962963,1,0,0,5.531278499984182,colour2,0.40555555555555556,0.10324074074074074,1,0,0,5.896503199997824,number2,True,False,True,40,5,2019_Nov_21_1002,MA_Theta_Exp,3.0.7,60.15830055638842,
video/Experiment/zh_sp01_Ad_Ge_4_GlobalTheta_NoVideo.avi,globalTheta,noVideo,sp01,Ad,Ge,4,3,5,flow/blocks/GlobalTheta_NoVideo_B.csv,,,,,,,,,0,3,3,3,0,21,21,3,,,,,,,,,-0.3972222222222222,-0.1439814814814815,1,0,0,5.615779100015061,call3,-0.001388888888888889,0.05740740740740741,1,0,0,5.945560100022703,colour2,0.39305555555555555,-0.11898148148148148,1,0,0,6.365083699987736,number3,False,False,False,40,5,2019_Nov_21_1002,MA_Theta_Exp,3.0.7,60.15830055638842,
video/Experiment/zh_sp01_Ad_Ro_3_GlobalTheta_NoVideo.avi,globalTheta,noVideo,sp01,Ad,Ro,3,3,5,flow/blocks/GlobalTheta_NoVideo_B.csv,,,,,,,,,0,3,3,3,0,22,22,10,,,,,,,,,-0.4263888888888889,0.2712962962962963,1,0,0,5.048579900001641,call1,-0.043055555555555555,0.10046296296296296,1,0,0,5.481930399982957,colour2,0.35138888888888886,-0.12731481481481483,1,0,0,5.949199900001986,number3,True,False,True,40,5,2019_Nov_21_1002,MA_Theta_Exp,3.0.7,60.15830055638842,
video/Experiment/zh_sp01_Dr_We_1_GlobalTheta_NoVideo.avi,globalTheta,noVideo,sp01,Dr,We,1,3,5,flow/blocks/GlobalTheta_NoVideo_B.csv,,,,,,,,,0,3,3,3,0,23,23,28,,,,,,,,,-0.42777777777777776,0.26157407407407407,1,0,0,5.242491599987261,call1,0.03194444444444444,-0.29814814814814816,1,0,0,6.311998899996979,colour4,0.4027777777777778,0.29907407407407405,1,0,0,7.041892500012182,number1,False,True,True,40,5,2019_Nov_21_1002,MA_Theta_Exp,3.0.7,60.15830055638842,
video/Experiment/zh_sp07_Un_Gr_2_GlobalTheta_NoVideo.avi,globalTheta,noVideo,sp07,Un,Gr,2,3,5,flow/blocks/GlobalTheta_NoVideo_B.csv,,,,,,,,,0,3,3,3,0,24,24,5,,,,,,,,,-0.4,-0.337037037037037,1,0,0,4.704697000008309,call4,0.030555555555555555,0.09907407407407408,1,0,0,5.583923199999845,colour2,0.4305555555555556,0.07685185185185185,1,0,0,5.891869199986104,number2,True,True,True,40,5,2019_Nov_21_1002,MA_Theta_Exp,3.0.7,60.15830055638842,
video/Experiment/zh_sp07_Dr_We_3_GlobalTheta_NoVideo.avi,globalTheta,noVideo,sp07,Dr,We,3,3,5,flow/blocks/GlobalTheta_NoVideo_B.csv,,,,,,,,,0,3,3,3,0,25,25,14,,,,,,,,,-0.4152777777777778,0.03657407407407407,1,0,0,5.172035499999765,call2,-0.3597222222222222,-0.32592592592592595,1,0,0,6.027446699998109,colour4,0.4097222222222222,-0.13564814814814816,1,0,0,8.907036099990364,number3,True,True,True,40,5,2019_Nov_21_1002,MA_Theta_Exp,3.0.7,60.15830055638842,
video/Experiment/zh_sp07_Dr_We_4_GlobalTheta_NoVideo.avi,globalTheta,noVideo,sp07,Dr,We,4,3,5,flow/blocks/GlobalTheta_NoVideo_B.csv,,,,,,,,,0,3,3,3,0,26,26,15,,,,,,,,,-0.3736111111111111,0.31157407407407406,1,0,0,4.675016299996059,call1,-0.018055555555555554,-0.3189814814814815,1,0,0,5.26128800000879,colour4,0.4,-0.09953703703703703,1,0,0,6.062412300001597,number3,False,True,False,40,5,2019_Nov_21_1002,MA_Theta_Exp,3.0.7,60.15830055638842,
video/Experiment/zh_sp07_Ad_Ro_2_GlobalTheta_NoVideo.avi,globalTheta,noVideo,sp07,Ad,Ro,2,3,5,flow/blocks/GlobalTheta_NoVideo_B.csv,,,,,,,,,0,3,3,3,0,27,27,25,,,,,,,,,-0.34305555555555556,0.30462962962962964,1,0,0,4.826287999982014,call1,0.002777777777777778,-0.28425925925925927,1,0,0,5.91426719998708,colour4,0.45694444444444443,0.03796296296296296,1,0,0,6.378997899999376,number2,True,False,True,40,5,2019_Nov_21_1002,MA_Theta_Exp,3.0.7,60.15830055638842,
video/Experiment/zh_sp07_Ad_Ge_2_GlobalTheta_NoVideo.avi,globalTheta,noVideo,sp07,Ad,Ge,2,3,5,flow/blocks/GlobalTheta_NoVideo_B.csv,,,,,,,,,0,3,3,3,0,28,28,1,,,,,,,,,-0.3638888888888889,0.2962962962962963,1,0,0,4.7490113999811,call1,-0.02361111111111111,-0.32175925925925924,1,0,0,5.780844099994283,colour4,0.44166666666666665,0.10185185185185185,1,0,0,6.212918200006243,number2,True,False,True,40,5,2019_Nov_21_1002,MA_Theta_Exp,3.0.7,60.15830055638842,
video/Experiment/zh_sp01_Un_We_2_GlobalTheta_NoVideo.avi,globalTheta,noVideo,sp01,Un,We,2,3,5,flow/blocks/GlobalTheta_NoVideo_B.csv,,,,,,,,,0,3,3,3,0,29,29,13,,,,,,,,,-0.3819444444444444,0.2671296296296296,1,0,0,6.006491600011941,call1,-0.044444444444444446,-0.3675925925925926,1,0,0,6.642483700008597,colour4,0.3888888888888889,0.06018518518518518,1,0,0,7.0580621999979485,number2,False,True,True,40,5,2019_Nov_21_1002,MA_Theta_Exp,3.0.7,60.15830055638842,
video/Experiment/zh_sp07_Ti_Ro_4_GlobalTheta_NoVideo.avi,globalTheta,noVideo,sp07,Ti,Ro,4,3,5,flow/blocks/GlobalTheta_NoVideo_B.csv,,,,,,,,,0,3,3,3,0,30,30,11,,,,,,,,,-0.4638888888888889,-0.3398148148148148,1,0,0,6.932784799981164,call4,0.044444444444444446,-0.337037037037037,1,0,0,7.416046099999221,colour4,0.4097222222222222,-0.12731481481481483,1,0,0,7.964516800013371,number3,False,False,False,40,5,2019_Nov_21_1002,MA_Theta_Exp,3.0.7,60.15830055638842,
video/Experiment/zh_sp07_Dr_Ro_3_GlobalTheta_NoVideo.avi,globalTheta,noVideo,sp07,Dr,Ro,3,3,5,flow/blocks/GlobalTheta_NoVideo_B.csv,,,,,,,,,0,3,3,3,0,31,31,26,,,,,,,,,-0.37083333333333335,0.3337962962962963,1,0,0,4.7643994000100065,call1,0.0,-0.05787037037037037,1,0,0,6.648657600017032,colour3,0.4361111111111111,-0.1439814814814815,1,0,0,7.182750899984967,number3,False,True,True,40,5,2019_Nov_21_1002,MA_Theta_Exp,3.0.7,60.15830055638842,
video/Experiment/zh_sp07_Ti_Ge_1_NVocInAudio_GlobalThetaInVideo.avi,vocoded,plusVideo,sp07,Ti,Ge,1,4,1,flow/blocks/NVocInAudio_GlobalThetaInVideo_A.csv,,,,,,,,,0,4,4,4,0,0,0,16,,,,,,,,,-0.40555555555555556,-0.09259259259259259,1,0,0,4.78481300000567,call3,0.05694444444444444,0.3087962962962963,1,0,0,5.316616299998714,colour1,0.4013888888888889,0.27685185185185185,1,0,0,5.628508300025715,number1,True,True,True,40,5,2019_Nov_21_1002,MA_Theta_Exp,3.0.7,60.15830055638842,
video/Experiment/zh_sp01_Ti_Ro_3_NVocInAudio_GlobalThetaInVideo.avi,vocoded,plusVideo,sp01,Ti,Ro,3,4,1,flow/blocks/NVocInAudio_GlobalThetaInVideo_A.csv,,,,,,,,,0,4,4,4,0,1,1,10,,,,,,,,,-0.3680555555555556,-0.06759259259259259,1,0,0,4.856355700001586,call3,0.03194444444444444,-0.10231481481481482,1,0,0,5.423125100001926,colour3,0.40694444444444444,-0.08842592592592592,1,0,0,5.758572800026741,number3,True,True,True,40,5,2019_Nov_21_1002,MA_Theta_Exp,3.0.7,60.15830055638842,
video/Experiment/zh_sp07_Un_Ge_2_NVocInAudio_GlobalThetaInVideo.avi,vocoded,plusVideo,sp07,Un,Ge,2,4,1,flow/blocks/NVocInAudio_GlobalThetaInVideo_A.csv,,,,,,,,,0,4,4,4,0,2,2,17,,,,,,,,,-0.2847222222222222,-0.3106481481481482,1,0,0,4.240484500012826,call4,0.04583333333333333,0.3101851851851852,1,0,0,5.255550399975618,colour1,0.5,0.10185185185185185,1,0,0,5.737586700008251,number2,True,True,True,40,5,2019_Nov_21_1002,MA_Theta_Exp,3.0.7,60.15830055638842,
video/Experiment/zh_sp07_Ti_Ge_4_NVocInAudio_GlobalThetaInVideo.avi,vocoded,plusVideo,sp07,Ti,Ge,4,4,1,flow/blocks/NVocInAudio_GlobalThetaInVideo_A.csv,,,,,,,,,0,4,4,4,0,3,3,3,,,,,,,,,-0.4236111111111111,-0.09953703703703703,1,0,0,4.773215300025186,call3,0.011111111111111112,0.32407407407407407,1,0,0,5.656909499986796,colour1,0.35833333333333334,-0.37592592592592594,1,0,0,6.497449099988444,number4,True,True,True,40,5,2019_Nov_21_1002,MA_Theta_Exp,3.0.7,60.15830055638842,
video/Experiment/zh_sp07_Dr_Ge_4_NVocInAudio_GlobalThetaInVideo.avi,vocoded,plusVideo,sp07,Dr,Ge,4,4,1,flow/blocks/NVocInAudio_GlobalThetaInVideo_A.csv,,,,,,,,,0,4,4,4,0,4,4,19,,,,,,,,,-0.42083333333333334,0.10046296296296296,1,0,0,4.785148299997672,call2,0.002777777777777778,0.2851851851851852,1,0,0,5.705390199989779,colour1,0.3875,-0.3425925925925926,1,0,0,6.4038413999951445,number4,True,True,True,40,5,2019_Nov_21_1002,MA_Theta_Exp,3.0.7,60.15830055638842,
video/Experiment/zh_sp07_Dr_Gr_2_NVocInAudio_GlobalThetaInVideo.avi,vocoded,plusVideo,sp07,Dr,Gr,2,4,1,flow/blocks/NVocInAudio_GlobalThetaInVideo_A.csv,,,,,,,,,0,4,4,4,0,5,5,5,,,,,,,,,-0.4625,0.09907407407407408,1,0,0,4.493917600018904,call2,-0.018055555555555554,0.10324074074074074,1,0,0,4.8459508000232745,colour2,0.3888888888888889,0.10324074074074074,1,0,0,5.153698100009933,number2,True,True,True,40,5,2019_Nov_21_1002,MA_Theta_Exp,3.0.7,60.15830055638842,
video/Experiment/zh_sp01_Ad_Gr_2_NVocInAudio_GlobalThetaInVideo.avi,vocoded,plusVideo,sp01,Ad,Gr,2,4,1,flow/blocks/NVocInAudio_GlobalThetaInVideo_A.csv,,,,,,,,,0,4,4,4,0,6,6,21,,,,,,,,,-0.3972222222222222,-0.13287037037037036,1,0,0,5.404132800002117,call3,0.022222222222222223,0.033796296296296297,1,0,0,5.84257360000629,colour2,0.4583333333333333,0.07824074074074074,1,0,0,6.320562400011113,number2,False,True,True,40,5,2019_Nov_21_1002,MA_Theta_Exp,3.0.7,60.15830055638842,
video/Experiment/zh_sp01_Un_Ro_3_NVocInAudio_GlobalThetaInVideo.avi,vocoded,plusVideo,sp01,Un,Ro,3,4,1,flow/blocks/NVocInAudio_GlobalThetaInVideo_A.csv,,,,,,,,,0,4,4,4,0,7,7,26,,,,,,,,,-0.3611111111111111,-0.3384259259259259,1,0,0,5.3115600000019185,call4,0.022222222222222223,-0.14675925925925926,1,0,0,5.777344100002665,colour3,0.4111111111111111,-0.13287037037037036,1,0,0,6.144641299993964,number3,True,True,True,40,5,2019_Nov_21_1002,MA_Theta_Exp,3.0.7,60.15830055638842,
video/Experiment/zh_sp07_Ad_Ro_4_NVocInAudio_GlobalThetaInVideo.avi,vocoded,plusVideo,sp07,Ad,Ro,4,4,1,flow/blocks/NVocInAudio_GlobalThetaInVideo_A.csv,,,,,,,,,0,4,4,4,0,8,8,11,,,,,,,,,-0.43472222222222223,0.27685185185185185,1,0,0,4.6445349999994505,call1,0.016666666666666666,-0.08287037037037037,1,0,0,5.61403940001037,colour3,0.41805555555555557,-0.337037037037037,1,0,0,6.11240449998877,number4,True,True,True,40,5,2019_Nov_21_1002,MA_Theta_Exp,3.0.7,60.15830055638842,
video/Experiment/zh_sp07_Ad_Gr_1_NVocInAudio_GlobalThetaInVideo.avi,vocoded,plusVideo,sp07,Ad,Gr,1,4,1,flow/blocks/NVocInAudio_GlobalThetaInVideo_A.csv,,,,,,,,,0,4,4,4,0,9,9,4,,,,,,,,,-0.4263888888888889,0.3296296296296296,1,0,0,4.604987300001085,call1,-0.07222222222222222,0.07268518518518519,1,0,0,5.006703499995638,colour2,0.4736111111111111,0.28935185185185186,1,0,0,5.457162000006065,number1,True,True,True,40,5,2019_Nov_21_1002,MA_Theta_Exp,3.0.7,60.15830055638842,
video/Experiment/zh_sp01_Ti_Ge_2_NVocInAudio_GlobalThetaInVideo.avi,vocoded,plusVideo,sp01,Ti,Ge,2,4,1,flow/blocks/NVocInAudio_GlobalThetaInVideo_A.csv,,,,,,,,,0,4,4,4,0,10,10,1,,,,,,,,,-0.3458333333333333,-0.11898148148148148,1,0,0,5.168819300015457,call3,0.08194444444444444,0.28379629629629627,1,0,0,5.923166399996262,colour1,0.36944444444444446,0.09351851851851851,1,0,0,6.2814175999956205,number2,True,True,True,40,5,2019_Nov_21_1002,MA_Theta_Exp,3.0.7,60.15830055638842,
video/Experiment/zh_sp07_Un_Ge_3_NVocInAudio_GlobalThetaInVideo.avi,vocoded,plusVideo,sp07,Un,Ge,3,4,1,flow/blocks/NVocInAudio_GlobalThetaInVideo_A.csv,,,,,,,,,0,4,4,4,0,11,11,2,,,,,,,,,-0.4222222222222222,-0.3287037037037037,1,0,0,4.473474600003101,call4,-0.016666666666666666,0.2810185185185185,1,0,0,5.114784100005636,colour1,0.4027777777777778,-0.07592592592592592,1,0,0,5.777470800006995,number3,True,True,True,40,5,2019_Nov_21_1002,MA_Theta_Exp,3.0.7,60.15830055638842,
video/Experiment/zh_sp01_Dr_Ro_2_NVocInAudio_GlobalThetaInVideo.avi,vocoded,plusVideo,sp01,Dr,Ro,2,4,1,flow/blocks/NVocInAudio_GlobalThetaInVideo_A.csv,,,,,,,,,0,4,4,4,0,12,12,9,,,,,,,,,-0.39166666666666666,0.05185185185185185,1,0,0,5.411042199993972,call2,0.04722222222222222,0.26851851851851855,1,0,0,6.248719399998663,colour1,0.4,0.040740740740740744,1,0,0,6.6325465999834705,number2,True,False,True,40,5,2019_Nov_21_1002,MA_Theta_Exp,3.0.7,60.15830055638842,
video/Experiment/zh_sp01_Un_We_4_NVocInAudio_GlobalThetaInVideo.avi,vocoded,plusVideo,sp01,Un,We,4,4,1,flow/blocks/NVocInAudio_GlobalThetaInVideo_A.csv,,,,,,,,,0,4,4,4,0,13,13,15,,,,,,,,,-0.38333333333333336,-0.3189814814814815,1,0,0,5.172706499986816,call4,0.016666666666666666,-0.3453703703703704,1,0,0,6.084889799996745,colour4,0.4027777777777778,-0.3662037037037037,1,0,0,6.405362400022568,number4,True,True,True,40,5,2019_Nov_21_1002,MA_Theta_Exp,3.0.7,60.15830055638842,
video/Experiment/zh_sp07_Dr_Gr_4_NVocInAudio_GlobalThetaInVideo.avi,vocoded,plusVideo,sp07,Dr,Gr,4,4,1,flow/blocks/NVocInAudio_GlobalThetaInVideo_A.csv,,,,,,,,,0,4,4,4,0,14,14,23,,,,,,,,,-0.3819444444444444,0.1087962962962963,1,0,0,4.616080400010105,call2,0.08333333333333333,0.08101851851851852,1,0,0,5.28311190000386,colour2,0.4513888888888889,-0.3287037037037037,1,0,0,5.961163200001465,number4,True,True,True,40,5,2019_Nov_21_1002,MA_Theta_Exp,3.0.7,60.15830055638842,
video/Experiment/zh_sp01_Un_Ro_1_NVocInAudio_GlobalThetaInVideo.avi,vocoded,plusVideo,sp01,Un,Ro,1,4,1,flow/blocks/NVocInAudio_GlobalThetaInVideo_A.csv,,,,,,,,,0,4,4,4,0,15,15,24,,,,,,,,,-0.3819444444444444,-0.37453703703703706,1,0,0,5.317924500006484,call4,0.02638888888888889,-0.13703703703703704,1,0,0,7.1345139000040945,colour3,0.3958333333333333,0.2601851851851852,1,0,0,7.595398600009503,number1,True,True,True,40,5,2019_Nov_21_1002,MA_Theta_Exp,3.0.7,60.15830055638842,
video/Experiment/zh_sp01_Ti_Gr_4_NVocInAudio_GlobalThetaInVideo.avi,vocoded,plusVideo,sp01,Ti,Gr,4,4,1,flow/blocks/NVocInAudio_GlobalThetaInVideo_A.csv,,,,,,,,,0,4,4,4,0,16,16,7,,,,,,,,,-0.3736111111111111,-0.12731481481481483,1,0,0,5.184776099980809,call3,-0.04722222222222222,0.06018518518518518,1,0,0,5.545981700008269,colour2,0.43333333333333335,-0.29259259259259257,1,0,0,5.927510500012431,number4,True,True,True,40,5,2019_Nov_21_1002,MA_Theta_Exp,3.0.7,60.15830055638842,
video/Experiment/zh_sp01_Ti_Ro_2_NVocInAudio_GlobalThetaInVideo.avi,vocoded,plusVideo,sp01,Ti,Ro,2,4,1,flow/blocks/NVocInAudio_GlobalThetaInVideo_A.csv,,,,,,,,,0,4,4,4,0,17,17,25,,,,,,,,,-0.4166666666666667,-0.10231481481481482,1,0,0,5.262729600013699,call3,-0.04861111111111111,-0.11481481481481481,1,0,0,5.5845152999972925,colour3,0.4083333333333333,0.09074074074074075,1,0,0,5.949733899993589,number2,True,True,True,40,5,2019_Nov_21_1002,MA_Theta_Exp,3.0.7,60.15830055638842,
video/Experiment/zh_sp01_Un_We_3_NVocInAudio_GlobalThetaInVideo.avi,vocoded,plusVideo,sp01,Un,We,3,4,1,flow/blocks/NVocInAudio_GlobalThetaInVideo_A.csv,,,,,,,,,0,4,4,4,0,18,18,14,,,,,,,,,-0.39166666666666666,-0.3800925925925926,1,0,0,4.945828700001584,call4,0.002777777777777778,-0.3800925925925926,1,0,0,5.2929196000040974,colour4,0.4888888888888889,-0.16064814814814815,1,0,0,5.691773899976397,number3,True,True,True,40,5,2019_Nov_21_1002,MA_Theta_Exp,3.0.7,60.15830055638842,
video/Experiment/zh_sp07_Dr_Gr_3_NVocInAudio_GlobalThetaInVideo.avi,vocoded,plusVideo,sp07,Dr,Gr,3,4,1,flow/blocks/NVocInAudio_GlobalThetaInVideo_A.csv,,,,,,,,,0,4,4,4,0,19,19,6,,,,,,,,,-0.5208333333333334,0.08657407407407407,1,0,0,4.759930999978678,call2,-0.04027777777777778,0.08101851851851852,1,0,0,5.376163999986602,colour2,0.44583333333333336,-0.1439814814814815,1,0,0,5.775985800020862,number3,True,True,True,40,5,2019_Nov_21_1002,MA_Theta_Exp,3.0.7,60.15830055638842,
video/Experiment/zh_sp07_Dr_Ge_1_NVocInAudio_GlobalThetaInVideo.avi,vocoded,plusVideo,sp07,Dr,Ge,1,4,1,flow/blocks/NVocInAudio_GlobalThetaInVideo_A.csv,,,,,,,,,0,4,4,4,0,20,20,0,,,,,,,,,-0.3972222222222222,0.09907407407407408,1,0,0,4.31344940001145,call2,0.03194444444444444,0.3143518518518518,1,0,0,4.713964199996553,colour1,0.3958333333333333,0.30462962962962964,1,0,0,5.05115559999831,number1,True,True,True,40,5,2019_Nov_21_1002,MA_Theta_Exp,3.0.7,60.15830055638842,
video/Experiment/zh_sp07_Ti_We_4_NVocInAudio_GlobalThetaInVideo.avi,vocoded,plusVideo,sp07,Ti,We,4,4,1,flow/blocks/NVocInAudio_GlobalThetaInVideo_A.csv,,,,,,,,,0,4,4,4,0,21,21,31,,,,,,,,,-0.36527777777777776,-0.15648148148148147,1,0,0,4.803319600003306,call3,0.04861111111111111,-0.337037037037037,1,0,0,5.319078800006537,colour4,0.3902777777777778,-0.324537037037037,1,0,0,5.650950000010198,number4,True,True,True,40,5,2019_Nov_21_1002,MA_Theta_Exp,3.0.7,60.15830055638842,
video/Experiment/zh_sp01_Ad_Ro_1_NVocInAudio_GlobalThetaInVideo.avi,vocoded,plusVideo,sp01,Ad,Ro,1,4,1,flow/blocks/NVocInAudio_GlobalThetaInVideo_A.csv,,,,,,,,,0,4,4,4,0,22,22,8,,,,,,,,,-0.3541666666666667,-0.15925925925925927,1,0,0,5.417429599998286,call3,-0.005555555555555556,-0.1439814814814815,1,0,0,5.7533769000147,colour3,0.41388888888888886,0.32546296296296295,1,0,0,6.2318808999843895,number1,False,True,True,40,5,2019_Nov_21_1002,MA_Theta_Exp,3.0.7,60.15830055638842,
video/Experiment/zh_sp07_Ad_We_2_NVocInAudio_GlobalThetaInVideo.avi,vocoded,plusVideo,sp07,Ad,We,2,4,1,flow/blocks/NVocInAudio_GlobalThetaInVideo_A.csv,,,,,,,,,0,4,4,4,0,23,23,29,,,,,,,,,-0.3819444444444444,0.29907407407407405,1,0,0,4.884439900022699,call1,-0.011111111111111112,-0.27314814814814814,1,0,0,5.56779849997838,colour4,0.39166666666666666,0.056018518518518516,1,0,0,5.970798900001682,number2,True,True,True,40,5,2019_Nov_21_1002,MA_Theta_Exp,3.0.7,60.15830055638842,
video/Experiment/zh_sp01_Un_Gr_1_NVocInAudio_GlobalThetaInVideo.avi,vocoded,plusVideo,sp01,Un,Gr,1,4,1,flow/blocks/NVocInAudio_GlobalThetaInVideo_A.csv,,,,,,,,,0,4,4,4,0,24,24,20,,,,,,,,,-0.39305555555555555,-0.2814814814814815,1,0,0,5.136229499999899,call4,0.034722222222222224,0.0837962962962963,1,0,0,5.601149299996905,colour2,0.4513888888888889,0.3226851851851852,1,0,0,6.069531099987216,number1,True,True,True,40,5,2019_Nov_21_1002,MA_Theta_Exp,3.0.7,60.15830055638842,
video/Experiment/zh_sp01_Dr_We_2_NVocInAudio_GlobalThetaInVideo.avi,vocoded,plusVideo,sp01,Dr,We,2,4,1,flow/blocks/NVocInAudio_GlobalThetaInVideo_A.csv,,,,,,,,,0,4,4,4,0,25,25,13,,,,,,,,,-0.35555555555555557,0.10740740740740741,1,0,0,5.122656799998367,call2,0.020833333333333332,-0.27314814814814814,1,0,0,5.607879499992123,colour4,0.44166666666666665,0.11435185185185186,1,0,0,6.076602200017078,number2,True,True,True,40,5,2019_Nov_21_1002,MA_Theta_Exp,3.0.7,60.15830055638842,
video/Experiment/zh_sp07_Un_We_1_NVocInAudio_GlobalThetaInVideo.avi,vocoded,plusVideo,sp07,Un,We,1,4,1,flow/blocks/NVocInAudio_GlobalThetaInVideo_A.csv,,,,,,,,,0,4,4,4,0,26,26,28,,,,,,,,,-0.4,-0.324537037037037,1,0,0,4.531087299983483,call4,-0.03611111111111111,-0.32314814814814813,1,0,0,5.094951700011734,colour4,0.4708333333333333,0.32546296296296295,1,0,0,5.734605900011957,number1,True,True,True,40,5,2019_Nov_21_1002,MA_Theta_Exp,3.0.7,60.15830055638842,
video/Experiment/zh_sp07_Ti_Ge_3_NVocInAudio_GlobalThetaInVideo.avi,vocoded,plusVideo,sp07,Ti,Ge,3,4,1,flow/blocks/NVocInAudio_GlobalThetaInVideo_A.csv,,,,,,,,,0,4,4,4,0,27,27,18,,,,,,,,,-0.41805555555555557,-0.12731481481481483,1,0,0,4.83710879998398,call3,-0.06111111111111111,0.07824074074074074,1,0,0,6.350634499976877,colour2,0.42083333333333334,-0.12731481481481483,1,0,0,6.7696809000044595,number3,True,False,True,40,5,2019_Nov_21_1002,MA_Theta_Exp,3.0.7,60.15830055638842,
video/Experiment/zh_sp07_Dr_Ro_4_NVocInAudio_GlobalThetaInVideo.avi,vocoded,plusVideo,sp07,Dr,Ro,4,4,1,flow/blocks/NVocInAudio_GlobalThetaInVideo_A.csv,,,,,,,,,0,4,4,4,0,28,28,27,,,,,,,,,-0.3680555555555556,0.09768518518518518,1,0,0,4.453690800000913,call2,0.04027777777777778,-0.09953703703703703,1,0,0,4.833972499996889,colour3,0.3861111111111111,-0.29814814814814816,1,0,0,5.2179471000272315,number4,True,True,True,40,5,2019_Nov_21_1002,MA_Theta_Exp,3.0.7,60.15830055638842,
video/Experiment/zh_sp01_Ad_Gr_3_NVocInAudio_GlobalThetaInVideo.avi,vocoded,plusVideo,sp01,Ad,Gr,3,4,1,flow/blocks/NVocInAudio_GlobalThetaInVideo_A.csv,,,,,,,,,0,4,4,4,0,29,29,22,,,,,,,,,-0.32083333333333336,0.24351851851851852,1,0,0,5.274143599992385,call1,-0.03888888888888889,0.0962962962962963,1,0,0,5.591473400010727,colour2,0.42777777777777776,-0.12314814814814815,1,0,0,6.120267200021772,number3,True,True,True,40,5,2019_Nov_21_1002,MA_Theta_Exp,3.0.7,60.15830055638842,
video/Experiment/zh_sp01_Ad_We_3_NVocInAudio_GlobalThetaInVideo.avi,vocoded,plusVideo,sp01,Ad,We,3,4,1,flow/blocks/NVocInAudio_GlobalThetaInVideo_A.csv,,,,,,,,,0,4,4,4,0,30,30,30,,,,,,,,,-0.4013888888888889,0.2824074074074074,1,0,0,4.9188616999890655,call1,0.002777777777777778,-0.42314814814814816,1,0,0,5.588447299989639,colour4,0.4722222222222222,-0.1398148148148148,1,0,0,6.221597399999155,number3,True,True,True,40,5,2019_Nov_21_1002,MA_Theta_Exp,3.0.7,60.15830055638842,
video/Experiment/zh_sp01_Ad_We_1_NVocInAudio_GlobalThetaInVideo.avi,vocoded,plusVideo,sp01,Ad,We,1,4,1,flow/blocks/NVocInAudio_GlobalThetaInVideo_A.csv,,,,,,,,,0,4,4,4,0,31,31,12,,,,,,,,,-0.4375,0.29768518518518516,1,0,0,4.98831029998837,call1,-0.0125,-0.3037037037037037,1,0,0,5.674403799988795,colour4,0.38055555555555554,0.1935185185185185,1,0,0,6.504307700000936,number2,True,True,False,40,5,2019_Nov_21_1002,MA_Theta_Exp,3.0.7,60.15830055638842,
video/Experiment/zh_sp07_Ad_Ro_2_NoThetaInAudio_NoVideo.avi,noTheta,noVideo,sp07,Ad,Ro,2,0,4,flow/blocks/NoThetaInAudio_NoVideo_B.csv,,,,,,,,,,,,,,,,,0,0,0,0,0,0,0,25,-0.4083333333333333,0.30324074074074076,1,0,0,4.532086999999592,call1,-0.03888888888888889,-0.08425925925925926,1,0,0,5.101314600004116,colour3,0.4722222222222222,0.0824074074074074,1,0,0,5.481688599975314,number2,True,True,True,40,5,2019_Nov_21_1002,MA_Theta_Exp,3.0.7,60.15830055638842,
video/Experiment/zh_sp01_Un_Gr_4_NoThetaInAudio_NoVideo.avi,noTheta,noVideo,sp01,Un,Gr,4,0,4,flow/blocks/NoThetaInAudio_NoVideo_B.csv,,,,,,,,,,,,,,,,,0,0,0,0,0,1,1,23,-0.45,-0.30277777777777776,1,0,0,4.8633998000004794,call4,-0.041666666666666664,0.08333333333333333,1,0,0,5.313473699992755,colour2,0.3819444444444444,-0.3277777777777778,1,0,0,5.73039680000511,number4,True,True,True,40,5,2019_Nov_21_1002,MA_Theta_Exp,3.0.7,60.15830055638842,
video/Experiment/zh_sp07_Ti_Ro_4_NoThetaInAudio_NoVideo.avi,noTheta,noVideo,sp07,Ti,Ro,4,0,4,flow/blocks/NoThetaInAudio_NoVideo_B.csv,,,,,,,,,,,,,,,,,0,0,0,0,0,2,2,11,-0.37222222222222223,-0.1375,1,0,0,5.515469600009965,call3,0.058333333333333334,-0.059722222222222225,1,0,0,6.434251099999528,colour3,0.4097222222222222,-0.31805555555555554,1,0,0,6.801649100001669,number4,True,True,True,40,5,2019_Nov_21_1002,MA_Theta_Exp,3.0.7,60.15830055638842,
video/Experiment/zh_sp07_Un_Ro_2_NoThetaInAudio_NoVideo.avi,noTheta,noVideo,sp07,Un,Ro,2,0,4,flow/blocks/NoThetaInAudio_NoVideo_B.csv,,,,,,,,,,,,,,,,,0,0,0,0,0,3,3,9,-0.3902777777777778,-0.33611111111111114,1,0,0,6.001391099998727,call4,0.020833333333333332,-0.18888888888888888,1,0,0,6.538496499997564,colour3,0.375,-0.34444444444444444,1,0,0,6.941232999990461,number4,True,True,False,40,5,2019_Nov_21_1002,MA_Theta_Exp,3.0.7,60.15830055638842,
video/Experiment/zh_sp01_Dr_Ro_1_NoThetaInAudio_NoVideo.avi,noTheta,noVideo,sp01,Dr,Ro,1,0,4,flow/blocks/NoThetaInAudio_NoVideo_B.csv,,,,,,,,,,,,,,,,,0,0,0,0,0,4,4,24,-0.4166666666666667,-0.3138888888888889,1,0,0,4.904108399990946,call4,0.008333333333333333,-0.10972222222222222,1,0,0,5.330328599986387,colour3,0.3875,0.3541666666666667,1,0,0,5.77803600000334,number1,False,True,True,40,5,2019_Nov_21_1002,MA_Theta_Exp,3.0.7,60.15830055638842,
video/Experiment/zh_sp01_Ti_Gr_3_NoThetaInAudio_NoVideo.avi,noTheta,noVideo,sp01,Ti,Gr,3,0,4,flow/blocks/NoThetaInAudio_NoVideo_B.csv,,,,,,,,,,,,,,,,,0,0,0,0,0,5,5,22,-0.41944444444444445,-0.15555555555555556,1,0,0,5.383201899996493,call3,0.03194444444444444,0.07361111111111111,1,0,0,5.876791499991668,colour2,0.4583333333333333,-0.1361111111111111,1,0,0,6.380211000010604,number3,True,True,True,40,5,2019_Nov_21_1002,MA_Theta_Exp,3.0.7,60.15830055638842,
video/Experiment/zh_sp01_Un_Gr_2_NoThetaInAudio_NoVideo.avi,noTheta,noVideo,sp01,Un,Gr,2,0,4,flow/blocks/NoThetaInAudio_NoVideo_B.csv,,,,,,,,,,,,,,,,,0,0,0,0,0,6,6,5,-0.3680555555555556,-0.29953703703703705,1,0,0,5.105077500018524,call4,0.044444444444444446,0.07962962962962963,1,0,0,5.548862499999814,colour2,0.44583333333333336,0.09768518518518518,1,0,0,5.8713149999966845,number2,True,True,True,40,5,2019_Nov_21_1002,MA_Theta_Exp,3.0.7,60.15830055638842,
video/Experiment/zh_sp01_Dr_We_1_NoThetaInAudio_NoVideo.avi,noTheta,noVideo,sp01,Dr,We,1,0,4,flow/blocks/NoThetaInAudio_NoVideo_B.csv,,,,,,,,,,,,,,,,,0,0,0,0,0,7,7,28,-0.3875,-0.337037037037037,1,0,0,5.095109999994747,call4,0.027777777777777776,-0.337037037037037,1,0,0,5.5120849999948405,colour4,0.37916666666666665,0.33240740740740743,1,0,0,6.061172499990789,number1,False,True,True,40,5,2019_Nov_21_1002,MA_Theta_Exp,3.0.7,60.15830055638842,
video/Experiment/zh_sp01_Dr_Ge_2_NoThetaInAudio_NoVideo.avi,noTheta,noVideo,sp01,Dr,Ge,2,0,4,flow/blocks/NoThetaInAudio_NoVideo_B.csv,,,,,,,,,,,,,,,,,0,0,0,0,0,8,8,17,-0.3736111111111111,-0.3189814814814815,1,0,0,4.970388299989281,call4,0.018055555555555554,0.26296296296296295,1,0,0,6.701156700000865,colour1,0.37222222222222223,0.06157407407407407,1,0,0,7.151019000011729,number2,False,True,True,40,5,2019_Nov_21_1002,MA_Theta_Exp,3.0.7,60.15830055638842,
video/Experiment/zh_sp01_Ad_Ge_3_NoThetaInAudio_NoVideo.avi,noTheta,noVideo,sp01,Ad,Ge,3,0,4,flow/blocks/NoThetaInAudio_NoVideo_B.csv,,,,,,,,,,,,,,,,,0,0,0,0,0,9,9,18,-0.41805555555555557,0.33240740740740743,1,0,0,4.990003499988234,call1,0.02638888888888889,0.28379629629629627,1,0,0,5.401741000008769,colour1,0.4125,-0.1398148148148148,1,0,0,6.4228439000144135,number3,True,True,True,40,5,2019_Nov_21_1002,MA_Theta_Exp,3.0.7,60.15830055638842,
video/Experiment/zh_sp07_Ti_We_3_NoThetaInAudio_NoVideo.avi,noTheta,noVideo,sp07,Ti,We,3,0,4,flow/blocks/NoThetaInAudio_NoVideo_B.csv,,,,,,,,,,,,,,,,,0,0,0,0,0,10,10,30,-0.3763888888888889,-0.09259259259259259,1,0,0,4.941455300024245,call3,-0.06388888888888888,-0.2759259259259259,1,0,0,5.39073890002328,colour4,0.39444444444444443,-0.10925925925925926,1,0,0,6.171817299997201,number3,True,True,True,40,5,2019_Nov_21_1002,MA_Theta_Exp,3.0.7,60.15830055638842,
video/Experiment/zh_sp01_Ad_Ge_2_NoThetaInAudio_NoVideo.avi,noTheta,noVideo,sp01,Ad,Ge,2,0,4,flow/blocks/NoThetaInAudio_NoVideo_B.csv,,,,,,,,,,,,,,,,,0,0,0,0,0,11,11,1,-0.3458333333333333,-0.17175925925925925,1,0,0,5.27049690001877,call3,0.075,0.3282407407407407,1,0,0,5.965990200027591,colour1,0.34305555555555556,0.047685185185185185,1,0,0,6.437430599995423,number2,False,True,True,40,5,2019_Nov_21_1002,MA_Theta_Exp,3.0.7,60.15830055638842,
video/Experiment/zh_sp07_Un_Ge_1_NoThetaInAudio_NoVideo.avi,noTheta,noVideo,sp07,Un,Ge,1,0,4,flow/blocks/NoThetaInAudio_NoVideo_B.csv,,,,,,,,,,,,,,,,,0,0,0,0,0,12,12,0,-0.3611111111111111,-0.32731481481481484,1,0,0,4.788224999996601,call4,0.004166666666666667,0.3143518518518518,1,0,0,5.651328499981901,colour1,0.38055555555555554,0.25324074074074077,1,0,0,6.079391600011149,number1,True,True,True,40,5,2019_Nov_21_1002,MA_Theta_Exp,3.0.7,60.15830055638842,
video/Experiment/zh_sp07_Un_Ro_4_NoThetaInAudio_NoVideo.avi,noTheta,noVideo,sp07,Un,Ro,4,0,4,flow/blocks/NoThetaInAudio_NoVideo_B.csv,,,,,,,,,,,,,,,,,0,0,0,0,0,13,13,27,-0.4097222222222222,-0.3162037037037037,1,0,0,4.526877299998887,call4,0.04027777777777778,-0.1439814814814815,1,0,0,4.942865000019083,colour3,0.5027777777777778,-0.32175925925925924,1,0,0,5.574675199983176,number4,True,True,True,40,5,2019_Nov_21_1002,MA_Theta_Exp,3.0.7,60.15830055638842,
video/Experiment/zh_sp01_Ti_Ro_1_NoThetaInAudio_NoVideo.avi,noTheta,noVideo,sp01,Ti,Ro,1,0,4,flow/blocks/NoThetaInAudio_NoVideo_B.csv,,,,,,,,,,,,,,,,,0,0,0,0,0,14,14,8,-0.33611111111111114,-0.11898148148148148,1,0,0,5.248210100020515,call3,-0.02638888888888889,-0.11898148148148148,1,0,0,5.52570320002269,colour3,0.4097222222222222,0.3768518518518518,1,0,0,6.139457899989793,number1,True,True,True,40,5,2019_Nov_21_1002,MA_Theta_Exp,3.0.7,60.15830055638842,
video/Experiment/zh_sp07_Ad_Ro_3_NoThetaInAudio_NoVideo.avi,noTheta,noVideo,sp07,Ad,Ro,3,0,4,flow/blocks/NoThetaInAudio_NoVideo_B.csv,,,,,,,,,,,,,,,,,0,0,0,0,0,15,15,10,-0.3763888888888889,-0.15092592592592594,1,0,0,5.017021100007696,call3,0.05555555555555555,-0.1300925925925926,1,0,0,5.582912599988049,colour3,0.4361111111111111,-0.12175925925925926,1,0,0,6.126140900014434,number3,False,True,True,40,5,2019_Nov_21_1002,MA_Theta_Exp,3.0.7,60.15830055638842,
video/Experiment/zh_sp07_Dr_We_3_NoThetaInAudio_NoVideo.avi,noTheta,noVideo,sp07,Dr,We,3,0,4,flow/blocks/NoThetaInAudio_NoVideo_B.csv,,,,,,,,,,,,,,,,,0,0,0,0,0,16,16,14,-0.42083333333333334,-0.09398148148148149,1,0,0,4.749001299991505,call3,0.0,-0.3314814814814815,1,0,0,5.6225589999812655,colour4,0.36666666666666664,-0.15092592592592594,1,0,0,5.986686299991561,number3,False,True,True,40,5,2019_Nov_21_1002,MA_Theta_Exp,3.0.7,60.15830055638842,
video/Experiment/zh_sp01_Dr_Gr_1_NoThetaInAudio_NoVideo.avi,noTheta,noVideo,sp01,Dr,Gr,1,0,4,flow/blocks/NoThetaInAudio_NoVideo_B.csv,,,,,,,,,,,,,,,,,0,0,0,0,0,17,17,20,-0.425,-0.07037037037037037,1,0,0,5.441705100005493,call3,0.005555555555555556,0.11018518518518519,1,0,0,5.859475800010841,colour2,0.4263888888888889,0.3435185185185185,1,0,0,6.379483500000788,number1,False,True,True,40,5,2019_Nov_21_1002,MA_Theta_Exp,3.0.7,60.15830055638842,
video/Experiment/zh_sp01_Un_Ge_4_NoThetaInAudio_NoVideo.avi,noTheta,noVideo,sp01,Un,Ge,4,0,4,flow/blocks/NoThetaInAudio_NoVideo_B.csv,,,,,,,,,,,,,,,,,0,0,0,0,0,18,18,19,-0.35833333333333334,-0.3425925925925926,1,0,0,5.390424200013513,call4,0.011111111111111112,0.2962962962962963,1,0,0,5.948290400003316,colour1,0.4777777777777778,-0.3300925925925926,1,0,0,6.575993700011168,number4,True,True,True,40,5,2019_Nov_21_1002,MA_Theta_Exp,3.0.7,60.15830055638842,
video/Experiment/zh_sp07_Dr_Ro_3_NoThetaInAudio_NoVideo.avi,noTheta,noVideo,sp07,Dr,Ro,3,0,4,flow/blocks/NoThetaInAudio_NoVideo_B.csv,,,,,,,,,,,,,,,,,0,0,0,0,0,19,19,26,-0.4041666666666667,0.08101851851851852,1,0,0,5.1804067000048235,call2,-0.015277777777777777,0.3060185185185185,1,0,0,6.8813491000037175,colour1,0.3597222222222222,-0.09398148148148149,1,0,0,7.6410889000108,number3,True,False,True,40,5,2019_Nov_21_1002,MA_Theta_Exp,3.0.7,60.15830055638842,
video/Experiment/zh_sp07_Un_Gr_3_NoThetaInAudio_NoVideo.avi,noTheta,noVideo,sp07,Un,Gr,3,0,4,flow/blocks/NoThetaInAudio_NoVideo_B.csv,,,,,,,,,,,,,,,,,0,0,0,0,0,20,20,6,-0.34444444444444444,-0.30648148148148147,1,0,0,4.354090600012569,call4,0.027777777777777776,0.08518518518518518,1,0,0,4.8027640000218526,colour2,0.37777777777777777,-0.12453703703703704,1,0,0,5.123648499982664,number3,True,True,True,40,5,2019_Nov_21_1002,MA_Theta_Exp,3.0.7,60.15830055638842,
video/Experiment/zh_sp01_Un_We_2_NoThetaInAudio_NoVideo.avi,noTheta,noVideo,sp01,Un,We,2,0,4,flow/blocks/NoThetaInAudio_NoVideo_B.csv,,,,,,,,,,,,,,,,,0,0,0,0,0,21,21,13,-0.38472222222222224,-0.3398148148148148,1,0,0,4.942346199997701,call4,0.05416666666666667,-0.3648148148148148,1,0,0,5.61130210000556,colour4,0.35694444444444445,0.13657407407407407,1,0,0,6.125563600013265,number2,True,True,True,40,5,2019_Nov_21_1002,MA_Theta_Exp,3.0.7,60.15830055638842,
video/Experiment/zh_sp07_Ti_We_2_NoThetaInAudio_NoVideo.avi,noTheta,noVideo,sp07,Ti,We,2,0,4,flow/blocks/NoThetaInAudio_NoVideo_B.csv,,,,,,,,,,,,,,,,,0,0,0,0,0,22,22,29,-0.3763888888888889,-0.08842592592592592,1,0,0,4.9290960999787785,call3,0.0125,-0.4064814814814815,1,0,0,5.391078499989817,colour4,0.39861111111111114,0.008796296296296297,1,0,0,6.160994600009872,number2,True,True,True,40,5,2019_Nov_21_1002,MA_Theta_Exp,3.0.7,60.15830055638842,
video/Experiment/zh_sp07_Ad_Ge_4_NoThetaInAudio_NoVideo.avi,noTheta,noVideo,sp07,Ad,Ge,4,0,4,flow/blocks/NoThetaInAudio_NoVideo_B.csv,,,,,,,,,,,,,,,,,0,0,0,0,0,23,23,3,-0.44722222222222224,-0.15787037037037038,1,0,0,4.9321223000006285,call3,-0.016666666666666666,0.2657407407407407,1,0,0,5.422732499981066,colour1,0.4,-0.32592592592592595,1,0,0,6.179382500005886,number4,False,True,True,40,5,2019_Nov_21_1002,MA_Theta_Exp,3.0.7,60.15830055638842,
video/Experiment/zh_sp01_Dr_Ge_3_NoThetaInAudio_NoVideo.avi,noTheta,noVideo,sp01,Dr,Ge,3,0,4,flow/blocks/NoThetaInAudio_NoVideo_B.csv,,,,,,,,,,,,,,,,,0,0,0,0,0,24,24,2,-0.41388888888888886,-0.274537037037037,1,0,0,5.936358899984043,call4,0.04583333333333333,0.3074074074074074,1,0,0,6.653088999999454,colour1,0.4097222222222222,-0.2898148148148148,1,0,0,7.236262499995064,number4,False,True,False,40,5,2019_Nov_21_1002,MA_Theta_Exp,3.0.7,60.15830055638842,
video/Experiment/zh_sp07_Dr_We_4_NoThetaInAudio_NoVideo.avi,noTheta,noVideo,sp07,Dr,We,4,0,4,flow/blocks/NoThetaInAudio_NoVideo_B.csv,,,,,,,,,,,,,,,,,0,0,0,0,0,25,25,15,-0.33611111111111114,0.27824074074074073,1,0,0,4.8369088000035845,call1,0.004166666666666667,-0.3037037037037037,1,0,0,5.627857899991795,colour4,0.44166666666666665,-0.36342592592592593,1,0,0,6.031123100023251,number4,False,True,True,40,5,2019_Nov_21_1002,MA_Theta_Exp,3.0.7,60.15830055638842,
video/Experiment/zh_sp07_Ad_Gr_4_NoThetaInAudio_NoVideo.avi,noTheta,noVideo,sp07,Ad,Gr,4,0,4,flow/blocks/NoThetaInAudio_NoVideo_B.csv,,,,,,,,,,,,,,,,,0,0,0,0,0,26,26,7,-0.41805555555555557,0.30185185185185187,1,0,0,4.342789999995148,call1,0.05138888888888889,0.07824074074074074,1,0,0,4.878948199999286,colour2,0.43472222222222223,-0.28425925925925927,1,0,0,5.330934400000842,number4,True,True,True,40,5,2019_Nov_21_1002,MA_Theta_Exp,3.0.7,60.15830055638842,
video/Experiment/zh_sp07_Ti_Gr_2_NoThetaInAudio_NoVideo.avi,noTheta,noVideo,sp07,Ti,Gr,2,0,4,flow/blocks/NoThetaInAudio_NoVideo_B.csv,,,,,,,,,,,,,,,,,0,0,0,0,0,27,27,21,-0.3902777777777778,-0.09398148148148149,1,0,0,4.781565100012813,call3,0.011111111111111112,0.08935185185185185,1,0,0,5.2331798000086565,colour2,0.35694444444444445,0.0699074074074074,1,0,0,5.564472099998966,number2,True,True,True,40,5,2019_Nov_21_1002,MA_Theta_Exp,3.0.7,60.15830055638842,
video/Experiment/zh_sp01_Ti_We_1_NoThetaInAudio_NoVideo.avi,noTheta,noVideo,sp01,Ti,We,1,0,4,flow/blocks/NoThetaInAudio_NoVideo_B.csv,,,,,,,,,,,,,,,,,0,0,0,0,0,28,28,12,-0.3680555555555556,-0.14537037037037037,1,0,0,5.119330899993656,call3,0.05138888888888889,-0.35509259259259257,1,0,0,5.617540899984306,colour4,0.36666666666666664,0.27546296296296297,1,0,0,6.603589000005741,number1,True,True,True,40,5,2019_Nov_21_1002,MA_Theta_Exp,3.0.7,60.15830055638842,
video/Experiment/zh_sp07_Ti_Gr_1_NoThetaInAudio_NoVideo.avi,noTheta,noVideo,sp07,Ti,Gr,1,0,4,flow/blocks/NoThetaInAudio_NoVideo_B.csv,,,,,,,,,,,,,,,,,0,0,0,0,0,29,29,4,-0.40555555555555556,-0.16064814814814815,1,0,0,4.929493799980264,call3,0.011111111111111112,0.08796296296296297,1,0,0,6.1471245999855455,colour2,0.45555555555555555,0.3101851851851852,1,0,0,6.600055799994152,number1,True,True,True,40,5,2019_Nov_21_1002,MA_Theta_Exp,3.0.7,60.15830055638842,
video/Experiment/zh_sp01_Ad_We_4_NoThetaInAudio_NoVideo.avi,noTheta,noVideo,sp01,Ad,We,4,0,4,flow/blocks/NoThetaInAudio_NoVideo_B.csv,,,,,,,,,,,,,,,,,0,0,0,0,0,30,30,31,-0.3597222222222222,-0.16064814814814815,1,0,0,6.256175199989229,call3,-0.008333333333333333,-0.262037037037037,1,0,0,8.133674199983943,colour4,0.4361111111111111,-0.3523148148148148,1,0,0,8.83914540000842,number4,False,True,True,40,5,2019_Nov_21_1002,MA_Theta_Exp,3.0.7,60.15830055638842,
video/Experiment/zh_sp01_Ad_Ge_1_NoThetaInAudio_NoVideo.avi,noTheta,noVideo,sp01,Ad,Ge,1,0,4,flow/blocks/NoThetaInAudio_NoVideo_B.csv,,,,,,,,,,,,,,,,,0,0,0,0,0,31,31,16,-0.3819444444444444,-0.14675925925925926,1,0,0,6.452616199996555,call3,0.07083333333333333,0.2657407407407407,1,0,0,7.563661000021966,colour1,0.4388888888888889,0.2935185185185185,1,0,0,7.9081569999980275,number1,False,True,True,40,5,2019_Nov_21_1002,MA_Theta_Exp,3.0.7,60.15830055638842,
video/Experiment/zh_sp01_Un_Ro_3_GlobalTheta_NoVideo.avi,globalTheta,noVideo,sp01,Un,Ro,3,1,5,flow/blocks/GlobalTheta_NoVideo_A.csv,,,,,,,,,,,,,,,,,0,1,1,1,0,0,0,26,-0.42916666666666664,-0.3314814814814815,1,0,0,5.376835300005041,call4,0.10833333333333334,-0.12314814814814815,1,0,0,6.121848500013584,colour3,0.40555555555555556,-0.12731481481481483,1,0,0,7.26438639999833,number3,True,True,True,40,5,2019_Nov_21_1002,MA_Theta_Exp,3.0.7,60.15830055638842,
video/Experiment/zh_sp07_Un_We_4_GlobalTheta_NoVideo.avi,globalTheta,noVideo,sp07,Un,We,4,1,5,flow/blocks/GlobalTheta_NoVideo_A.csv,,,,,,,,,,,,,,,,,0,1,1,1,0,1,1,15,-0.3472222222222222,-0.3439814814814815,1,0,0,4.223273200012045,call4,-0.029166666666666667,-0.33564814814814814,1,0,0,4.571093500009738,colour4,0.4097222222222222,-0.36064814814814816,1,0,0,4.907687899976736,number4,True,True,True,40,5,2019_Nov_21_1002,MA_Theta_Exp,3.0.7,60.15830055638842,
video/Experiment/zh_sp01_Ad_We_1_GlobalTheta_NoVideo.avi,globalTheta,noVideo,sp01,Ad,We,1,1,5,flow/blocks/GlobalTheta_NoVideo_A.csv,,,,,,,,,,,,,,,,,0,1,1,1,0,2,2,12,-0.3819444444444444,0.35185185185185186,1,0,0,4.880529500020202,call1,-0.03194444444444444,-0.23425925925925925,1,0,0,5.410689000011189,colour4,0.3902777777777778,0.2462962962962963,1,0,0,5.97470500000054,number1,True,True,True,40,5,2019_Nov_21_1002,MA_Theta_Exp,3.0.7,60.15830055638842,
video/Experiment/zh_sp07_Un_Ro_1_GlobalTheta_NoVideo.avi,globalTheta,noVideo,sp07,Un,Ro,1,1,5,flow/blocks/GlobalTheta_NoVideo_A.csv,,,,,,,,,,,,,,,,,0,1,1,1,0,3,3,24,-0.4236111111111111,-0.324537037037037,1,0,0,4.88386120001087,call4,0.022222222222222223,-0.37037037037037035,1,0,0,5.743419800011907,colour4,0.44583333333333336,0.31296296296296294,1,0,0,6.456879699981073,number1,True,False,True,40,5,2019_Nov_21_1002,MA_Theta_Exp,3.0.7,60.15830055638842,
video/Experiment/zh_sp01_Dr_We_2_GlobalTheta_NoVideo.avi,globalTheta,noVideo,sp01,Dr,We,2,1,5,flow/blocks/GlobalTheta_NoVideo_A.csv,,,,,,,,,,,,,,,,,0,1,1,1,0,4,4,13,-0.325,-0.33287037037037037,1,0,0,4.932494200009387,call4,0.05694444444444444,-0.34675925925925927,1,0,0,5.273822899995139,colour4,0.4513888888888889,0.16018518518518518,1,0,0,5.701209600025322,number2,False,True,True,40,5,2019_Nov_21_1002,MA_Theta_Exp,3.0.7,60.15830055638842,
video/Experiment/zh_sp01_Un_Ge_2_GlobalTheta_NoVideo.avi,globalTheta,noVideo,sp01,Un,Ge,2,1,5,flow/blocks/GlobalTheta_NoVideo_A.csv,,,,,,,,,,,,,,,,,0,1,1,1,0,5,5,17,-0.39305555555555555,-0.3425925925925926,1,0,0,4.991357599996263,call4,0.005555555555555556,0.26990740740740743,1,0,0,5.477508000010857,colour1,0.4222222222222222,0.047685185185185185,1,0,0,5.846787600021344,number2,True,True,True,40,5,2019_Nov_21_1002,MA_Theta_Exp,3.0.7,60.15830055638842,
video/Experiment/zh_sp01_Ti_Ro_3_GlobalTheta_NoVideo.avi,globalTheta,noVideo,sp01,Ti,Ro,3,1,5,flow/blocks/GlobalTheta_NoVideo_A.csv,,,,,,,,,,,,,,,,,0,1,1,1,0,6,6,10,-0.4152777777777778,-0.33425925925925926,1,0,0,4.7383196000009775,call4,0.029166666666666667,-0.15231481481481482,1,0,0,5.087867700000061,colour3,0.4388888888888889,-0.11064814814814815,1,0,0,5.424704700009897,number3,False,True,True,40,5,2019_Nov_21_1002,MA_Theta_Exp,3.0.7,60.15830055638842,
video/Experiment/zh_sp01_Ti_Ge_1_GlobalTheta_NoVideo.avi,globalTheta,noVideo,sp01,Ti,Ge,1,1,5,flow/blocks/GlobalTheta_NoVideo_A.csv,,,,,,,,,,,,,,,,,0,1,1,1,0,7,7,16,-0.4013888888888889,-0.10648148148148148,1,0,0,5.174001900013536,call3,0.02361111111111111,0.26990740740740743,1,0,0,5.571713700017426,colour1,0.3888888888888889,0.31157407407407406,1,0,0,5.893782500002999,number1,True,True,True,40,5,2019_Nov_21_1002,MA_Theta_Exp,3.0.7,60.15830055638842,
video/Experiment/zh_sp07_Ti_Ge_4_GlobalTheta_NoVideo.avi,globalTheta,noVideo,sp07,Ti,Ge,4,1,5,flow/blocks/GlobalTheta_NoVideo_A.csv,,,,,,,,,,,,,,,,,0,1,1,1,0,8,8,3,-0.4083333333333333,-0.09398148148148149,1,0,0,4.2669185000122525,call3,0.020833333333333332,0.2574074074074074,1,0,0,5.3363506000023335,colour1,0.38472222222222224,-0.3384259259259259,1,0,0,5.9023442000034265,number4,True,True,True,40,5,2019_Nov_21_1002,MA_Theta_Exp,3.0.7,60.15830055638842,
video/Experiment/zh_sp01_Ad_We_2_GlobalTheta_NoVideo.avi,globalTheta,noVideo,sp01,Ad,We,2,1,5,flow/blocks/GlobalTheta_NoVideo_A.csv,,,,,,,,,,,,,,,,,0,1,1,1,0,9,9,29,-0.40555555555555556,0.3125,1,0,0,5.122271900007036,call1,-0.06111111111111111,-0.23333333333333334,1,0,0,5.624771100003272,colour4,0.4388888888888889,0.09722222222222222,1,0,0,6.3939301000209525,number2,True,True,True,40,5,2019_Nov_21_1002,MA_Theta_Exp,3.0.7,60.15830055638842,
video/Experiment/zh_sp01_Ti_Ge_3_GlobalTheta_NoVideo.avi,globalTheta,noVideo,sp01,Ti,Ge,3,1,5,flow/blocks/GlobalTheta_NoVideo_A.csv,,,,,,,,,,,,,,,,,0,1,1,1,0,10,10,18,-0.3972222222222222,-0.12916666666666668,1,0,0,4.897740100015653,call3,-0.06666666666666667,0.275,1,0,0,5.2773551999998745,colour1,0.36527777777777776,-0.18611111111111112,1,0,0,5.765223399997922,number3,True,True,True,40,5,2019_Nov_21_1002,MA_Theta_Exp,3.0.7,60.15830055638842,
video/Experiment/zh_sp07_Ad_Gr_1_GlobalTheta_NoVideo.avi,globalTheta,noVideo,sp07,Ad,Gr,1,1,5,flow/blocks/GlobalTheta_NoVideo_A.csv,,,,,,,,,,,,,,,,,0,1,1,1,0,11,11,4,-0.36944444444444446,-0.11805555555555555,1,0,0,4.631272300001001,call3,0.008333333333333333,0.34305555555555556,1,0,0,5.268593599990709,colour1,0.42916666666666664,0.2916666666666667,1,0,0,5.904286500008311,number1,False,False,True,40,5,2019_Nov_21_1002,MA_Theta_Exp,3.0.7,60.15830055638842,
video/Experiment/zh_sp07_Un_Gr_1_GlobalTheta_NoVideo.avi,globalTheta,noVideo,sp07,Un,Gr,1,1,5,flow/blocks/GlobalTheta_NoVideo_A.csv,,,,,,,,,,,,,,,,,0,1,1,1,0,12,12,20,-0.3736111111111111,-0.11944444444444445,1,0,0,4.376768799993442,call3,-0.005555555555555556,0.1,1,0,0,4.760075900005177,colour2,0.4027777777777778,0.2875,1,0,0,5.097784299985506,number1,False,True,True,40,5,2019_Nov_21_1002,MA_Theta_Exp,3.0.7,60.15830055638842,
video/Experiment/zh_sp07_Ad_Gr_3_GlobalTheta_NoVideo.avi,globalTheta,noVideo,sp07,Ad,Gr,3,1,5,flow/blocks/GlobalTheta_NoVideo_A.csv,,,,,,,,,,,,,,,,,0,1,1,1,0,13,13,22,-0.4125,0.25972222222222224,1,0,0,6.522575500013772,call1,0.04583333333333333,0.09861111111111111,1,0,0,7.058096099994145,colour2,0.4097222222222222,-0.1388888888888889,1,0,0,7.490333900001133,number3,True,True,True,40,5,2019_Nov_21_1002,MA_Theta_Exp,3.0.7,60.15830055638842,
