videoFile,condition,video,speaker,callSign,colour,number,seq,id,block,exp.thisRepN,exp.thisTrialN,exp.thisN,exp.thisIndex,training.thisRepN,training.thisTrialN,training.thisN,training.thisIndex,firstHalf.thisRepN,firstHalf.thisTrialN,firstHalf.thisN,firstHalf.thisIndex,blocksA.thisRepN,blocksA.thisTrialN,blocksA.thisN,blocksA.thisIndex,secondHalf.thisRepN,secondHalf.thisTrialN,secondHalf.thisN,secondHalf.thisIndex,blocksB.thisRepN,blocksB.thisTrialN,blocksB.thisN,blocksB.thisIndex,mouseClickOnCall.x,mouseClickOnCall.y,mouseClickOnCall.leftButton,mouseClickOnCall.midButton,mouseClickOnCall.rightButton,mouseClickOnCall.time,mouseClickOnCall.clicked_name,mouseClickOnColour.x,mouseClickOnColour.y,mouseClickOnColour.leftButton,mouseClickOnColour.midButton,mouseClickOnColour.rightButton,mouseClickOnColour.time,mouseClickOnColour.clicked_name,mouseClickOnNumber.x,mouseClickOnNumber.y,mouseClickOnNumber.leftButton,mouseClickOnNumber.midButton,mouseClickOnNumber.rightButton,mouseClickOnNumber.time,mouseClickOnNumber.clicked_name,callSignCorrect,colourCorrect,numberCorrect,participant,order,date,expName,psychopyVersion,frameRate,
video/Training/zh_sp01_Ad_We_4_NVocInAudio_NoVideo.avi,vocoded,noVideo,sp01,Ad,We,4,,,,,,,,0,0,0,0,,,,,,,,,,,,,,,,,-0.4064814814814815,0.30277777777777776,1,0,0,5.781558899994707,call1,-0.001388888888888889,-0.3314814814814815,1,0,0,6.597765299986349,colour4,0.3912037037037037,-0.3458333333333333,1,0,0,7.2811808999977075,number4,True,True,True,43,3,2019_Nov_21_1405,MA_Theta_Exp,3.0.7,59.83466485591335,
video/Training/zh_sp07_Ad_Ge_3_NVocInAudio_NoVideo.avi,vocoded,noVideo,sp07,Ad,Ge,3,,,,,,,,0,1,1,1,,,,,,,,,,,,,,,,,-0.41712962962962963,0.30925925925925923,1,0,0,5.127975300012622,call1,-0.03287037037037037,0.2972222222222222,1,0,0,6.111361499992199,colour1,0.4111111111111111,-0.12175925925925926,1,0,0,6.947432000015397,number3,True,True,True,43,3,2019_Nov_21_1405,MA_Theta_Exp,3.0.7,59.83466485591335,
video/Training/zh_sp01_Dr_Ro_3_NVocInAudio_GlobalThetaInVideo.avi,vocoded,plusVideo,sp01,Dr,Ro,3,,,,,,,,0,2,2,2,,,,,,,,,,,,,,,,,-0.37962962962962965,0.1388888888888889,1,0,0,5.793495300022187,call2,-0.016666666666666666,-0.11018518518518519,1,0,0,6.462014000018826,colour3,0.4013888888888889,-0.13333333333333333,1,0,0,7.293318199983332,number3,True,True,True,43,3,2019_Nov_21_1405,MA_Theta_Exp,3.0.7,59.83466485591335,
video/Training/zh_sp07_Dr_Gr_4_NVocInAudio_GlobalThetaInVideo.avi,vocoded,plusVideo,sp07,Dr,Gr,4,,,,,,,,0,3,3,3,,,,,,,,,,,,,,,,,-0.3611111111111111,0.11712962962962963,1,0,0,5.25610470000538,call2,0.000925925925925926,0.11064814814814815,1,0,0,6.033881300012581,colour2,0.40370370370370373,-0.32175925925925924,1,0,0,6.722516899986658,number4,True,True,True,43,3,2019_Nov_21_1405,MA_Theta_Exp,3.0.7,59.83466485591335,
video/Training/zh_sp01_Ti_Gr_2_NoThetaInAudio_NoVideo.avi,noTheta,noVideo,sp01,Ti,Gr,2,,,,,,,,0,4,4,4,,,,,,,,,,,,,,,,,-0.39490740740740743,0.28379629629629627,1,0,0,7.643235099996673,call1,-0.03564814814814815,0.2712962962962963,1,0,0,8.459543299977668,colour1,0.3384259259259259,0.06944444444444445,1,0,0,9.211306999990484,number2,False,False,True,43,3,2019_Nov_21_1405,MA_Theta_Exp,3.0.7,59.83466485591335,
video/Training/zh_sp07_Ti_Ro_1_NoThetaInAudio_NoVideo.avi,noTheta,noVideo,sp07,Ti,Ro,1,,,,,,,,0,5,5,5,,,,,,,,,,,,,,,,,-0.3587962962962963,-0.27314814814814814,1,0,0,5.228887500008568,call4,0.028703703703703703,-0.125,1,0,0,6.322307099995669,colour3,0.42962962962962964,0.2865740740740741,1,0,0,8.157525599992368,number1,False,True,True,43,3,2019_Nov_21_1405,MA_Theta_Exp,3.0.7,59.83466485591335,
video/Training/zh_sp01_Un_Ge_1_NoThetaInAudio_GlobalThetaInVideo.avi,noTheta,plusVideo,sp01,Un,Ge,1,,,,,,,,0,6,6,6,,,,,,,,,,,,,,,,,-0.41203703703703703,-0.2851851851851852,1,0,0,5.543763599998783,call4,0.026851851851851852,0.2625,1,0,0,6.277256299974397,colour1,0.40694444444444444,0.2796296296296296,1,0,0,6.946866599988425,number1,True,True,True,43,3,2019_Nov_21_1405,MA_Theta_Exp,3.0.7,59.83466485591335,
video/Training/zh_sp07_Un_We_2_NoThetaInAudio_GlobalThetaInVideo.avi,noTheta,plusVideo,sp07,Un,We,2,,,,,,,,0,7,7,7,,,,,,,,,,,,,,,,,-0.3939814814814815,-0.28935185185185186,1,0,0,5.017559600004461,call4,0.0032407407407407406,0.29583333333333334,1,0,0,6.148844800016377,colour1,0.4111111111111111,0.1287037037037037,1,0,0,6.913223800016567,number2,True,False,True,43,3,2019_Nov_21_1405,MA_Theta_Exp,3.0.7,59.83466485591335,
video/Training/zh_sp01_Ad_Ge_1_GlobalTheta_NoVideo.avi,globalTheta,noVideo,sp01,Ad,Ge,1,,,,,,,,0,8,8,8,,,,,,,,,,,,,,,,,-0.3958333333333333,0.33194444444444443,1,0,0,5.529406199988443,call1,0.056018518518518516,0.32546296296296295,1,0,0,6.162178099999437,colour1,0.3574074074074074,0.2884259259259259,1,0,0,6.798481100006029,number1,True,True,True,43,3,2019_Nov_21_1405,MA_Theta_Exp,3.0.7,59.83466485591335,
video/Training/zh_sp07_Ad_Ro_3_GlobalTheta_NoVideo.avi,globalTheta,noVideo,sp07,Ad,Ro,3,,,,,,,,0,9,9,9,,,,,,,,,,,,,,,,,-0.4027777777777778,0.27037037037037037,1,0,0,4.839544299989939,call1,0.38657407407407407,-0.07314814814814814,1,0,0,6.373812299978454,colour3,0.3819444444444444,-0.10231481481481482,1,0,0,8.206115900014993,number3,True,True,True,43,3,2019_Nov_21_1405,MA_Theta_Exp,3.0.7,59.83466485591335,
video/Experiment/zh_sp07_Un_Gr_1_GlobalTheta_NoVideo.avi,globalTheta,noVideo,sp07,Un,Gr,1,0,5,flow/blocks/GlobalTheta_NoVideo_A.csv,,,,,,,,,0,0,0,0,0,0,0,20,,,,,,,,,-0.38981481481481484,-0.07731481481481481,1,0,0,5.239284099981887,call3,-0.006944444444444444,0.09398148148148149,1,0,0,6.2554719999898225,colour2,0.4148148148148148,0.3143518518518518,1,0,0,8.29134029999841,number1,False,True,True,43,3,2019_Nov_21_1405,MA_Theta_Exp,3.0.7,59.83466485591335,
video/Experiment/zh_sp01_Dr_We_2_GlobalTheta_NoVideo.avi,globalTheta,noVideo,sp01,Dr,We,2,0,5,flow/blocks/GlobalTheta_NoVideo_A.csv,,,,,,,,,0,0,0,0,0,1,1,13,,,,,,,,,-0.37777777777777777,0.28425925925925927,1,0,0,5.809808299993165,call1,-0.018055555555555554,-0.26944444444444443,1,0,0,7.544122799998149,colour4,0.41203703703703703,0.10925925925925926,1,0,0,8.174902899976587,number2,False,True,True,43,3,2019_Nov_21_1405,MA_Theta_Exp,3.0.7,59.83466485591335,
video/Experiment/zh_sp01_Ti_Ge_3_GlobalTheta_NoVideo.avi,globalTheta,noVideo,sp01,Ti,Ge,3,0,5,flow/blocks/GlobalTheta_NoVideo_A.csv,,,,,,,,,0,0,0,0,0,2,2,18,,,,,,,,,-0.4287037037037037,-0.08842592592592592,1,0,0,6.489744199992856,call3,-0.015277777777777777,0.32916666666666666,1,0,0,7.15927480001119,colour1,0.38287037037037036,-0.0912037037037037,1,0,0,8.122755500022322,number3,True,True,True,43,3,2019_Nov_21_1405,MA_Theta_Exp,3.0.7,59.83466485591335,
video/Experiment/zh_sp07_Ti_We_4_GlobalTheta_NoVideo.avi,globalTheta,noVideo,sp07,Ti,We,4,0,5,flow/blocks/GlobalTheta_NoVideo_A.csv,,,,,,,,,0,0,0,0,0,3,3,31,,,,,,,,,-0.4009259259259259,0.07777777777777778,1,0,0,5.534106100007193,call2,0.014814814814814815,-0.14166666666666666,1,0,0,6.363918399991235,colour3,0.3509259259259259,-0.30972222222222223,1,0,0,7.097612800018396,number4,False,False,True,43,3,2019_Nov_21_1405,MA_Theta_Exp,3.0.7,59.83466485591335,
video/Experiment/zh_sp07_Ti_Ge_4_GlobalTheta_NoVideo.avi,globalTheta,noVideo,sp07,Ti,Ge,4,0,5,flow/blocks/GlobalTheta_NoVideo_A.csv,,,,,,,,,0,0,0,0,0,4,4,3,,,,,,,,,-0.36898148148148147,-0.2652777777777778,1,0,0,5.3073851999943145,call4,0.027314814814814816,-0.26944444444444443,1,0,0,6.2921722999890335,colour4,0.35694444444444445,-0.1310185185185185,1,0,0,7.39319030000479,number3,False,False,False,43,3,2019_Nov_21_1405,MA_Theta_Exp,3.0.7,59.83466485591335,
video/Experiment/zh_sp07_Ti_Gr_4_GlobalTheta_NoVideo.avi,globalTheta,noVideo,sp07,Ti,Gr,4,0,5,flow/blocks/GlobalTheta_NoVideo_A.csv,,,,,,,,,0,0,0,0,0,5,5,7,,,,,,,,,-0.4046296296296296,-0.1398148148148148,1,0,0,5.172318400000222,call3,0.04027777777777778,0.09490740740740741,1,0,0,5.873242100002244,colour2,0.3773148148148148,-0.30185185185185187,1,0,0,6.9444688000075985,number4,True,True,True,43,3,2019_Nov_21_1405,MA_Theta_Exp,3.0.7,59.83466485591335,
video/Experiment/zh_sp07_Un_Ge_3_GlobalTheta_NoVideo.avi,globalTheta,noVideo,sp07,Un,Ge,3,0,5,flow/blocks/GlobalTheta_NoVideo_A.csv,,,,,,,,,0,0,0,0,0,6,6,2,,,,,,,,,-0.3912037037037037,-0.33287037037037037,1,0,0,7.410159100021701,call4,-0.0125,0.10138888888888889,1,0,0,8.27590069998405,colour2,0.40370370370370373,-0.13703703703703704,1,0,0,8.926599099999294,number3,True,False,True,43,3,2019_Nov_21_1405,MA_Theta_Exp,3.0.7,59.83466485591335,
video/Experiment/zh_sp01_Dr_Ge_4_GlobalTheta_NoVideo.avi,globalTheta,noVideo,sp01,Dr,Ge,4,0,5,flow/blocks/GlobalTheta_NoVideo_A.csv,,,,,,,,,0,0,0,0,0,7,7,19,,,,,,,,,-0.399537037037037,-0.2712962962962963,1,0,0,6.540103200008161,call4,-0.06759259259259259,0.34629629629629627,1,0,0,7.571493099996587,colour1,0.4310185185185185,-0.2222222222222222,1,0,0,8.440781700017396,number4,False,True,True,43,3,2019_Nov_21_1405,MA_Theta_Exp,3.0.7,59.83466485591335,
video/Experiment/zh_sp01_Ad_Ro_4_GlobalTheta_NoVideo.avi,globalTheta,noVideo,sp01,Ad,Ro,4,0,5,flow/blocks/GlobalTheta_NoVideo_A.csv,,,,,,,,,0,0,0,0,0,8,8,11,,,,,,,,,-0.38333333333333336,0.32592592592592595,1,0,0,5.520651500002714,call1,-0.007407407407407408,-0.15416666666666667,1,0,0,6.587621499988018,colour3,0.40925925925925927,-0.3384259259259259,1,0,0,7.587561499996809,number4,True,True,True,43,3,2019_Nov_21_1405,MA_Theta_Exp,3.0.7,59.83466485591335,
video/Experiment/zh_sp07_Dr_Ge_1_GlobalTheta_NoVideo.avi,globalTheta,noVideo,sp07,Dr,Ge,1,0,5,flow/blocks/GlobalTheta_NoVideo_A.csv,,,,,,,,,0,0,0,0,0,9,9,0,,,,,,,,,-0.4388888888888889,-0.300462962962963,1,0,0,6.753356700006407,call4,0.04212962962962963,-0.1412037037037037,1,0,0,7.670519899984356,colour3,0.3972222222222222,0.23703703703703705,1,0,0,8.405526799993822,number1,False,False,True,43,3,2019_Nov_21_1405,MA_Theta_Exp,3.0.7,59.83466485591335,
video/Experiment/zh_sp01_Un_Ge_2_GlobalTheta_NoVideo.avi,globalTheta,noVideo,sp01,Un,Ge,2,0,5,flow/blocks/GlobalTheta_NoVideo_A.csv,,,,,,,,,0,0,0,0,0,10,10,17,,,,,,,,,-0.4097222222222222,-0.325,1,0,0,5.274151999998139,call4,0.011574074074074073,0.2574074074074074,1,0,0,5.989046700007748,colour1,0.42777777777777776,0.09583333333333334,1,0,0,6.656587700010277,number2,True,True,True,43,3,2019_Nov_21_1405,MA_Theta_Exp,3.0.7,59.83466485591335,
video/Experiment/zh_sp01_Dr_Gr_3_GlobalTheta_NoVideo.avi,globalTheta,noVideo,sp01,Dr,Gr,3,0,5,flow/blocks/GlobalTheta_NoVideo_A.csv,,,,,,,,,0,0,0,0,0,11,11,6,,,,,,,,,-0.37453703703703706,-0.275,1,0,0,5.495342000009259,call4,0.046296296296296294,0.09074074074074075,1,0,0,6.158167700021295,colour2,0.36203703703703705,-0.09583333333333334,1,0,0,6.8270238999975845,number3,False,True,True,43,3,2019_Nov_21_1405,MA_Theta_Exp,3.0.7,59.83466485591335,
video/Experiment/zh_sp07_Ad_Ro_1_GlobalTheta_NoVideo.avi,globalTheta,noVideo,sp07,Ad,Ro,1,0,5,flow/blocks/GlobalTheta_NoVideo_A.csv,,,,,,,,,0,0,0,0,0,12,12,8,,,,,,,,,-0.3458333333333333,0.08703703703703704,1,0,0,5.2170138000219595,call2,-0.014351851851851852,0.10925925925925926,1,0,0,6.2635625999828335,colour2,0.36527777777777776,0.2564814814814815,1,0,0,7.049789299984695,number1,False,False,True,43,3,2019_Nov_21_1405,MA_Theta_Exp,3.0.7,59.83466485591335,
video/Experiment/zh_sp01_Un_We_1_GlobalTheta_NoVideo.avi,globalTheta,noVideo,sp01,Un,We,1,0,5,flow/blocks/GlobalTheta_NoVideo_A.csv,,,,,,,,,0,0,0,0,0,13,13,28,,,,,,,,,-0.3731481481481482,-0.25972222222222224,1,0,0,5.433941799972672,call4,-0.000462962962962963,-0.2611111111111111,1,0,0,6.188017999986187,colour4,0.4351851851851852,0.29814814814814816,1,0,0,7.166727200004971,number1,True,True,True,43,3,2019_Nov_21_1405,MA_Theta_Exp,3.0.7,59.83466485591335,
video/Experiment/zh_sp07_Ti_Ge_2_GlobalTheta_NoVideo.avi,globalTheta,noVideo,sp07,Ti,Ge,2,0,5,flow/blocks/GlobalTheta_NoVideo_A.csv,,,,,,,,,0,0,0,0,0,14,14,1,,,,,,,,,-0.4101851851851852,-0.12314814814814815,1,0,0,6.018175000004703,call3,-0.019444444444444445,0.2847222222222222,1,0,0,6.982423200010089,colour1,0.44027777777777777,0.09861111111111111,1,0,0,8.582736300013494,number2,True,True,True,43,3,2019_Nov_21_1405,MA_Theta_Exp,3.0.7,59.83466485591335,
video/Experiment/zh_sp01_Ti_Ro_3_GlobalTheta_NoVideo.avi,globalTheta,noVideo,sp01,Ti,Ro,3,0,5,flow/blocks/GlobalTheta_NoVideo_A.csv,,,,,,,,,0,0,0,0,0,15,15,10,,,,,,,,,-0.39675925925925926,0.25046296296296294,1,0,0,7.704092400002992,call1,-0.06157407407407407,0.2847222222222222,1,0,0,8.38878609999665,colour1,0.3902777777777778,-0.10416666666666667,1,0,0,9.421641099994304,number3,False,False,True,43,3,2019_Nov_21_1405,MA_Theta_Exp,3.0.7,59.83466485591335,
video/Experiment/zh_sp01_Dr_Ro_4_GlobalTheta_NoVideo.avi,globalTheta,noVideo,sp01,Dr,Ro,4,0,5,flow/blocks/GlobalTheta_NoVideo_A.csv,,,,,,,,,0,0,0,0,0,16,16,27,,,,,,,,,-0.3972222222222222,-0.24814814814814815,1,0,0,5.639152100018691,call4,-0.037037037037037035,-0.11064814814814815,1,0,0,6.538726300001144,colour3,0.3912037037037037,-0.3337962962962963,1,0,0,7.381709100009175,number4,False,True,True,43,3,2019_Nov_21_1405,MA_Theta_Exp,3.0.7,59.83466485591335,
video/Experiment/zh_sp01_Ad_We_1_GlobalTheta_NoVideo.avi,globalTheta,noVideo,sp01,Ad,We,1,0,5,flow/blocks/GlobalTheta_NoVideo_A.csv,,,,,,,,,0,0,0,0,0,17,17,12,,,,,,,,,-0.3699074074074074,0.2814814814814815,1,0,0,6.394929200003389,call1,0.025925925925925925,-0.23194444444444445,1,0,0,7.362822700000834,colour4,0.38472222222222224,0.35185185185185186,1,0,0,8.427805399987847,number1,True,True,True,43,3,2019_Nov_21_1405,MA_Theta_Exp,3.0.7,59.83466485591335,
video/Experiment/zh_sp01_Dr_Gr_2_GlobalTheta_NoVideo.avi,globalTheta,noVideo,sp01,Dr,Gr,2,0,5,flow/blocks/GlobalTheta_NoVideo_A.csv,,,,,,,,,0,0,0,0,0,18,18,5,,,,,,,,,-0.3990740740740741,-0.3458333333333333,1,0,0,6.281140000006417,call4,-0.04953703703703704,0.038425925925925926,1,0,0,7.1585072000161745,colour2,0.475462962962963,0.0699074074074074,1,0,0,7.976739599980647,number2,False,True,True,43,3,2019_Nov_21_1405,MA_Theta_Exp,3.0.7,59.83466485591335,
video/Experiment/zh_sp01_Ad_We_2_GlobalTheta_NoVideo.avi,globalTheta,noVideo,sp01,Ad,We,2,0,5,flow/blocks/GlobalTheta_NoVideo_A.csv,,,,,,,,,0,0,0,0,0,19,19,29,,,,,,,,,-0.412962962962963,0.31805555555555554,1,0,0,5.358790300000692,call1,0.006481481481481481,0.09768518518518518,1,0,0,6.235801599978004,colour2,0.4,0.11157407407407408,1,0,0,6.998832299985224,number2,True,False,True,43,3,2019_Nov_21_1405,MA_Theta_Exp,3.0.7,59.83466485591335,
video/Experiment/zh_sp01_Un_We_3_GlobalTheta_NoVideo.avi,globalTheta,noVideo,sp01,Un,We,3,0,5,flow/blocks/GlobalTheta_NoVideo_A.csv,,,,,,,,,0,0,0,0,0,20,20,14,,,,,,,,,-0.3851851851851852,-0.11296296296296296,1,0,0,5.345932299998822,call3,-0.031018518518518518,-0.2791666666666667,1,0,0,6.078629399999045,colour4,0.3907407407407407,-0.10462962962962963,1,0,0,6.850633699999889,number3,False,True,True,43,3,2019_Nov_21_1405,MA_Theta_Exp,3.0.7,59.83466485591335,
video/Experiment/zh_sp07_Ti_Ro_2_GlobalTheta_NoVideo.avi,globalTheta,noVideo,sp07,Ti,Ro,2,0,5,flow/blocks/GlobalTheta_NoVideo_A.csv,,,,,,,,,0,0,0,0,0,21,21,25,,,,,,,,,-0.38425925925925924,-0.10277777777777777,1,0,0,5.642602900014026,call3,0.007407407407407408,0.1388888888888889,1,0,0,6.978858200018294,colour2,0.39675925925925926,0.12962962962962962,1,0,0,8.347234299988486,number2,True,False,True,43,3,2019_Nov_21_1405,MA_Theta_Exp,3.0.7,59.83466485591335,
video/Experiment/zh_sp01_Ti_Ge_1_GlobalTheta_NoVideo.avi,globalTheta,noVideo,sp01,Ti,Ge,1,0,5,flow/blocks/GlobalTheta_NoVideo_A.csv,,,,,,,,,0,0,0,0,0,22,22,16,,,,,,,,,-0.39861111111111114,0.30185185185185187,1,0,0,5.742278100020485,call1,0.01712962962962963,0.25972222222222224,1,0,0,6.626002099976176,colour1,0.37916666666666665,0.30277777777777776,1,0,0,7.549178699991899,number1,False,True,True,43,3,2019_Nov_21_1405,MA_Theta_Exp,3.0.7,59.83466485591335,
video/Experiment/zh_sp07_Dr_Ro_2_GlobalTheta_NoVideo.avi,globalTheta,noVideo,sp07,Dr,Ro,2,0,5,flow/blocks/GlobalTheta_NoVideo_A.csv,,,,,,,,,0,0,0,0,0,23,23,9,,,,,,,,,-0.36064814814814816,-0.10185185185185185,1,0,0,5.1670553000003565,call3,-0.007407407407407408,-0.12314814814814815,1,0,0,6.016977399995085,colour3,0.4083333333333333,0.07777777777777778,1,0,0,6.7953466000035405,number2,False,True,True,43,3,2019_Nov_21_1405,MA_Theta_Exp,3.0.7,59.83466485591335,
video/Experiment/zh_sp07_Ad_Gr_1_GlobalTheta_NoVideo.avi,globalTheta,noVideo,sp07,Ad,Gr,1,0,5,flow/blocks/GlobalTheta_NoVideo_A.csv,,,,,,,,,0,0,0,0,0,24,24,4,,,,,,,,,-0.3907407407407407,-0.27824074074074073,1,0,0,6.592228900000919,call4,0.06527777777777778,0.11018518518518519,1,0,0,7.464970200002426,colour2,0.4601851851851852,0.33240740740740743,1,0,0,8.245329299999867,number1,False,True,True,43,3,2019_Nov_21_1405,MA_Theta_Exp,3.0.7,59.83466485591335,
video/Experiment/zh_sp07_Un_We_4_GlobalTheta_NoVideo.avi,globalTheta,noVideo,sp07,Un,We,4,0,5,flow/blocks/GlobalTheta_NoVideo_A.csv,,,,,,,,,0,0,0,0,0,25,25,15,,,,,,,,,-0.38564814814814813,-0.3578703703703704,1,0,0,5.566192199999932,call4,-0.004629629629629629,0.14212962962962963,1,0,0,6.315937899984419,colour2,0.41898148148148145,-0.0962962962962963,1,0,0,7.050634199986234,number3,True,False,False,43,3,2019_Nov_21_1405,MA_Theta_Exp,3.0.7,59.83466485591335,
video/Experiment/zh_sp07_Ad_Gr_3_GlobalTheta_NoVideo.avi,globalTheta,noVideo,sp07,Ad,Gr,3,0,5,flow/blocks/GlobalTheta_NoVideo_A.csv,,,,,,,,,0,0,0,0,0,26,26,22,,,,,,,,,-0.3800925925925926,0.31666666666666665,1,0,0,4.72458340000594,call1,0.016203703703703703,0.07731481481481481,1,0,0,5.407609899993986,colour2,0.4263888888888889,-0.31712962962962965,1,0,0,6.057920199993532,number4,True,True,False,43,3,2019_Nov_21_1405,MA_Theta_Exp,3.0.7,59.83466485591335,
video/Experiment/zh_sp01_Un_Ro_3_GlobalTheta_NoVideo.avi,globalTheta,noVideo,sp01,Un,Ro,3,0,5,flow/blocks/GlobalTheta_NoVideo_A.csv,,,,,,,,,0,0,0,0,0,27,27,26,,,,,,,,,-0.33796296296296297,0.07083333333333333,1,0,0,5.245048800017685,call2,-0.016203703703703703,-0.13240740740740742,1,0,0,5.912493100011488,colour3,0.4078703703703704,-0.14444444444444443,1,0,0,7.379625799978385,number3,False,True,True,43,3,2019_Nov_21_1405,MA_Theta_Exp,3.0.7,59.83466485591335,
video/Experiment/zh_sp07_Dr_Gr_4_GlobalTheta_NoVideo.avi,globalTheta,noVideo,sp07,Dr,Gr,4,0,5,flow/blocks/GlobalTheta_NoVideo_A.csv,,,,,,,,,0,0,0,0,0,28,28,23,,,,,,,,,-0.3773148148148148,-0.28055555555555556,1,0,0,4.9040317999897525,call4,0.02546296296296296,-0.34444444444444444,1,0,0,5.539534200011985,colour4,0.3925925925925926,-0.12546296296296297,1,0,0,6.9703300000110175,number3,False,False,False,43,3,2019_Nov_21_1405,MA_Theta_Exp,3.0.7,59.83466485591335,
video/Experiment/zh_sp01_Ad_We_3_GlobalTheta_NoVideo.avi,globalTheta,noVideo,sp01,Ad,We,3,0,5,flow/blocks/GlobalTheta_NoVideo_A.csv,,,,,,,,,0,0,0,0,0,29,29,30,,,,,,,,,-0.3875,0.29398148148148145,1,0,0,5.389553600020008,call1,-0.014351851851851852,-0.25555555555555554,1,0,0,6.108802200003993,colour4,0.37777777777777777,-0.12037037037037036,1,0,0,6.80607880000025,number3,True,True,True,43,3,2019_Nov_21_1405,MA_Theta_Exp,3.0.7,59.83466485591335,
video/Experiment/zh_sp07_Un_Ro_1_GlobalTheta_NoVideo.avi,globalTheta,noVideo,sp07,Un,Ro,1,0,5,flow/blocks/GlobalTheta_NoVideo_A.csv,,,,,,,,,0,0,0,0,0,30,30,24,,,,,,,,,-0.37083333333333335,-0.11944444444444445,1,0,0,7.266626600001473,call3,-0.0032407407407407406,-0.3111111111111111,1,0,0,8.17928920002305,colour4,0.36666666666666664,0.10231481481481482,1,0,0,9.139184400002705,number2,False,False,False,43,3,2019_Nov_21_1405,MA_Theta_Exp,3.0.7,59.83466485591335,
video/Experiment/zh_sp07_Ad_Gr_2_GlobalTheta_NoVideo.avi,globalTheta,noVideo,sp07,Ad,Gr,2,0,5,flow/blocks/GlobalTheta_NoVideo_A.csv,,,,,,,,,0,0,0,0,0,31,31,21,,,,,,,,,-0.4199074074074074,-0.29212962962962963,1,0,0,4.959253099979833,call4,0.0125,0.08611111111111111,1,0,0,5.726218999974662,colour2,0.4398148148148148,0.09305555555555556,1,0,0,6.442827299993951,number2,False,True,True,43,3,2019_Nov_21_1405,MA_Theta_Exp,3.0.7,59.83466485591335,
video/Experiment/zh_sp01_Ad_Ro_3_NVocInAudio_GlobalThetaInVideo.avi,vocoded,plusVideo,sp01,Ad,Ro,3,1,1,flow/blocks/NVocInAudio_GlobalThetaInVideo_B.csv,,,,,,,,,0,1,1,1,0,0,0,10,,,,,,,,,-0.40046296296296297,0.3675925925925926,1,0,0,5.794378899998264,call1,0.04537037037037037,-0.14027777777777778,1,0,0,6.4760554999811575,colour3,0.39351851851851855,-0.10833333333333334,1,0,0,7.095257699984359,number3,True,True,True,43,3,2019_Nov_21_1405,MA_Theta_Exp,3.0.7,59.83466485591335,
video/Experiment/zh_sp07_Ad_We_4_NVocInAudio_GlobalThetaInVideo.avi,vocoded,plusVideo,sp07,Ad,We,4,1,1,flow/blocks/NVocInAudio_GlobalThetaInVideo_B.csv,,,,,,,,,0,1,1,1,0,1,1,31,,,,,,,,,-0.3611111111111111,0.2601851851851852,1,0,0,4.825484899978619,call1,0.030555555555555555,-0.28703703703703703,1,0,0,5.569944599992596,colour4,0.37962962962962965,-0.287962962962963,1,0,0,6.154297200002475,number4,True,True,True,43,3,2019_Nov_21_1405,MA_Theta_Exp,3.0.7,59.83466485591335,
video/Experiment/zh_sp01_Dr_Ro_1_NVocInAudio_GlobalThetaInVideo.avi,vocoded,plusVideo,sp01,Dr,Ro,1,1,1,flow/blocks/NVocInAudio_GlobalThetaInVideo_B.csv,,,,,,,,,0,1,1,1,0,2,2,24,,,,,,,,,-0.4064814814814815,0.1,1,0,0,5.98334690000047,call2,0.020833333333333332,-0.3074074074074074,1,0,0,6.845341500011273,colour4,0.4111111111111111,0.2569444444444444,1,0,0,7.7460522999754176,number1,True,False,True,43,3,2019_Nov_21_1405,MA_Theta_Exp,3.0.7,59.83466485591335,
video/Experiment/zh_sp07_Un_We_2_NVocInAudio_GlobalThetaInVideo.avi,vocoded,plusVideo,sp07,Un,We,2,1,1,flow/blocks/NVocInAudio_GlobalThetaInVideo_B.csv,,,,,,,,,0,1,1,1,0,3,3,13,,,,,,,,,-0.36064814814814816,-0.3055555555555556,1,0,0,5.041603999998188,call4,-0.011574074074074073,-0.3055555555555556,1,0,0,5.703111499984516,colour4,0.38055555555555554,0.08425925925925926,1,0,0,6.498906299995724,number2,True,True,True,43,3,2019_Nov_21_1405,MA_Theta_Exp,3.0.7,59.83466485591335,
video/Experiment/zh_sp07_Dr_We_3_NVocInAudio_GlobalThetaInVideo.avi,vocoded,plusVideo,sp07,Dr,We,3,1,1,flow/blocks/NVocInAudio_GlobalThetaInVideo_B.csv,,,,,,,,,0,1,1,1,0,4,4,14,,,,,,,,,-0.4046296296296296,0.09259259259259259,1,0,0,5.46577249999973,call2,0.007407407407407408,-0.31851851851851853,1,0,0,6.09852050000336,colour4,0.41759259259259257,-0.09537037037037037,1,0,0,6.7592386000033,number3,True,True,True,43,3,2019_Nov_21_1405,MA_Theta_Exp,3.0.7,59.83466485591335,
video/Experiment/zh_sp01_Ad_Ge_4_NVocInAudio_GlobalThetaInVideo.avi,vocoded,plusVideo,sp01,Ad,Ge,4,1,1,flow/blocks/NVocInAudio_GlobalThetaInVideo_B.csv,,,,,,,,,0,1,1,1,0,5,5,3,,,,,,,,,-0.39814814814814814,0.3236111111111111,1,0,0,5.511244299996179,call1,-0.022685185185185187,0.30972222222222223,1,0,0,6.16196040000068,colour1,0.4222222222222222,-0.31666666666666665,1,0,0,7.066416999994544,number4,True,True,True,43,3,2019_Nov_21_1405,MA_Theta_Exp,3.0.7,59.83466485591335,
video/Experiment/zh_sp01_Ti_We_3_NVocInAudio_GlobalThetaInVideo.avi,vocoded,plusVideo,sp01,Ti,We,3,1,1,flow/blocks/NVocInAudio_GlobalThetaInVideo_B.csv,,,,,,,,,0,1,1,1,0,6,6,30,,,,,,,,,-0.38101851851851853,-0.09351851851851851,1,0,0,5.791411000012886,call3,0.032407407407407406,-0.33611111111111114,1,0,0,6.425109100004192,colour4,0.32685185185185184,-0.16111111111111112,1,0,0,7.111319200019352,number3,True,True,True,43,3,2019_Nov_21_1405,MA_Theta_Exp,3.0.7,59.83466485591335,
video/Experiment/zh_sp07_Dr_We_4_NVocInAudio_GlobalThetaInVideo.avi,vocoded,plusVideo,sp07,Dr,We,4,1,1,flow/blocks/NVocInAudio_GlobalThetaInVideo_B.csv,,,,,,,,,0,1,1,1,0,7,7,15,,,,,,,,,-0.3902777777777778,0.12037037037037036,1,0,0,5.349207199993543,call2,0.04675925925925926,-0.3768518518518518,1,0,0,6.300754600000801,colour4,0.3814814814814815,-0.2814814814814815,1,0,0,6.982488600013312,number4,True,True,True,43,3,2019_Nov_21_1405,MA_Theta_Exp,3.0.7,59.83466485591335,
video/Experiment/zh_sp07_Un_Gr_2_NVocInAudio_GlobalThetaInVideo.avi,vocoded,plusVideo,sp07,Un,Gr,2,1,1,flow/blocks/NVocInAudio_GlobalThetaInVideo_B.csv,,,,,,,,,0,1,1,1,0,8,8,5,,,,,,,,,-0.3675925925925926,-0.26944444444444443,1,0,0,5.024078100017505,call4,-0.05,0.06388888888888888,1,0,0,5.848881500016432,colour2,0.40694444444444444,0.04861111111111111,1,0,0,6.666079299990088,number2,True,True,True,43,3,2019_Nov_21_1405,MA_Theta_Exp,3.0.7,59.83466485591335,
video/Experiment/zh_sp01_Dr_We_1_NVocInAudio_GlobalThetaInVideo.avi,vocoded,plusVideo,sp01,Dr,We,1,1,1,flow/blocks/NVocInAudio_GlobalThetaInVideo_B.csv,,,,,,,,,0,1,1,1,0,9,9,28,,,,,,,,,-0.37916666666666665,0.13564814814814816,1,0,0,5.520248399989214,call2,-0.027777777777777776,-0.2652777777777778,1,0,0,6.329652600019472,colour4,0.4166666666666667,0.25092592592592594,1,0,0,7.145548099972075,number1,True,True,True,43,3,2019_Nov_21_1405,MA_Theta_Exp,3.0.7,59.83466485591335,
video/Experiment/zh_sp01_Un_Ge_1_NVocInAudio_GlobalThetaInVideo.avi,vocoded,plusVideo,sp01,Un,Ge,1,1,1,flow/blocks/NVocInAudio_GlobalThetaInVideo_B.csv,,,,,,,,,0,1,1,1,0,10,10,0,,,,,,,,,-0.4638888888888889,-0.29259259259259257,1,0,0,5.889650900004199,call4,0.025925925925925925,0.28888888888888886,1,0,0,6.734313199995086,colour1,0.38055555555555554,0.3,1,0,0,7.403769500000635,number1,True,True,True,43,3,2019_Nov_21_1405,MA_Theta_Exp,3.0.7,59.83466485591335,
video/Experiment/zh_sp01_Ti_Gr_1_NVocInAudio_GlobalThetaInVideo.avi,vocoded,plusVideo,sp01,Ti,Gr,1,1,1,flow/blocks/NVocInAudio_GlobalThetaInVideo_B.csv,,,,,,,,,0,1,1,1,0,11,11,4,,,,,,,,,-0.43425925925925923,-0.10601851851851851,1,0,0,5.861393200000748,call3,-0.01574074074074074,0.0699074074074074,1,0,0,6.548008599987952,colour2,0.39351851851851855,0.3050925925925926,1,0,0,7.4616946000023745,number1,True,True,True,43,3,2019_Nov_21_1405,MA_Theta_Exp,3.0.7,59.83466485591335,
video/Experiment/zh_sp07_Ti_We_1_NVocInAudio_GlobalThetaInVideo.avi,vocoded,plusVideo,sp07,Ti,We,1,1,1,flow/blocks/NVocInAudio_GlobalThetaInVideo_B.csv,,,,,,,,,0,1,1,1,0,12,12,12,,,,,,,,,-0.39305555555555555,-0.08287037037037037,1,0,0,4.941568300011568,call3,0.013888888888888888,-0.3212962962962963,1,0,0,6.00822909999988,colour4,0.39537037037037037,0.29305555555555557,1,0,0,6.708358499978203,number1,True,True,True,43,3,2019_Nov_21_1405,MA_Theta_Exp,3.0.7,59.83466485591335,
video/Experiment/zh_sp07_Dr_Gr_1_NVocInAudio_GlobalThetaInVideo.avi,vocoded,plusVideo,sp07,Dr,Gr,1,1,1,flow/blocks/NVocInAudio_GlobalThetaInVideo_B.csv,,,,,,,,,0,1,1,1,0,13,13,20,,,,,,,,,-0.38055555555555554,0.09861111111111111,1,0,0,5.148778700007824,call2,-0.04398148148148148,-0.26805555555555555,1,0,0,5.898675899981754,colour4,0.39490740740740743,0.31851851851851853,1,0,0,7.70075160000124,number1,True,False,True,43,3,2019_Nov_21_1405,MA_Theta_Exp,3.0.7,59.83466485591335,
video/Experiment/zh_sp01_Ad_Ge_2_NVocInAudio_GlobalThetaInVideo.avi,vocoded,plusVideo,sp01,Ad,Ge,2,1,1,flow/blocks/NVocInAudio_GlobalThetaInVideo_B.csv,,,,,,,,,0,1,1,1,0,14,14,1,,,,,,,,,-0.38333333333333336,0.3282407407407407,1,0,0,5.241578700020909,call1,-0.006944444444444444,0.3296296296296296,1,0,0,5.890899499994703,colour1,0.4212962962962963,0.075,1,0,0,6.5731205999909434,number2,True,True,True,43,3,2019_Nov_21_1405,MA_Theta_Exp,3.0.7,59.83466485591335,
video/Experiment/zh_sp07_Un_Ro_2_NVocInAudio_GlobalThetaInVideo.avi,vocoded,plusVideo,sp07,Un,Ro,2,1,1,flow/blocks/NVocInAudio_GlobalThetaInVideo_B.csv,,,,,,,,,0,1,1,1,0,15,15,9,,,,,,,,,-0.3574074074074074,-0.2986111111111111,1,0,0,5.012639199994737,call4,0.024537037037037038,-0.13935185185185187,1,0,0,5.846399000001838,colour3,0.3875,0.0912037037037037,1,0,0,6.609951199992793,number2,True,True,True,43,3,2019_Nov_21_1405,MA_Theta_Exp,3.0.7,59.83466485591335,
video/Experiment/zh_sp07_Un_Gr_3_NVocInAudio_GlobalThetaInVideo.avi,vocoded,plusVideo,sp07,Un,Gr,3,1,1,flow/blocks/NVocInAudio_GlobalThetaInVideo_B.csv,,,,,,,,,0,1,1,1,0,16,16,6,,,,,,,,,-0.43148148148148147,-0.3106481481481482,1,0,0,4.754984900006093,call4,0.004166666666666667,0.06712962962962964,1,0,0,5.5154086999828,colour2,0.43472222222222223,-0.0699074074074074,1,0,0,6.251924599986523,number3,True,True,True,43,3,2019_Nov_21_1405,MA_Theta_Exp,3.0.7,59.83466485591335,
video/Experiment/zh_sp01_Ad_Ge_3_NVocInAudio_GlobalThetaInVideo.avi,vocoded,plusVideo,sp01,Ad,Ge,3,1,1,flow/blocks/NVocInAudio_GlobalThetaInVideo_B.csv,,,,,,,,,0,1,1,1,0,17,17,18,,,,,,,,,-0.3958333333333333,0.3314814814814815,1,0,0,5.724666099995375,call1,-0.06435185185185185,0.3523148148148148,1,0,0,6.440447999979369,colour1,0.3851851851851852,-0.09398148148148149,1,0,0,7.1310203000030015,number3,True,True,True,43,3,2019_Nov_21_1405,MA_Theta_Exp,3.0.7,59.83466485591335,
video/Experiment/zh_sp01_Un_Ro_4_NVocInAudio_GlobalThetaInVideo.avi,vocoded,plusVideo,sp01,Un,Ro,4,1,1,flow/blocks/NVocInAudio_GlobalThetaInVideo_B.csv,,,,,,,,,0,1,1,1,0,18,18,27,,,,,,,,,-0.46435185185185185,-0.2898148148148148,1,0,0,5.72630399998161,call4,-0.04351851851851852,-0.16620370370370371,1,0,0,6.442184799991082,colour3,0.36574074074074076,-0.2972222222222222,1,0,0,7.078711400012253,number4,True,True,True,43,3,2019_Nov_21_1405,MA_Theta_Exp,3.0.7,59.83466485591335,
video/Experiment/zh_sp07_Ti_Ro_1_NVocInAudio_GlobalThetaInVideo.avi,vocoded,plusVideo,sp07,Ti,Ro,1,1,1,flow/blocks/NVocInAudio_GlobalThetaInVideo_B.csv,,,,,,,,,0,1,1,1,0,19,19,8,,,,,,,,,-0.3958333333333333,-0.06296296296296296,1,0,0,7.0620415000012144,call3,-0.029166666666666667,-0.14583333333333334,1,0,0,7.694788699998753,colour3,0.3699074074074074,0.34444444444444444,1,0,0,8.484214099997189,number1,True,True,True,43,3,2019_Nov_21_1405,MA_Theta_Exp,3.0.7,59.83466485591335,
video/Experiment/zh_sp01_Ti_Gr_3_NVocInAudio_GlobalThetaInVideo.avi,vocoded,plusVideo,sp01,Ti,Gr,3,1,1,flow/blocks/NVocInAudio_GlobalThetaInVideo_B.csv,,,,,,,,,0,1,1,1,0,20,20,22,,,,,,,,,-0.362962962962963,-0.06342592592592593,1,0,0,5.401790600008098,call3,0.005555555555555556,0.11851851851851852,1,0,0,6.099218899995321,colour2,0.32685185185185184,-0.08009259259259259,1,0,0,7.507533500000136,number3,True,True,True,43,3,2019_Nov_21_1405,MA_Theta_Exp,3.0.7,59.83466485591335,
video/Experiment/zh_sp01_Ti_Gr_2_NVocInAudio_GlobalThetaInVideo.avi,vocoded,plusVideo,sp01,Ti,Gr,2,1,1,flow/blocks/NVocInAudio_GlobalThetaInVideo_B.csv,,,,,,,,,0,1,1,1,0,21,21,21,,,,,,,,,-0.3907407407407407,-0.08148148148148149,1,0,0,5.733080699981656,call3,-0.032407407407407406,0.052314814814814814,1,0,0,6.501213899988215,colour2,0.44212962962962965,0.10416666666666667,1,0,0,7.266162100015208,number2,True,True,True,43,3,2019_Nov_21_1405,MA_Theta_Exp,3.0.7,59.83466485591335,
video/Experiment/zh_sp07_Ad_Ro_2_NVocInAudio_GlobalThetaInVideo.avi,vocoded,plusVideo,sp07,Ad,Ro,2,1,1,flow/blocks/NVocInAudio_GlobalThetaInVideo_B.csv,,,,,,,,,0,1,1,1,0,22,22,25,,,,,,,,,-0.42407407407407405,-0.10925925925925926,1,0,0,5.182975000003353,call3,-0.05462962962962963,-0.10648148148148148,1,0,0,5.915686799999094,colour3,0.33425925925925926,0.09907407407407408,1,0,0,6.772300799988443,number2,False,True,True,43,3,2019_Nov_21_1405,MA_Theta_Exp,3.0.7,59.83466485591335,
video/Experiment/zh_sp07_Un_Ge_4_NVocInAudio_GlobalThetaInVideo.avi,vocoded,plusVideo,sp07,Un,Ge,4,1,1,flow/blocks/NVocInAudio_GlobalThetaInVideo_B.csv,,,,,,,,,0,1,1,1,0,23,23,19,,,,,,,,,-0.3976851851851852,-0.2763888888888889,1,0,0,4.914396100008162,call4,0.02361111111111111,0.2759259259259259,1,0,0,7.121768300014082,colour1,0.3837962962962963,-0.2652777777777778,1,0,0,7.94436009999481,number4,True,True,True,43,3,2019_Nov_21_1405,MA_Theta_Exp,3.0.7,59.83466485591335,
video/Experiment/zh_sp07_Ad_Ge_1_NVocInAudio_GlobalThetaInVideo.avi,vocoded,plusVideo,sp07,Ad,Ge,1,1,1,flow/blocks/NVocInAudio_GlobalThetaInVideo_B.csv,,,,,,,,,0,1,1,1,0,24,24,16,,,,,,,,,-0.3861111111111111,0.26435185185185184,1,0,0,4.977084799989825,call1,-0.07546296296296297,0.287962962962963,1,0,0,5.67109730001539,colour1,0.5138888888888888,0.3037037037037037,1,0,0,6.675411100004567,number1,True,True,True,43,3,2019_Nov_21_1405,MA_Theta_Exp,3.0.7,59.83466485591335,
video/Experiment/zh_sp07_Dr_Ge_2_NVocInAudio_GlobalThetaInVideo.avi,vocoded,plusVideo,sp07,Dr,Ge,2,1,1,flow/blocks/NVocInAudio_GlobalThetaInVideo_B.csv,,,,,,,,,0,1,1,1,0,25,25,17,,,,,,,,,-0.3768518518518518,0.11481481481481481,1,0,0,4.6072346000000834,call2,-0.3768518518518518,0.11481481481481481,1,0,0,4.824291600001743,colour1,0.45,0.1412037037037037,1,0,0,6.284229699987918,number2,True,True,True,43,3,2019_Nov_21_1405,MA_Theta_Exp,3.0.7,59.83466485591335,
video/Experiment/zh_sp01_Dr_Ge_3_NVocInAudio_GlobalThetaInVideo.avi,vocoded,plusVideo,sp01,Dr,Ge,3,1,1,flow/blocks/NVocInAudio_GlobalThetaInVideo_B.csv,,,,,,,,,0,1,1,1,0,26,26,2,,,,,,,,,-0.4675925925925926,0.07731481481481481,1,0,0,5.325361600000178,call2,-0.027314814814814816,0.262037037037037,1,0,0,6.246229800017318,colour1,0.4439814814814815,-0.1087962962962963,1,0,0,7.12953729997389,number3,True,True,True,43,3,2019_Nov_21_1405,MA_Theta_Exp,3.0.7,59.83466485591335,
video/Experiment/zh_sp01_Ti_Ro_4_NVocInAudio_GlobalThetaInVideo.avi,vocoded,plusVideo,sp01,Ti,Ro,4,1,1,flow/blocks/NVocInAudio_GlobalThetaInVideo_B.csv,,,,,,,,,0,1,1,1,0,27,27,11,,,,,,,,,-0.4217592592592593,-0.11435185185185186,1,0,0,5.537376499996753,call3,0.02824074074074074,-0.09907407407407408,1,0,0,6.188400199986063,colour3,0.37546296296296294,-0.2833333333333333,1,0,0,6.8720740000135265,number4,True,True,True,43,3,2019_Nov_21_1405,MA_Theta_Exp,3.0.7,59.83466485591335,
video/Experiment/zh_sp01_Un_Gr_4_NVocInAudio_GlobalThetaInVideo.avi,vocoded,plusVideo,sp01,Un,Gr,4,1,1,flow/blocks/NVocInAudio_GlobalThetaInVideo_B.csv,,,,,,,,,0,1,1,1,0,28,28,23,,,,,,,,,-0.40046296296296297,-0.30972222222222223,1,0,0,5.9741861000075005,call4,-0.04398148148148148,0.07962962962962963,1,0,0,8.024493800010532,colour2,0.3592592592592593,-0.3,1,0,0,8.808269400004065,number4,True,True,True,43,3,2019_Nov_21_1405,MA_Theta_Exp,3.0.7,59.83466485591335,
video/Experiment/zh_sp07_Ti_We_2_NVocInAudio_GlobalThetaInVideo.avi,vocoded,plusVideo,sp07,Ti,We,2,1,1,flow/blocks/NVocInAudio_GlobalThetaInVideo_B.csv,,,,,,,,,0,1,1,1,0,29,29,29,,,,,,,,,-0.47962962962962963,-0.12731481481481483,1,0,0,5.209230900014518,call3,0.03981481481481482,-0.337037037037037,1,0,0,5.911298000020906,colour4,0.3560185185185185,0.08194444444444444,1,0,0,6.64238320000004,number2,True,True,True,43,3,2019_Nov_21_1405,MA_Theta_Exp,3.0.7,59.83466485591335,
video/Experiment/zh_sp01_Ad_Gr_4_NVocInAudio_GlobalThetaInVideo.avi,vocoded,plusVideo,sp01,Ad,Gr,4,1,1,flow/blocks/NVocInAudio_GlobalThetaInVideo_B.csv,,,,,,,,,0,1,1,1,0,30,30,7,,,,,,,,,-0.37083333333333335,0.25601851851851853,1,0,0,5.550068699987605,call1,-0.02361111111111111,0.06111111111111111,1,0,0,6.266396999999415,colour2,0.38472222222222224,-0.3592592592592593,1,0,0,6.950119899993297,number4,True,True,True,43,3,2019_Nov_21_1405,MA_Theta_Exp,3.0.7,59.83466485591335,
video/Experiment/zh_sp07_Dr_Ro_3_NVocInAudio_GlobalThetaInVideo.avi,vocoded,plusVideo,sp07,Dr,Ro,3,1,1,flow/blocks/NVocInAudio_GlobalThetaInVideo_B.csv,,,,,,,,,0,1,1,1,0,31,31,26,,,,,,,,,-0.4425925925925926,0.12175925925925926,1,0,0,5.03650829999242,call2,-0.05740740740740741,-0.08842592592592592,1,0,0,5.748097999981837,colour3,0.4375,-0.12361111111111112,1,0,0,6.482313400018029,number3,True,True,True,43,3,2019_Nov_21_1405,MA_Theta_Exp,3.0.7,59.83466485591335,
video/Experiment/zh_sp07_Ti_Gr_4_NoThetaInAudio_NoVideo.avi,noTheta,noVideo,sp07,Ti,Gr,4,2,4,flow/blocks/NoThetaInAudio_NoVideo_A.csv,,,,,,,,,0,2,2,2,0,0,0,7,,,,,,,,,-0.38472222222222224,-0.09814814814814815,1,0,0,5.361886099999538,call3,0.009259259259259259,0.09814814814814815,1,0,0,6.115004699997371,colour2,0.38425925925925924,-0.10092592592592593,1,0,0,7.811180299991975,number3,True,True,False,43,3,2019_Nov_21_1405,MA_Theta_Exp,3.0.7,59.83466485591335,
video/Experiment/zh_sp01_Ad_Gr_3_NoThetaInAudio_NoVideo.avi,noTheta,noVideo,sp01,Ad,Gr,3,2,4,flow/blocks/NoThetaInAudio_NoVideo_A.csv,,,,,,,,,0,2,2,2,0,1,1,22,,,,,,,,,-0.3819444444444444,0.27685185185185185,1,0,0,5.571140200016089,call1,0.05324074074074074,0.09537037037037037,1,0,0,6.255558100005146,colour2,0.43287037037037035,-0.09953703703703703,1,0,0,7.590827899985015,number3,True,True,True,43,3,2019_Nov_21_1405,MA_Theta_Exp,3.0.7,59.83466485591335,
video/Experiment/zh_sp07_Ad_Gr_2_NoThetaInAudio_NoVideo.avi,noTheta,noVideo,sp07,Ad,Gr,2,2,4,flow/blocks/NoThetaInAudio_NoVideo_A.csv,,,,,,,,,0,2,2,2,0,2,2,21,,,,,,,,,-0.39444444444444443,0.04722222222222222,1,0,0,5.7176360999874305,call2,-0.0125,0.06481481481481481,1,0,0,6.486841300007654,colour2,0.40925925925925927,0.1037037037037037,1,0,0,7.167003900016425,number2,False,True,True,43,3,2019_Nov_21_1405,MA_Theta_Exp,3.0.7,59.83466485591335,
video/Experiment/zh_sp07_Ti_Ge_2_NoThetaInAudio_NoVideo.avi,noTheta,noVideo,sp07,Ti,Ge,2,2,4,flow/blocks/NoThetaInAudio_NoVideo_A.csv,,,,,,,,,0,2,2,2,0,3,3,1,,,,,,,,,-0.40046296296296297,-0.06296296296296296,1,0,0,5.073213700001361,call3,-0.05,0.2884259259259259,1,0,0,6.889034499996342,colour1,0.38981481481481484,0.14027777777777778,1,0,0,7.690303100011079,number2,True,True,True,43,3,2019_Nov_21_1405,MA_Theta_Exp,3.0.7,59.83466485591335,
video/Experiment/zh_sp07_Un_Ge_2_NoThetaInAudio_NoVideo.avi,noTheta,noVideo,sp07,Un,Ge,2,2,4,flow/blocks/NoThetaInAudio_NoVideo_A.csv,,,,,,,,,0,2,2,2,0,4,4,17,,,,,,,,,-0.43472222222222223,-0.29074074074074074,1,0,0,7.150105299981078,call4,0.029166666666666667,-0.08333333333333333,1,0,0,8.228426299989223,colour3,0.38472222222222224,0.07222222222222222,1,0,0,8.947356299991952,number2,True,False,True,43,3,2019_Nov_21_1405,MA_Theta_Exp,3.0.7,59.83466485591335,
video/Experiment/zh_sp07_Ti_Ge_3_NoThetaInAudio_NoVideo.avi,noTheta,noVideo,sp07,Ti,Ge,3,2,4,flow/blocks/NoThetaInAudio_NoVideo_A.csv,,,,,,,,,0,2,2,2,0,5,5,18,,,,,,,,,-0.4027777777777778,-0.12453703703703704,1,0,0,5.067844100005459,call3,0.02546296296296296,0.29074074074074074,1,0,0,5.86512689999654,colour1,0.38287037037037036,-0.08888888888888889,1,0,0,7.320173600019189,number3,True,True,True,43,3,2019_Nov_21_1405,MA_Theta_Exp,3.0.7,59.83466485591335,
video/Experiment/zh_sp01_Un_We_3_NoThetaInAudio_NoVideo.avi,noTheta,noVideo,sp01,Un,We,3,2,4,flow/blocks/NoThetaInAudio_NoVideo_A.csv,,,,,,,,,0,2,2,2,0,6,6,14,,,,,,,,,-0.39814814814814814,-0.3472222222222222,1,0,0,5.239425100007793,call4,-0.04537037037037037,-0.35185185185185186,1,0,0,5.891004100005375,colour4,0.4462962962962963,-0.125,1,0,0,6.5908708999922965,number3,True,True,True,43,3,2019_Nov_21_1405,MA_Theta_Exp,3.0.7,59.83466485591335,
video/Experiment/zh_sp01_Ti_Ge_1_NoThetaInAudio_NoVideo.avi,noTheta,noVideo,sp01,Ti,Ge,1,2,4,flow/blocks/NoThetaInAudio_NoVideo_A.csv,,,,,,,,,0,2,2,2,0,7,7,16,,,,,,,,,-0.4013888888888889,-0.12916666666666668,1,0,0,5.7170111000014,call3,-0.06111111111111111,0.2689814814814815,1,0,0,6.476349400007166,colour1,0.4203703703703704,0.32546296296296295,1,0,0,7.453858699998818,number1,True,True,True,43,3,2019_Nov_21_1405,MA_Theta_Exp,3.0.7,59.83466485591335,
video/Experiment/zh_sp01_Dr_Gr_4_NoThetaInAudio_NoVideo.avi,noTheta,noVideo,sp01,Dr,Gr,4,2,4,flow/blocks/NoThetaInAudio_NoVideo_A.csv,,,,,,,,,0,2,2,2,0,8,8,23,,,,,,,,,-0.3837962962962963,0.06481481481481481,1,0,0,5.5113614999863785,call2,-0.04259259259259259,0.06018518518518518,1,0,0,6.260180899989791,colour2,0.4083333333333333,-0.32083333333333336,1,0,0,8.26102350000292,number4,True,True,True,43,3,2019_Nov_21_1405,MA_Theta_Exp,3.0.7,59.83466485591335,
video/Experiment/zh_sp01_Un_We_4_NoThetaInAudio_NoVideo.avi,noTheta,noVideo,sp01,Un,We,4,2,4,flow/blocks/NoThetaInAudio_NoVideo_A.csv,,,,,,,,,0,2,2,2,0,9,9,15,,,,,,,,,-0.38935185185185184,-0.31805555555555554,1,0,0,5.462216999992961,call4,-0.041666666666666664,0.14212962962962963,1,0,0,7.571144599991385,colour2,0.41203703703703703,-0.35509259259259257,1,0,0,8.33822250002413,number4,True,False,True,43,3,2019_Nov_21_1405,MA_Theta_Exp,3.0.7,59.83466485591335,
video/Experiment/zh_sp01_Dr_Gr_3_NoThetaInAudio_NoVideo.avi,noTheta,noVideo,sp01,Dr,Gr,3,2,4,flow/blocks/NoThetaInAudio_NoVideo_A.csv,,,,,,,,,0,2,2,2,0,10,10,6,,,,,,,,,-0.3888888888888889,0.027777777777777776,1,0,0,5.738670300022932,call2,-0.002777777777777778,-0.30092592592592593,1,0,0,6.872512799978722,colour4,0.38564814814814813,-0.10462962962962963,1,0,0,7.656545999983791,number3,True,False,True,43,3,2019_Nov_21_1405,MA_Theta_Exp,3.0.7,59.83466485591335,
video/Experiment/zh_sp01_Dr_Ro_2_NoThetaInAudio_NoVideo.avi,noTheta,noVideo,sp01,Dr,Ro,2,2,4,flow/blocks/NoThetaInAudio_NoVideo_A.csv,,,,,,,,,0,2,2,2,0,11,11,9,,,,,,,,,-0.387037037037037,0.10046296296296296,1,0,0,5.6989823000039905,call2,0.06481481481481481,-0.10277777777777777,1,0,0,6.429426099988632,colour3,0.4111111111111111,0.09305555555555556,1,0,0,7.177112000004854,number2,True,True,True,43,3,2019_Nov_21_1405,MA_Theta_Exp,3.0.7,59.83466485591335,
video/Experiment/zh_sp07_Dr_Ge_4_NoThetaInAudio_NoVideo.avi,noTheta,noVideo,sp07,Dr,Ge,4,2,4,flow/blocks/NoThetaInAudio_NoVideo_A.csv,,,,,,,,,0,2,2,2,0,12,12,19,,,,,,,,,-0.375,-0.07824074074074074,1,0,0,6.638846099987859,call3,-0.02638888888888889,0.30324074074074076,1,0,0,7.361504000000423,colour1,0.40694444444444444,-0.3523148148148148,1,0,0,8.394297999999253,number4,False,True,True,43,3,2019_Nov_21_1405,MA_Theta_Exp,3.0.7,59.83466485591335,
video/Experiment/zh_sp01_Dr_We_2_NoThetaInAudio_NoVideo.avi,noTheta,noVideo,sp01,Dr,We,2,2,4,flow/blocks/NoThetaInAudio_NoVideo_A.csv,,,,,,,,,0,2,2,2,0,13,13,13,,,,,,,,,-0.3925925925925926,0.09537037037037037,1,0,0,5.870696300000418,call2,-0.019444444444444445,-0.2898148148148148,1,0,0,7.141528299980564,colour4,0.45231481481481484,0.07453703703703704,1,0,0,8.011266599991359,number2,True,True,True,43,3,2019_Nov_21_1405,MA_Theta_Exp,3.0.7,59.83466485591335,
video/Experiment/zh_sp07_Un_We_1_NoThetaInAudio_NoVideo.avi,noTheta,noVideo,sp07,Un,We,1,2,4,flow/blocks/NoThetaInAudio_NoVideo_A.csv,,,,,,,,,0,2,2,2,0,14,14,28,,,,,,,,,-0.3962962962962963,-0.3175925925925926,1,0,0,4.737196899979608,call4,-0.000925925925925926,-0.3138888888888889,1,0,0,5.438191799999913,colour4,0.3800925925925926,0.3199074074074074,1,0,0,6.54043079999974,number1,True,True,True,43,3,2019_Nov_21_1405,MA_Theta_Exp,3.0.7,59.83466485591335,
video/Experiment/zh_sp01_Un_Ro_1_NoThetaInAudio_NoVideo.avi,noTheta,noVideo,sp01,Un,Ro,1,2,4,flow/blocks/NoThetaInAudio_NoVideo_A.csv,,,,,,,,,0,2,2,2,0,15,15,24,,,,,,,,,-0.41574074074074074,0.14027777777777778,1,0,0,5.1890521000023,call2,0.038425925925925926,-0.24537037037037038,1,0,0,6.087796300009359,colour4,0.3902777777777778,0.28888888888888886,1,0,0,7.087619199999608,number1,False,False,True,43,3,2019_Nov_21_1405,MA_Theta_Exp,3.0.7,59.83466485591335,
video/Experiment/zh_sp01_Ad_Ro_1_NoThetaInAudio_NoVideo.avi,noTheta,noVideo,sp01,Ad,Ro,1,2,4,flow/blocks/NoThetaInAudio_NoVideo_A.csv,,,,,,,,,0,2,2,2,0,16,16,8,,,,,,,,,-0.38472222222222224,0.31157407407407406,1,0,0,5.57907300000079,call1,0.027777777777777776,-0.11342592592592593,1,0,0,6.595220999995945,colour3,0.4050925925925926,0.30416666666666664,1,0,0,7.476244199991925,number1,True,True,True,43,3,2019_Nov_21_1405,MA_Theta_Exp,3.0.7,59.83466485591335,
video/Experiment/zh_sp01_Un_Ro_3_NoThetaInAudio_NoVideo.avi,noTheta,noVideo,sp01,Un,Ro,3,2,4,flow/blocks/NoThetaInAudio_NoVideo_A.csv,,,,,,,,,0,2,2,2,0,17,17,26,,,,,,,,,-0.41805555555555557,-0.08842592592592592,1,0,0,5.8176246999937575,call3,0.005092592592592593,-0.11666666666666667,1,0,0,6.618397699989146,colour3,0.37407407407407406,-0.15462962962962962,1,0,0,7.517510900011985,number3,False,True,True,43,3,2019_Nov_21_1405,MA_Theta_Exp,3.0.7,59.83466485591335,
video/Experiment/zh_sp07_Ad_We_2_NoThetaInAudio_NoVideo.avi,noTheta,noVideo,sp07,Ad,We,2,2,4,flow/blocks/NoThetaInAudio_NoVideo_A.csv,,,,,,,,,0,2,2,2,0,18,18,29,,,,,,,,,-0.37037037037037035,0.2865740740740741,1,0,0,4.8492574999982025,call1,0.005555555555555556,-0.27824074074074073,1,0,0,6.827362300013192,colour4,0.36435185185185187,0.07824074074074074,1,0,0,7.912777099991217,number2,True,True,True,43,3,2019_Nov_21_1405,MA_Theta_Exp,3.0.7,59.83466485591335,
video/Experiment/zh_sp01_Ad_Gr_1_NoThetaInAudio_NoVideo.avi,noTheta,noVideo,sp01,Ad,Gr,1,2,4,flow/blocks/NoThetaInAudio_NoVideo_A.csv,,,,,,,,,0,2,2,2,0,19,19,4,,,,,,,,,-0.3425925925925926,0.30277777777777776,1,0,0,5.869939500000328,call1,0.08518518518518518,0.07824074074074074,1,0,0,6.602537300001131,colour2,0.43333333333333335,0.30416666666666664,1,0,0,7.402615500002867,number1,True,True,True,43,3,2019_Nov_21_1405,MA_Theta_Exp,3.0.7,59.83466485591335,
video/Experiment/zh_sp07_Ti_Ge_4_NoThetaInAudio_NoVideo.avi,noTheta,noVideo,sp07,Ti,Ge,4,2,4,flow/blocks/NoThetaInAudio_NoVideo_A.csv,,,,,,,,,0,2,2,2,0,20,20,3,,,,,,,,,-0.35555555555555557,0.2708333333333333,1,0,0,8.208141400013119,call1,-0.03657407407407407,0.2412037037037037,1,0,0,9.817369599972153,colour1,0.3712962962962963,0.11851851851851852,1,0,0,10.783754499978386,number2,False,True,False,43,3,2019_Nov_21_1405,MA_Theta_Exp,3.0.7,59.83466485591335,
video/Experiment/zh_sp07_Ti_Ro_3_NoThetaInAudio_NoVideo.avi,noTheta,noVideo,sp07,Ti,Ro,3,2,4,flow/blocks/NoThetaInAudio_NoVideo_A.csv,,,,,,,,,0,2,2,2,0,21,21,10,,,,,,,,,-0.40694444444444444,-0.046296296296296294,1,0,0,4.755623000004562,call3,0.019444444444444445,-0.08333333333333333,1,0,0,5.423156400007429,colour3,0.32592592592592595,-0.07685185185185185,1,0,0,6.2044650000170805,number3,True,True,True,43,3,2019_Nov_21_1405,MA_Theta_Exp,3.0.7,59.83466485591335,
video/Experiment/zh_sp01_Ti_We_4_NoThetaInAudio_NoVideo.avi,noTheta,noVideo,sp01,Ti,We,4,2,4,flow/blocks/NoThetaInAudio_NoVideo_A.csv,,,,,,,,,0,2,2,2,0,22,22,31,,,,,,,,,-0.41759259259259257,-0.13472222222222222,1,0,0,5.5378101999813225,call3,0.010185185185185186,0.10740740740740741,1,0,0,7.050114699988626,colour2,0.4287037037037037,-0.2875,1,0,0,8.56407270001364,number4,True,False,True,43,3,2019_Nov_21_1405,MA_Theta_Exp,3.0.7,59.83466485591335,
video/Experiment/zh_sp07_Dr_Ro_4_NoThetaInAudio_NoVideo.avi,noTheta,noVideo,sp07,Dr,Ro,4,2,4,flow/blocks/NoThetaInAudio_NoVideo_A.csv,,,,,,,,,0,2,2,2,0,23,23,27,,,,,,,,,-0.3921296296296296,-0.2796296296296296,1,0,0,5.496518500003731,call4,-0.02638888888888889,0.2722222222222222,1,0,0,6.782450400001835,colour1,0.38935185185185184,-0.29398148148148145,1,0,0,8.335278500017012,number4,False,False,True,43,3,2019_Nov_21_1405,MA_Theta_Exp,3.0.7,59.83466485591335,
video/Experiment/zh_sp07_Dr_Gr_2_NoThetaInAudio_NoVideo.avi,noTheta,noVideo,sp07,Dr,Gr,2,2,4,flow/blocks/NoThetaInAudio_NoVideo_A.csv,,,,,,,,,0,2,2,2,0,24,24,5,,,,,,,,,-0.37777777777777777,0.07407407407407407,1,0,0,5.190037899999879,call2,-0.025925925925925925,0.13472222222222222,1,0,0,5.910073500010185,colour2,0.3527777777777778,0.10740740740740741,1,0,0,6.8712761999922805,number2,True,True,True,43,3,2019_Nov_21_1405,MA_Theta_Exp,3.0.7,59.83466485591335,
video/Experiment/zh_sp01_Ad_We_1_NoThetaInAudio_NoVideo.avi,noTheta,noVideo,sp01,Ad,We,1,2,4,flow/blocks/NoThetaInAudio_NoVideo_A.csv,,,,,,,,,0,2,2,2,0,25,25,12,,,,,,,,,-0.4305555555555556,0.31666666666666665,1,0,0,5.582075999991503,call1,0.017592592592592594,0.10324074074074074,1,0,0,6.295764999988023,colour2,0.4263888888888889,0.28194444444444444,1,0,0,6.99872219999088,number1,True,False,True,43,3,2019_Nov_21_1405,MA_Theta_Exp,3.0.7,59.83466485591335,
video/Experiment/zh_sp01_Ad_We_3_NoThetaInAudio_NoVideo.avi,noTheta,noVideo,sp01,Ad,We,3,2,4,flow/blocks/NoThetaInAudio_NoVideo_A.csv,,,,,,,,,0,2,2,2,0,26,26,30,,,,,,,,,-0.475462962962963,0.29398148148148145,1,0,0,5.684816100023454,call1,-0.04027777777777778,-0.33055555555555555,1,0,0,7.536866200010991,colour4,0.4212962962962963,-0.08101851851851852,1,0,0,8.585889399982989,number3,True,True,True,43,3,2019_Nov_21_1405,MA_Theta_Exp,3.0.7,59.83466485591335,
video/Experiment/zh_sp07_Ti_Ro_2_NoThetaInAudio_NoVideo.avi,noTheta,noVideo,sp07,Ti,Ro,2,2,4,flow/blocks/NoThetaInAudio_NoVideo_A.csv,,,,,,,,,0,2,2,2,0,27,27,25,,,,,,,,,-0.4074074074074074,-0.07407407407407407,1,0,0,5.824064100015676,call3,0.03148148148148148,-0.10787037037037037,1,0,0,7.3919379000144545,colour3,0.4115740740740741,0.3087962962962963,1,0,0,8.341079699981492,number1,True,True,False,43,3,2019_Nov_21_1405,MA_Theta_Exp,3.0.7,59.83466485591335,
video/Experiment/zh_sp01_Un_Gr_1_NoThetaInAudio_NoVideo.avi,noTheta,noVideo,sp01,Un,Gr,1,2,4,flow/blocks/NoThetaInAudio_NoVideo_A.csv,,,,,,,,,0,2,2,2,0,28,28,20,,,,,,,,,-0.3907407407407407,-0.25555555555555554,1,0,0,5.481994000001578,call4,-0.000925925925925926,0.17222222222222222,1,0,0,6.323701000015717,colour2,0.3925925925925926,0.3226851851851852,1,0,0,7.247296900022775,number1,True,True,True,43,3,2019_Nov_21_1405,MA_Theta_Exp,3.0.7,59.83466485591335,
video/Experiment/zh_sp07_Dr_Ge_1_NoThetaInAudio_NoVideo.avi,noTheta,noVideo,sp07,Dr,Ge,1,2,4,flow/blocks/NoThetaInAudio_NoVideo_A.csv,,,,,,,,,0,2,2,2,0,29,29,0,,,,,,,,,-0.3648148148148148,-0.25,1,0,0,4.8972119000100065,call4,0.047685185185185185,0.3194444444444444,1,0,0,7.045721700007562,colour1,0.3611111111111111,0.2601851851851852,1,0,0,7.929965999996057,number1,False,True,True,43,3,2019_Nov_21_1405,MA_Theta_Exp,3.0.7,59.83466485591335,
video/Experiment/zh_sp07_Un_Ge_3_NoThetaInAudio_NoVideo.avi,noTheta,noVideo,sp07,Un,Ge,3,2,4,flow/blocks/NoThetaInAudio_NoVideo_A.csv,,,,,,,,,0,2,2,2,0,30,30,2,,,,,,,,,-0.4101851851851852,-0.3226851851851852,1,0,0,5.92982839999604,call4,0.006481481481481481,0.29907407407407405,1,0,0,7.179442000022391,colour1,0.3837962962962963,-0.08148148148148149,1,0,0,8.046018299995922,number3,True,True,True,43,3,2019_Nov_21_1405,MA_Theta_Exp,3.0.7,59.83466485591335,
video/Experiment/zh_sp07_Ad_Ro_4_NoThetaInAudio_NoVideo.avi,noTheta,noVideo,sp07,Ad,Ro,4,2,4,flow/blocks/NoThetaInAudio_NoVideo_A.csv,,,,,,,,,0,2,2,2,0,31,31,11,,,,,,,,,-0.3472222222222222,0.27037037037037037,1,0,0,5.229975299997022,call1,0.04722222222222222,-0.062037037037037036,1,0,0,6.046203999983845,colour3,0.4476851851851852,-0.07222222222222222,1,0,0,6.767663500009803,number3,True,True,False,43,3,2019_Nov_21_1405,MA_Theta_Exp,3.0.7,59.83466485591335,
video/Experiment/zh_sp07_Un_Ge_1_NVocInAudio_NoVideo.avi,vocoded,noVideo,sp07,Un,Ge,1,3,2,flow/blocks/NVocInAudio_NoVideo_B.csv,,,,,,,,,0,3,3,3,0,0,0,0,,,,,,,,,-0.37962962962962965,-0.3347222222222222,1,0,0,6.56143920001341,call4,0.007407407407407408,-0.3375,1,0,0,8.263231100019766,colour4,0.35555555555555557,0.29444444444444445,1,0,0,9.295051999972202,number1,True,False,True,43,3,2019_Nov_21_1405,MA_Theta_Exp,3.0.7,59.83466485591335,
video/Experiment/zh_sp07_Dr_Ge_3_NVocInAudio_NoVideo.avi,vocoded,noVideo,sp07,Dr,Ge,3,3,2,flow/blocks/NVocInAudio_NoVideo_B.csv,,,,,,,,,0,3,3,3,0,1,1,2,,,,,,,,,-0.3439814814814815,0.08425925925925926,1,0,0,4.948814400006086,call2,0.011111111111111112,0.3578703703703704,1,0,0,6.0256106999877375,colour1,0.37962962962962965,-0.13472222222222222,1,0,0,7.531477900018217,number3,True,True,True,43,3,2019_Nov_21_1405,MA_Theta_Exp,3.0.7,59.83466485591335,
video/Experiment/zh_sp07_Ti_Ro_1_NVocInAudio_NoVideo.avi,vocoded,noVideo,sp07,Ti,Ro,1,3,2,flow/blocks/NVocInAudio_NoVideo_B.csv,,,,,,,,,0,3,3,3,0,2,2,8,,,,,,,,,-0.37916666666666665,-0.1398148148148148,1,0,0,4.980142999993404,call3,-0.006944444444444444,-0.10138888888888889,1,0,0,6.35674280000967,colour3,0.44583333333333336,0.30925925925925923,1,0,0,7.207225899997866,number1,True,True,True,43,3,2019_Nov_21_1405,MA_Theta_Exp,3.0.7,59.83466485591335,
video/Experiment/zh_sp01_Ti_We_1_NVocInAudio_NoVideo.avi,vocoded,noVideo,sp01,Ti,We,1,3,2,flow/blocks/NVocInAudio_NoVideo_B.csv,,,,,,,,,0,3,3,3,0,3,3,12,,,,,,,,,-0.3541666666666667,-0.02546296296296296,1,0,0,5.7510569999867585,call3,-0.011111111111111112,-0.3402777777777778,1,0,0,6.436449200002244,colour4,0.3685185185185185,0.31666666666666665,1,0,0,7.48729839999578,number1,True,True,True,43,3,2019_Nov_21_1405,MA_Theta_Exp,3.0.7,59.83466485591335,
video/Experiment/zh_sp01_Ti_Ro_4_NVocInAudio_NoVideo.avi,vocoded,noVideo,sp01,Ti,Ro,4,3,2,flow/blocks/NVocInAudio_NoVideo_B.csv,,,,,,,,,0,3,3,3,0,4,4,11,,,,,,,,,-0.48148148148148145,-0.10555555555555556,1,0,0,5.367390499974135,call3,0.019444444444444445,-0.10046296296296296,1,0,0,6.0374185999971814,colour3,0.3958333333333333,-0.26944444444444443,1,0,0,6.818430299987085,number4,True,True,True,43,3,2019_Nov_21_1405,MA_Theta_Exp,3.0.7,59.83466485591335,
video/Experiment/zh_sp01_Ti_Gr_3_NVocInAudio_NoVideo.avi,vocoded,noVideo,sp01,Ti,Gr,3,3,2,flow/blocks/NVocInAudio_NoVideo_B.csv,,,,,,,,,0,3,3,3,0,5,5,22,,,,,,,,,-0.33796296296296297,-0.15694444444444444,1,0,0,5.313017700013006,call3,0.018055555555555554,0.049074074074074076,1,0,0,6.0213088000018615,colour2,0.3851851851851852,-0.15185185185185185,1,0,0,7.418014900002163,number3,True,True,True,43,3,2019_Nov_21_1405,MA_Theta_Exp,3.0.7,59.83466485591335,
video/Experiment/zh_sp01_Un_Ge_4_NVocInAudio_NoVideo.avi,vocoded,noVideo,sp01,Un,Ge,4,3,2,flow/blocks/NVocInAudio_NoVideo_B.csv,,,,,,,,,0,3,3,3,0,6,6,19,,,,,,,,,-0.43657407407407406,-0.30277777777777776,1,0,0,5.178120600001421,call4,0.006481481481481481,0.25601851851851853,1,0,0,6.0281953000230715,colour1,0.399537037037037,-0.3138888888888889,1,0,0,6.796995799988508,number4,True,True,True,43,3,2019_Nov_21_1405,MA_Theta_Exp,3.0.7,59.83466485591335,
video/Experiment/zh_sp01_Un_We_2_NVocInAudio_NoVideo.avi,vocoded,noVideo,sp01,Un,We,2,3,2,flow/blocks/NVocInAudio_NoVideo_B.csv,,,,,,,,,0,3,3,3,0,7,7,13,,,,,,,,,-0.39537037037037037,-0.32314814814814813,1,0,0,5.642646799999056,call4,-0.05324074074074074,-0.2953703703703704,1,0,0,6.343147200008389,colour4,0.45185185185185184,0.10694444444444444,1,0,0,7.097784899990074,number2,True,True,True,43,3,2019_Nov_21_1405,MA_Theta_Exp,3.0.7,59.83466485591335,
video/Experiment/zh_sp07_Ad_We_4_NVocInAudio_NoVideo.avi,vocoded,noVideo,sp07,Ad,We,4,3,2,flow/blocks/NVocInAudio_NoVideo_B.csv,,,,,,,,,0,3,3,3,0,8,8,31,,,,,,,,,-0.3787037037037037,0.30092592592592593,1,0,0,5.067464399995515,call1,0.018518518518518517,-0.23055555555555557,1,0,0,6.266788599983556,colour4,0.4236111111111111,-0.29212962962962963,1,0,0,6.98809510000865,number4,True,True,True,43,3,2019_Nov_21_1405,MA_Theta_Exp,3.0.7,59.83466485591335,
video/Experiment/zh_sp01_Ad_Ge_2_NVocInAudio_NoVideo.avi,vocoded,noVideo,sp01,Ad,Ge,2,3,2,flow/blocks/NVocInAudio_NoVideo_B.csv,,,,,,,,,0,3,3,3,0,9,9,1,,,,,,,,,-0.4101851851851852,0.26157407407407407,1,0,0,5.281808700005058,call1,0.000462962962962963,0.3023148148148148,1,0,0,5.981838899984723,colour1,0.38287037037037036,0.06018518518518518,1,0,0,6.717016100010369,number2,True,True,True,43,3,2019_Nov_21_1405,MA_Theta_Exp,3.0.7,59.83466485591335,
video/Experiment/zh_sp07_Dr_We_4_NVocInAudio_NoVideo.avi,vocoded,noVideo,sp07,Dr,We,4,3,2,flow/blocks/NVocInAudio_NoVideo_B.csv,,,,,,,,,0,3,3,3,0,10,10,15,,,,,,,,,-0.3712962962962963,0.09675925925925925,1,0,0,5.1114560999849346,call2,0.04351851851851852,-0.3509259259259259,1,0,0,5.8361614999885205,colour4,0.42268518518518516,-0.3236111111111111,1,0,0,6.504818200017326,number4,True,True,True,43,3,2019_Nov_21_1405,MA_Theta_Exp,3.0.7,59.83466485591335,
video/Experiment/zh_sp07_Ti_We_2_NVocInAudio_NoVideo.avi,vocoded,noVideo,sp07,Ti,We,2,3,2,flow/blocks/NVocInAudio_NoVideo_B.csv,,,,,,,,,0,3,3,3,0,11,11,29,,,,,,,,,-0.37453703703703706,-0.12407407407407407,1,0,0,4.978416800004197,call3,-0.37453703703703706,-0.12407407407407407,1,0,0,5.165026000002399,colour4,0.4527777777777778,0.12638888888888888,1,0,0,6.811997100012377,number2,True,True,True,43,3,2019_Nov_21_1405,MA_Theta_Exp,3.0.7,59.83466485591335,
video/Experiment/zh_sp01_Dr_Gr_1_NVocInAudio_NoVideo.avi,vocoded,noVideo,sp01,Dr,Gr,1,3,2,flow/blocks/NVocInAudio_NoVideo_B.csv,,,,,,,,,0,3,3,3,0,12,12,20,,,,,,,,,-0.41759259259259257,0.11064814814814815,1,0,0,5.688761299999896,call2,-0.031018518518518518,0.07314814814814814,1,0,0,7.052809399989201,colour2,0.4060185185185185,0.2671296296296296,1,0,0,7.836216399999103,number1,True,True,True,43,3,2019_Nov_21_1405,MA_Theta_Exp,3.0.7,59.83466485591335,
video/Experiment/zh_sp07_Ti_Gr_2_NVocInAudio_NoVideo.avi,vocoded,noVideo,sp07,Ti,Gr,2,3,2,flow/blocks/NVocInAudio_NoVideo_B.csv,,,,,,,,,0,3,3,3,0,13,13,21,,,,,,,,,-0.40324074074074073,-0.10740740740740741,1,0,0,4.964507500000764,call3,-0.03009259259259259,0.11898148148148148,1,0,0,5.7788130000117235,colour2,0.4648148148148148,0.12916666666666668,1,0,0,6.511511099990457,number2,True,True,True,43,3,2019_Nov_21_1405,MA_Theta_Exp,3.0.7,59.83466485591335,
video/Experiment/zh_sp01_Un_Ro_4_NVocInAudio_NoVideo.avi,vocoded,noVideo,sp01,Un,Ro,4,3,2,flow/blocks/NVocInAudio_NoVideo_B.csv,,,,,,,,,0,3,3,3,0,14,14,27,,,,,,,,,-0.3773148148148148,-0.2763888888888889,1,0,0,5.848017999989679,call4,-0.01712962962962963,-0.07407407407407407,1,0,0,6.48557780002011,colour3,0.4546296296296296,-0.2828703703703704,1,0,0,7.389682700013509,number4,True,True,True,43,3,2019_Nov_21_1405,MA_Theta_Exp,3.0.7,59.83466485591335,
video/Experiment/zh_sp07_Ad_Gr_4_NVocInAudio_NoVideo.avi,vocoded,noVideo,sp07,Ad,Gr,4,3,2,flow/blocks/NVocInAudio_NoVideo_B.csv,,,,,,,,,0,3,3,3,0,15,15,7,,,,,,,,,-0.4300925925925926,0.325,1,0,0,5.131816400011303,call1,-0.09305555555555556,0.11805555555555555,1,0,0,5.94846540002618,colour2,0.4009259259259259,-0.2916666666666667,1,0,0,8.22219369999948,number4,True,True,True,43,3,2019_Nov_21_1405,MA_Theta_Exp,3.0.7,59.83466485591335,
video/Experiment/zh_sp07_Ad_Ge_3_NVocInAudio_NoVideo.avi,vocoded,noVideo,sp07,Ad,Ge,3,3,2,flow/blocks/NVocInAudio_NoVideo_B.csv,,,,,,,,,0,3,3,3,0,16,16,18,,,,,,,,,-0.37407407407407406,0.2625,1,0,0,4.969562699989183,call1,-0.028703703703703703,0.27546296296296297,1,0,0,5.602725000004284,colour1,0.3907407407407407,-0.15462962962962962,1,0,0,6.753147600014927,number3,True,True,True,43,3,2019_Nov_21_1405,MA_Theta_Exp,3.0.7,59.83466485591335,
video/Experiment/zh_sp07_Dr_Ro_3_NVocInAudio_NoVideo.avi,vocoded,noVideo,sp07,Dr,Ro,3,3,2,flow/blocks/NVocInAudio_NoVideo_B.csv,,,,,,,,,0,3,3,3,0,17,17,26,,,,,,,,,-0.4199074074074074,0.10833333333333334,1,0,0,4.912045399978524,call2,0.04490740740740741,-0.12916666666666668,1,0,0,5.610445800004527,colour3,0.3800925925925926,-0.11712962962962963,1,0,0,6.284581399988383,number3,True,True,True,43,3,2019_Nov_21_1405,MA_Theta_Exp,3.0.7,59.83466485591335,
video/Experiment/zh_sp01_Ti_Gr_1_NVocInAudio_NoVideo.avi,vocoded,noVideo,sp01,Ti,Gr,1,3,2,flow/blocks/NVocInAudio_NoVideo_B.csv,,,,,,,,,0,3,3,3,0,18,18,4,,,,,,,,,-0.39675925925925926,-0.1398148148148148,1,0,0,5.353222500008997,call3,0.000925925925925926,-0.1162037037037037,1,0,0,6.205200500000501,colour3,0.42592592592592593,0.3300925925925926,1,0,0,7.0717132999852765,number1,True,False,True,43,3,2019_Nov_21_1405,MA_Theta_Exp,3.0.7,59.83466485591335,
video/Experiment/zh_sp01_Un_Gr_2_NVocInAudio_NoVideo.avi,vocoded,noVideo,sp01,Un,Gr,2,3,2,flow/blocks/NVocInAudio_NoVideo_B.csv,,,,,,,,,0,3,3,3,0,19,19,5,,,,,,,,,-0.41759259259259257,-0.3143518518518518,1,0,0,5.707419899990782,call4,0.04027777777777778,0.08564814814814815,1,0,0,7.007703999988735,colour2,0.3476851851851852,0.0824074074074074,1,0,0,7.694802799989702,number2,True,True,True,43,3,2019_Nov_21_1405,MA_Theta_Exp,3.0.7,59.83466485591335,
video/Experiment/zh_sp07_Dr_Ro_1_NVocInAudio_NoVideo.avi,vocoded,noVideo,sp07,Dr,Ro,1,3,2,flow/blocks/NVocInAudio_NoVideo_B.csv,,,,,,,,,0,3,3,3,0,20,20,24,,,,,,,,,0.3476851851851852,0.0824074074074074,1,0,0,3.9124343000003137,call2,0.005092592592592593,-0.19398148148148148,1,0,0,5.883897899999283,colour3,0.4361111111111111,0.29398148148148145,1,0,0,7.2654487999971025,number1,True,True,True,43,3,2019_Nov_21_1405,MA_Theta_Exp,3.0.7,59.83466485591335,
video/Experiment/zh_sp01_Ad_Ge_4_NVocInAudio_NoVideo.avi,vocoded,noVideo,sp01,Ad,Ge,4,3,2,flow/blocks/NVocInAudio_NoVideo_B.csv,,,,,,,,,0,3,3,3,0,21,21,3,,,,,,,,,-0.4740740740740741,0.33240740740740743,1,0,0,5.508285699994303,call1,0.014351851851851852,0.32407407407407407,1,0,0,6.240549900016049,colour1,0.38796296296296295,-0.32731481481481484,0,0,1,7.240377099980833,number4,True,True,True,43,3,2019_Nov_21_1405,MA_Theta_Exp,3.0.7,59.83466485591335,
video/Experiment/zh_sp01_Un_Gr_4_NVocInAudio_NoVideo.avi,vocoded,noVideo,sp01,Un,Gr,4,3,2,flow/blocks/NVocInAudio_NoVideo_B.csv,,,,,,,,,0,3,3,3,0,22,22,23,,,,,,,,,-0.42777777777777776,-0.34305555555555556,1,0,0,5.495726199995261,call4,-0.04953703703703704,0.07222222222222222,1,0,0,6.32940509999753,colour2,0.45694444444444443,-0.30787037037037035,1,0,0,7.050352500024019,number4,True,True,True,43,3,2019_Nov_21_1405,MA_Theta_Exp,3.0.7,59.83466485591335,
video/Experiment/zh_sp07_Un_Ro_2_NVocInAudio_NoVideo.avi,vocoded,noVideo,sp07,Un,Ro,2,3,2,flow/blocks/NVocInAudio_NoVideo_B.csv,,,,,,,,,0,3,3,3,0,23,23,9,,,,,,,,,-0.3592592592592593,-0.274537037037037,1,0,0,4.684024099988164,call4,-0.010648148148148148,-0.10416666666666667,1,0,0,5.333699099981459,colour3,0.39444444444444443,0.10092592592592593,1,0,0,6.079788300005021,number2,True,True,True,43,3,2019_Nov_21_1405,MA_Theta_Exp,3.0.7,59.83466485591335,
video/Experiment/zh_sp07_Ad_Ro_2_NVocInAudio_NoVideo.avi,vocoded,noVideo,sp07,Ad,Ro,2,3,2,flow/blocks/NVocInAudio_NoVideo_B.csv,,,,,,,,,0,3,3,3,0,24,24,25,,,,,,,,,-0.45046296296296295,0.3212962962962963,1,0,0,4.9666430999932345,call1,0.004166666666666667,-0.1,1,0,0,5.7041936999885365,colour3,0.4550925925925926,0.11666666666666667,1,0,0,6.36733790001017,number2,True,True,True,43,3,2019_Nov_21_1405,MA_Theta_Exp,3.0.7,59.83466485591335,
video/Experiment/zh_sp01_Un_Gr_3_NVocInAudio_NoVideo.avi,vocoded,noVideo,sp01,Un,Gr,3,3,2,flow/blocks/NVocInAudio_NoVideo_B.csv,,,,,,,,,0,3,3,3,0,25,25,6,,,,,,,,,-0.36898148148148147,-0.28055555555555556,1,0,0,5.542495499976212,call4,0.03333333333333333,0.09444444444444444,1,0,0,6.294135999982245,colour2,0.3773148148148148,-0.08287037037037037,1,0,0,7.689804900001036,number3,True,True,True,43,3,2019_Nov_21_1405,MA_Theta_Exp,3.0.7,59.83466485591335,
video/Experiment/zh_sp01_Ad_Ro_3_NVocInAudio_NoVideo.avi,vocoded,noVideo,sp01,Ad,Ro,3,3,2,flow/blocks/NVocInAudio_NoVideo_B.csv,,,,,,,,,0,3,3,3,0,26,26,10,,,,,,,,,-0.4046296296296296,0.2902777777777778,1,0,0,5.250953799986746,call1,-0.015277777777777777,-0.15185185185185185,1,0,0,6.0899071999883745,colour3,0.4041666666666667,-0.10787037037037037,1,0,0,6.761636100010946,number3,True,True,True,43,3,2019_Nov_21_1405,MA_Theta_Exp,3.0.7,59.83466485591335,
video/Experiment/zh_sp01_Dr_We_3_NVocInAudio_NoVideo.avi,vocoded,noVideo,sp01,Dr,We,3,3,2,flow/blocks/NVocInAudio_NoVideo_B.csv,,,,,,,,,0,3,3,3,0,27,27,14,,,,,,,,,-0.35694444444444445,0.08796296296296297,1,0,0,5.50475330001791,call2,-0.021296296296296296,-0.2574074074074074,1,0,0,6.762685199995758,colour4,0.39166666666666666,-0.15231481481481482,1,0,0,7.683173099998385,number3,True,True,True,43,3,2019_Nov_21_1405,MA_Theta_Exp,3.0.7,59.83466485591335,
video/Experiment/zh_sp07_Dr_Ge_2_NVocInAudio_NoVideo.avi,vocoded,noVideo,sp07,Dr,Ge,2,3,2,flow/blocks/NVocInAudio_NoVideo_B.csv,,,,,,,,,0,3,3,3,0,28,28,17,,,,,,,,,-0.3768518518518518,0.08333333333333333,1,0,0,5.9448248999833595,call2,-0.024537037037037038,0.2865740740740741,1,0,0,6.858376299991505,colour1,0.3875,0.06759259259259259,1,0,0,8.090402800007723,number2,True,True,True,43,3,2019_Nov_21_1405,MA_Theta_Exp,3.0.7,59.83466485591335,
video/Experiment/zh_sp07_Dr_We_1_NVocInAudio_NoVideo.avi,vocoded,noVideo,sp07,Dr,We,1,3,2,flow/blocks/NVocInAudio_NoVideo_B.csv,,,,,,,,,0,3,3,3,0,29,29,28,,,,,,,,,-0.35509259259259257,0.08472222222222223,1,0,0,5.027327899995726,call2,0.06157407407407407,-0.3523148148148148,1,0,0,5.708318199991481,colour4,0.4236111111111111,0.31574074074074077,1,0,0,6.739302300004056,number1,True,True,True,43,3,2019_Nov_21_1405,MA_Theta_Exp,3.0.7,59.83466485591335,
video/Experiment/zh_sp07_Ti_We_3_NVocInAudio_NoVideo.avi,vocoded,noVideo,sp07,Ti,We,3,3,2,flow/blocks/NVocInAudio_NoVideo_B.csv,,,,,,,,,0,3,3,3,0,30,30,30,,,,,,,,,-0.36666666666666664,0.04351851851851852,1,0,0,6.913080600003013,call2,-0.03009259259259259,-0.350462962962963,0,0,1,7.8495775000192225,colour4,0.4152777777777778,-0.059722222222222225,1,0,0,9.579902900004527,number3,False,True,True,43,3,2019_Nov_21_1405,MA_Theta_Exp,3.0.7,59.83466485591335,
video/Experiment/zh_sp01_Ad_Ge_1_NVocInAudio_NoVideo.avi,vocoded,noVideo,sp01,Ad,Ge,1,3,2,flow/blocks/NVocInAudio_NoVideo_B.csv,,,,,,,,,0,3,3,3,0,31,31,16,,,,,,,,,-0.462037037037037,0.3314814814814815,1,0,0,5.3684431000147015,call1,-0.03657407407407407,0.33796296296296297,1,0,0,6.719325899990508,colour1,0.38333333333333336,0.33564814814814814,1,0,0,7.447866200003773,number1,True,True,True,43,3,2019_Nov_21_1405,MA_Theta_Exp,3.0.7,59.83466485591335,
video/Experiment/zh_sp07_Ad_We_3_NoThetaInAudio_GlobalThetaInVideo.avi,noTheta,plusVideo,sp07,Ad,We,3,4,3,flow/blocks/NoThetaInAudio_GlobalThetaInVideo_A.csv,,,,,,,,,0,4,4,4,0,0,0,30,,,,,,,,,0.38333333333333336,0.33564814814814814,1,0,0,4.0353926999960095,call1,-0.010648148148148148,-0.27824074074074073,1,0,0,6.663260700006504,colour4,0.39305555555555555,-0.1361111111111111,1,0,0,7.849914599995827,number3,True,True,True,43,3,2019_Nov_21_1405,MA_Theta_Exp,3.0.7,59.83466485591335,
video/Experiment/zh_sp01_Un_Gr_1_NoThetaInAudio_GlobalThetaInVideo.avi,noTheta,plusVideo,sp01,Un,Gr,1,4,3,flow/blocks/NoThetaInAudio_GlobalThetaInVideo_A.csv,,,,,,,,,0,4,4,4,0,1,1,20,,,,,,,,,-0.3365740740740741,-0.3125,1,0,0,5.156040899979416,call4,0.007407407407407408,0.11435185185185186,1,0,0,5.93969329999527,colour2,0.45694444444444443,0.3351851851851852,1,0,0,6.697088199987775,number1,True,True,True,43,3,2019_Nov_21_1405,MA_Theta_Exp,3.0.7,59.83466485591335,
video/Experiment/zh_sp07_Dr_Gr_2_NoThetaInAudio_GlobalThetaInVideo.avi,noTheta,plusVideo,sp07,Dr,Gr,2,4,3,flow/blocks/NoThetaInAudio_GlobalThetaInVideo_A.csv,,,,,,,,,0,4,4,4,0,2,2,5,,,,,,,,,-0.43472222222222223,-0.31203703703703706,1,0,0,4.657202000002144,call4,-0.027314814814814816,0.037037037037037035,1,0,0,5.4759104999830015,colour2,0.48703703703703705,0.11666666666666667,1,0,0,6.223070600011852,number2,False,True,True,43,3,2019_Nov_21_1405,MA_Theta_Exp,3.0.7,59.83466485591335,
video/Experiment/zh_sp07_Ti_Gr_4_NoThetaInAudio_GlobalThetaInVideo.avi,noTheta,plusVideo,sp07,Ti,Gr,4,4,3,flow/blocks/NoThetaInAudio_GlobalThetaInVideo_A.csv,,,,,,,,,0,4,4,4,0,3,3,7,,,,,,,,,-0.425462962962963,-0.06435185185185185,1,0,0,4.784069200017257,call3,-0.033796296296296297,0.07731481481481481,1,0,0,5.452290600020206,colour2,0.3888888888888889,-0.28703703703703703,1,0,0,6.961292799998773,number4,True,True,True,43,3,2019_Nov_21_1405,MA_Theta_Exp,3.0.7,59.83466485591335,
video/Experiment/zh_sp01_Dr_Ge_4_NoThetaInAudio_GlobalThetaInVideo.avi,noTheta,plusVideo,sp01,Dr,Ge,4,4,3,flow/blocks/NoThetaInAudio_GlobalThetaInVideo_A.csv,,,,,,,,,0,4,4,4,0,4,4,19,,,,,,,,,-0.44583333333333336,-0.3175925925925926,1,0,0,5.590003000019351,call4,-0.008796296296296297,0.2796296296296296,1,0,0,6.628702899994096,colour1,0.4152777777777778,-0.28703703703703703,1,0,0,7.977169999998296,number4,False,True,True,43,3,2019_Nov_21_1405,MA_Theta_Exp,3.0.7,59.83466485591335,
video/Experiment/zh_sp07_Un_Ge_3_NoThetaInAudio_GlobalThetaInVideo.avi,noTheta,plusVideo,sp07,Un,Ge,3,4,3,flow/blocks/NoThetaInAudio_GlobalThetaInVideo_A.csv,,,,,,,,,0,4,4,4,0,5,5,2,,,,,,,,,-0.3453703703703704,-0.3398148148148148,1,0,0,6.025247099983972,call4,0.03194444444444444,-0.12962962962962962,1,0,0,6.759935699985363,colour3,0.38935185185185184,-0.10416666666666667,1,0,0,7.521126200008439,number3,True,False,True,43,3,2019_Nov_21_1405,MA_Theta_Exp,3.0.7,59.83466485591335,
video/Experiment/zh_sp01_Un_We_1_NoThetaInAudio_GlobalThetaInVideo.avi,noTheta,plusVideo,sp01,Un,We,1,4,3,flow/blocks/NoThetaInAudio_GlobalThetaInVideo_A.csv,,,,,,,,,0,4,4,4,0,6,6,28,,,,,,,,,-0.3837962962962963,-0.3384259259259259,1,0,0,5.992858899990097,call4,0.03981481481481482,-0.29953703703703705,0,0,1,7.460882999992464,colour4,0.3861111111111111,0.3402777777777778,1,0,0,8.430259699991439,number1,True,True,True,43,3,2019_Nov_21_1405,MA_Theta_Exp,3.0.7,59.83466485591335,
video/Experiment/zh_sp07_Ad_Gr_1_NoThetaInAudio_GlobalThetaInVideo.avi,noTheta,plusVideo,sp07,Ad,Gr,1,4,3,flow/blocks/NoThetaInAudio_GlobalThetaInVideo_A.csv,,,,,,,,,0,4,4,4,0,7,7,4,,,,,,,,,-0.4351851851851852,0.3819444444444444,1,0,0,5.100299999990966,call1,0.027777777777777776,0.0712962962962963,1,0,0,5.996115699992515,colour2,0.38657407407407407,0.30833333333333335,1,0,0,6.846152999991318,number1,True,True,True,43,3,2019_Nov_21_1405,MA_Theta_Exp,3.0.7,59.83466485591335,
video/Experiment/zh_sp01_Dr_Gr_3_NoThetaInAudio_GlobalThetaInVideo.avi,noTheta,plusVideo,sp01,Dr,Gr,3,4,3,flow/blocks/NoThetaInAudio_GlobalThetaInVideo_A.csv,,,,,,,,,0,4,4,4,0,8,8,6,,,,,,,,,-0.37962962962962965,-0.3138888888888889,1,0,0,5.541036700014956,call4,-0.014351851851851852,0.08981481481481482,1,0,0,6.507857799995691,colour2,0.35694444444444445,-0.06944444444444445,1,0,0,8.606849999981932,number3,False,True,True,43,3,2019_Nov_21_1405,MA_Theta_Exp,3.0.7,59.83466485591335,
video/Experiment/zh_sp07_Dr_Ge_1_NoThetaInAudio_GlobalThetaInVideo.avi,noTheta,plusVideo,sp07,Dr,Ge,1,4,3,flow/blocks/NoThetaInAudio_GlobalThetaInVideo_A.csv,,,,,,,,,0,4,4,4,0,9,9,0,,,,,,,,,-0.35185185185185186,-0.3375,1,0,0,4.937860300007742,call4,0.047685185185185185,0.33935185185185185,1,0,0,5.936777700000675,colour1,0.4375,0.31805555555555554,0,0,1,6.737514399981592,number1,False,True,True,43,3,2019_Nov_21_1405,MA_Theta_Exp,3.0.7,59.83466485591335,
video/Experiment/zh_sp07_Un_Ge_2_NoThetaInAudio_GlobalThetaInVideo.avi,noTheta,plusVideo,sp07,Un,Ge,2,4,3,flow/blocks/NoThetaInAudio_GlobalThetaInVideo_A.csv,,,,,,,,,0,4,4,4,0,10,10,17,,,,,,,,,-0.40555555555555556,-0.32731481481481484,1,0,0,4.699270899989642,call4,0.05185185185185185,0.2949074074074074,1,0,0,5.4984542000165675,colour1,0.39675925925925926,0.07222222222222222,1,0,0,6.898106200009352,number2,True,True,True,43,3,2019_Nov_21_1405,MA_Theta_Exp,3.0.7,59.83466485591335,
video/Experiment/zh_sp01_Ti_Ge_1_NoThetaInAudio_GlobalThetaInVideo.avi,noTheta,plusVideo,sp01,Ti,Ge,1,4,3,flow/blocks/NoThetaInAudio_GlobalThetaInVideo_A.csv,,,,,,,,,0,4,4,4,0,11,11,16,,,,,,,,,-0.32731481481481484,-0.125,1,0,0,5.8793579999764916,call3,0.03657407407407407,0.3662037037037037,1,0,0,6.676284099987242,colour1,0.4078703703703704,0.3125,1,0,0,7.696074200008297,number1,True,True,True,43,3,2019_Nov_21_1405,MA_Theta_Exp,3.0.7,59.83466485591335,
video/Experiment/zh_sp01_Ad_We_1_NoThetaInAudio_GlobalThetaInVideo.avi,noTheta,plusVideo,sp01,Ad,We,1,4,3,flow/blocks/NoThetaInAudio_GlobalThetaInVideo_A.csv,,,,,,,,,0,4,4,4,0,12,12,12,,,,,,,,,-0.34444444444444444,0.3060185185185185,1,0,0,5.6501216999895405,call1,-0.04583333333333333,0.3375,1,0,0,6.342162499990081,colour1,0.362962962962963,0.33194444444444443,1,0,0,7.068644000013592,number1,True,False,True,43,3,2019_Nov_21_1405,MA_Theta_Exp,3.0.7,59.83466485591335,
video/Experiment/zh_sp01_Ad_Gr_3_NoThetaInAudio_GlobalThetaInVideo.avi,noTheta,plusVideo,sp01,Ad,Gr,3,4,3,flow/blocks/NoThetaInAudio_GlobalThetaInVideo_A.csv,,,,,,,,,0,4,4,4,0,13,13,22,,,,,,,,,-0.40370370370370373,0.2796296296296296,1,0,0,5.608951800008072,call1,0.027314814814814816,0.10648148148148148,1,0,0,6.277012000005925,colour2,0.45046296296296295,-0.12268518518518519,1,0,0,7.009048699983396,number3,True,True,True,43,3,2019_Nov_21_1405,MA_Theta_Exp,3.0.7,59.83466485591335,
video/Experiment/zh_sp07_Un_We_3_NoThetaInAudio_GlobalThetaInVideo.avi,noTheta,plusVideo,sp07,Un,We,3,4,3,flow/blocks/NoThetaInAudio_GlobalThetaInVideo_A.csv,,,,,,,,,0,4,4,4,0,14,14,14,,,,,,,,,-0.4013888888888889,-0.09490740740740741,1,0,0,5.439570199989248,call3,-0.000925925925925926,-0.3106481481481482,1,0,0,7.105527400010033,colour4,0.37592592592592594,-0.11944444444444445,1,0,0,8.075543300015852,number3,False,True,True,43,3,2019_Nov_21_1405,MA_Theta_Exp,3.0.7,59.83466485591335,
video/Experiment/zh_sp07_Un_We_4_NoThetaInAudio_GlobalThetaInVideo.avi,noTheta,plusVideo,sp07,Un,We,4,4,3,flow/blocks/NoThetaInAudio_GlobalThetaInVideo_A.csv,,,,,,,,,0,4,4,4,0,15,15,15,,,,,,,,,-0.5055555555555555,-0.29259259259259257,1,0,0,4.753293799993116,call4,0.04583333333333333,-0.28564814814814815,1,0,0,6.053101600002265,colour4,0.3578703703703704,-0.2847222222222222,1,0,0,6.80293070001062,number4,True,True,True,43,3,2019_Nov_21_1405,MA_Theta_Exp,3.0.7,59.83466485591335,
video/Experiment/zh_sp01_Ad_Ro_1_NoThetaInAudio_GlobalThetaInVideo.avi,noTheta,plusVideo,sp01,Ad,Ro,1,4,3,flow/blocks/NoThetaInAudio_GlobalThetaInVideo_A.csv,,,,,,,,,0,4,4,4,0,16,16,8,,,,,,,,,-0.39814814814814814,0.3277777777777778,1,0,0,5.49696380001842,call1,0.06157407407407407,-0.16574074074074074,1,0,0,6.310957300011069,colour3,0.42916666666666664,0.29444444444444445,1,0,0,7.182028400013223,number1,True,True,True,43,3,2019_Nov_21_1405,MA_Theta_Exp,3.0.7,59.83466485591335,
video/Experiment/zh_sp01_Ad_Ro_4_NoThetaInAudio_GlobalThetaInVideo.avi,noTheta,plusVideo,sp01,Ad,Ro,4,4,3,flow/blocks/NoThetaInAudio_GlobalThetaInVideo_A.csv,,,,,,,,,0,4,4,4,0,17,17,11,,,,,,,,,-0.3662037037037037,0.2740740740740741,1,0,0,5.7998504000133835,call1,0.016203703703703703,-0.15833333333333333,1,0,0,6.653621000004932,colour3,0.3625,-0.11712962962962963,1,0,0,7.417883100017207,number3,True,True,False,43,3,2019_Nov_21_1405,MA_Theta_Exp,3.0.7,59.83466485591335,
video/Experiment/zh_sp07_Dr_Ro_2_NoThetaInAudio_GlobalThetaInVideo.avi,noTheta,plusVideo,sp07,Dr,Ro,2,4,3,flow/blocks/NoThetaInAudio_GlobalThetaInVideo_A.csv,,,,,,,,,0,4,4,4,0,18,18,9,,,,,,,,,-0.40879629629629627,0.287962962962963,1,0,0,4.992470700002741,call1,-0.002777777777777778,-0.10462962962962963,1,0,0,5.807744299992919,colour3,0.4152777777777778,0.12731481481481483,1,0,0,7.675994899997022,number2,False,True,True,43,3,2019_Nov_21_1405,MA_Theta_Exp,3.0.7,59.83466485591335,
video/Experiment/zh_sp01_Un_Ro_3_NoThetaInAudio_GlobalThetaInVideo.avi,noTheta,plusVideo,sp01,Un,Ro,3,4,3,flow/blocks/NoThetaInAudio_GlobalThetaInVideo_A.csv,,,,,,,,,0,4,4,4,0,19,19,26,,,,,,,,,-0.3333333333333333,0.08842592592592592,1,0,0,6.553603499982273,call2,-0.000925925925925926,-0.052314814814814814,1,0,0,7.302896299981512,colour3,0.40370370370370373,-0.09351851851851851,1,0,0,8.537243900005706,number3,False,True,True,43,3,2019_Nov_21_1405,MA_Theta_Exp,3.0.7,59.83466485591335,
video/Experiment/zh_sp01_Dr_Ro_4_NoThetaInAudio_GlobalThetaInVideo.avi,noTheta,plusVideo,sp01,Dr,Ro,4,4,3,flow/blocks/NoThetaInAudio_GlobalThetaInVideo_A.csv,,,,,,,,,0,4,4,4,0,20,20,27,,,,,,,,,-0.3819444444444444,0.06666666666666667,1,0,0,6.00854260000051,call2,-0.011111111111111112,-0.10601851851851851,1,0,0,6.815011600003345,colour3,0.4425925925925926,-0.2791666666666667,1,0,0,7.599016099993605,number4,True,True,True,43,3,2019_Nov_21_1405,MA_Theta_Exp,3.0.7,59.83466485591335,
video/Experiment/zh_sp01_Ad_Gr_2_NoThetaInAudio_GlobalThetaInVideo.avi,noTheta,plusVideo,sp01,Ad,Gr,2,4,3,flow/blocks/NoThetaInAudio_GlobalThetaInVideo_A.csv,,,,,,,,,0,4,4,4,0,21,21,21,,,,,,,,,-0.3638888888888889,0.32916666666666666,1,0,0,5.730166900000768,call1,0.016666666666666666,0.12037037037037036,1,0,0,6.395879099989543,colour2,0.33425925925925926,0.1361111111111111,1,0,0,7.146863200003281,number2,True,True,True,43,3,2019_Nov_21_1405,MA_Theta_Exp,3.0.7,59.83466485591335,
video/Experiment/zh_sp07_Ti_Ge_2_NoThetaInAudio_GlobalThetaInVideo.avi,noTheta,plusVideo,sp07,Ti,Ge,2,4,3,flow/blocks/NoThetaInAudio_GlobalThetaInVideo_A.csv,,,,,,,,,0,4,4,4,0,22,22,1,,,,,,,,,-0.39537037037037037,-0.0824074074074074,1,0,0,5.124004500015872,call3,0.06018518518518518,0.375,1,0,0,5.947680699988268,colour1,0.3837962962962963,0.04861111111111111,1,0,0,6.834553299995605,number2,True,True,True,43,3,2019_Nov_21_1405,MA_Theta_Exp,3.0.7,59.83466485591335,
video/Experiment/zh_sp01_Ad_We_2_NoThetaInAudio_GlobalThetaInVideo.avi,noTheta,plusVideo,sp01,Ad,We,2,4,3,flow/blocks/NoThetaInAudio_GlobalThetaInVideo_A.csv,,,,,,,,,0,4,4,4,0,23,23,29,,,,,,,,,-0.42916666666666664,0.30092592592592593,1,0,0,5.4451350000163075,call1,0.01712962962962963,0.1648148148148148,1,0,0,6.140640199999325,colour2,0.47824074074074074,0.1050925925925926,1,0,0,6.911164799996186,number2,True,False,True,43,3,2019_Nov_21_1405,MA_Theta_Exp,3.0.7,59.83466485591335,
video/Experiment/zh_sp07_Dr_We_2_NoThetaInAudio_GlobalThetaInVideo.avi,noTheta,plusVideo,sp07,Dr,We,2,4,3,flow/blocks/NoThetaInAudio_GlobalThetaInVideo_A.csv,,,,,,,,,0,4,4,4,0,24,24,13,,,,,,,,,-0.38287037037037036,-0.2796296296296296,1,0,0,5.2097382999781985,call4,0.003703703703703704,-0.24953703703703703,1,0,0,5.870484499988379,colour4,0.38842592592592595,0.30972222222222223,1,0,0,6.6774570000125095,number1,False,True,False,43,3,2019_Nov_21_1405,MA_Theta_Exp,3.0.7,59.83466485591335,
video/Experiment/zh_sp07_Ti_Ge_3_NoThetaInAudio_GlobalThetaInVideo.avi,noTheta,plusVideo,sp07,Ti,Ge,3,4,3,flow/blocks/NoThetaInAudio_GlobalThetaInVideo_A.csv,,,,,,,,,0,4,4,4,0,25,25,18,,,,,,,,,-0.43842592592592594,-0.040740740740740744,1,0,0,4.873779799992917,call3,-0.013888888888888888,0.2949074074074074,1,0,0,5.609231300011743,colour1,0.3523148148148148,-0.09259259259259259,1,0,0,6.639379600004759,number3,True,True,True,43,3,2019_Nov_21_1405,MA_Theta_Exp,3.0.7,59.83466485591335,
video/Experiment/zh_sp01_Un_Ro_1_NoThetaInAudio_GlobalThetaInVideo.avi,noTheta,plusVideo,sp01,Un,Ro,1,4,3,flow/blocks/NoThetaInAudio_GlobalThetaInVideo_A.csv,,,,,,,,,0,4,4,4,0,26,26,24,,,,,,,,,-0.35185185185185186,-0.34814814814814815,1,0,0,5.73056969998288,call4,0.018518518518518517,0.03935185185185185,1,0,0,6.44599360000575,colour2,0.425,0.3189814814814815,1,0,0,7.20937260001665,number1,True,False,True,43,3,2019_Nov_21_1405,MA_Theta_Exp,3.0.7,59.83466485591335,
video/Experiment/zh_sp01_Ti_Ge_4_NoThetaInAudio_GlobalThetaInVideo.avi,noTheta,plusVideo,sp01,Ti,Ge,4,4,3,flow/blocks/NoThetaInAudio_GlobalThetaInVideo_A.csv,,,,,,,,,0,4,4,4,0,27,27,3,,,,,,,,,-0.3625,-0.06435185185185185,1,0,0,6.045128800004022,call3,0.022222222222222223,0.36898148148148147,1,0,0,6.809308900003089,colour1,0.4263888888888889,-0.25555555555555554,1,0,0,8.024923599994509,number4,True,True,True,43,3,2019_Nov_21_1405,MA_Theta_Exp,3.0.7,59.83466485591335,
video/Experiment/zh_sp07_Ti_Ro_3_NoThetaInAudio_GlobalThetaInVideo.avi,noTheta,plusVideo,sp07,Ti,Ro,3,4,3,flow/blocks/NoThetaInAudio_GlobalThetaInVideo_A.csv,,,,,,,,,0,4,4,4,0,28,28,10,,,,,,,,,-0.37453703703703706,-0.12314814814814815,1,0,0,4.721417199994903,call3,0.013888888888888888,0.3199074074074074,1,0,0,5.954124599986244,colour1,0.3907407407407407,-0.12129629629629629,1,0,0,7.254844100010814,number3,True,False,True,43,3,2019_Nov_21_1405,MA_Theta_Exp,3.0.7,59.83466485591335,
video/Experiment/zh_sp07_Dr_Gr_4_NoThetaInAudio_GlobalThetaInVideo.avi,noTheta,plusVideo,sp07,Dr,Gr,4,4,3,flow/blocks/NoThetaInAudio_GlobalThetaInVideo_A.csv,,,,,,,,,0,4,4,4,0,29,29,23,,,,,,,,,-0.33055555555555555,0.06666666666666667,1,0,0,5.013666900020326,call2,0.00787037037037037,0.15925925925925927,1,0,0,5.6959983999840915,colour2,0.44074074074074077,-0.08935185185185185,1,0,0,6.4631742000055965,number3,True,True,False,43,3,2019_Nov_21_1405,MA_Theta_Exp,3.0.7,59.83466485591335,
video/Experiment/zh_sp07_Ti_We_4_NoThetaInAudio_GlobalThetaInVideo.avi,noTheta,plusVideo,sp07,Ti,We,4,4,3,flow/blocks/NoThetaInAudio_GlobalThetaInVideo_A.csv,,,,,,,,,0,4,4,4,0,30,30,31,,,,,,,,,-0.3875,-0.1425925925925926,1,0,0,4.949609200004488,call3,-0.004629629629629629,0.10740740740740741,1,0,0,5.6327195999911055,colour2,0.43425925925925923,-0.3226851851851852,1,0,0,6.565086700022221,number4,True,False,True,43,3,2019_Nov_21_1405,MA_Theta_Exp,3.0.7,59.83466485591335,
video/Experiment/zh_sp01_Ti_Ro_2_NoThetaInAudio_GlobalThetaInVideo.avi,noTheta,plusVideo,sp01,Ti,Ro,2,4,3,flow/blocks/NoThetaInAudio_GlobalThetaInVideo_A.csv,,,,,,,,,0,4,4,4,0,31,31,25,,,,,,,,,-0.39490740740740743,-0.12314814814814815,1,0,0,5.991651999996975,call3,0.018518518518518517,0.12083333333333333,1,0,0,7.410881999996491,colour2,0.39351851851851855,0.1587962962962963,1,0,0,8.07398619997548,number2,True,False,True,43,3,2019_Nov_21_1405,MA_Theta_Exp,3.0.7,59.83466485591335,
video/Experiment/zh_sp01_Dr_Gr_1_GlobalTheta_NoVideo.avi,globalTheta,noVideo,sp01,Dr,Gr,1,0,5,flow/blocks/GlobalTheta_NoVideo_B.csv,,,,,,,,,,,,,,,,,0,0,0,0,0,0,0,20,-0.4023148148148148,-0.1037037037037037,1,0,0,6.572029100003419,call3,0.002777777777777778,0.28194444444444444,1,0,0,8.083031699992716,colour1,0.3800925925925926,0.3287037037037037,1,0,0,8.871239600004628,number1,False,False,True,43,3,2019_Nov_21_1405,MA_Theta_Exp,3.0.7,59.83466485591335,
video/Experiment/zh_sp07_Dr_Ro_1_GlobalTheta_NoVideo.avi,globalTheta,noVideo,sp07,Dr,Ro,1,0,5,flow/blocks/GlobalTheta_NoVideo_B.csv,,,,,,,,,,,,,,,,,0,0,0,0,0,1,1,24,-0.34444444444444444,0.09583333333333334,1,0,0,5.202003999991575,call2,0.008796296296296297,-0.05092592592592592,1,0,0,5.88153610000154,colour3,0.3527777777777778,0.3212962962962963,1,0,0,6.603989099996397,number1,True,True,True,43,3,2019_Nov_21_1405,MA_Theta_Exp,3.0.7,59.83466485591335,
video/Experiment/zh_sp07_Ti_Ro_4_GlobalTheta_NoVideo.avi,globalTheta,noVideo,sp07,Ti,Ro,4,0,5,flow/blocks/GlobalTheta_NoVideo_B.csv,,,,,,,,,,,,,,,,,0,0,0,0,0,2,2,11,-0.39675925925925926,-0.13148148148148148,1,0,0,5.2718237999943085,call3,0.03148148148148148,-0.02824074074074074,1,0,0,5.932875600003172,colour3,0.4083333333333333,-0.07824074074074074,1,0,0,6.602516299986746,number3,True,True,False,43,3,2019_Nov_21_1405,MA_Theta_Exp,3.0.7,59.83466485591335,
video/Experiment/zh_sp07_Ti_Gr_3_GlobalTheta_NoVideo.avi,globalTheta,noVideo,sp07,Ti,Gr,3,0,5,flow/blocks/GlobalTheta_NoVideo_B.csv,,,,,,,,,,,,,,,,,0,0,0,0,0,3,3,22,-0.3824074074074074,-0.05555555555555555,1,0,0,5.410325000004377,call3,-0.04583333333333333,0.11018518518518519,1,0,0,6.125592399999732,colour2,0.36898148148148147,-0.11296296296296296,1,0,0,6.891869899991434,number3,True,True,True,43,3,2019_Nov_21_1405,MA_Theta_Exp,3.0.7,59.83466485591335,
video/Experiment/zh_sp01_Ad_Gr_4_GlobalTheta_NoVideo.avi,globalTheta,noVideo,sp01,Ad,Gr,4,0,5,flow/blocks/GlobalTheta_NoVideo_B.csv,,,,,,,,,,,,,,,,,0,0,0,0,0,4,4,7,-0.39861111111111114,0.28888888888888886,1,0,0,6.24831650001579,call1,0.02824074074074074,-0.12685185185185185,1,0,0,7.027379000006476,colour3,0.4217592592592593,-0.262037037037037,1,0,0,8.009963700023945,number4,True,False,True,43,3,2019_Nov_21_1405,MA_Theta_Exp,3.0.7,59.83466485591335,
video/Experiment/zh_sp07_Ti_We_2_GlobalTheta_NoVideo.avi,globalTheta,noVideo,sp07,Ti,We,2,0,5,flow/blocks/GlobalTheta_NoVideo_B.csv,,,,,,,,,,,,,,,,,0,0,0,0,0,5,5,29,-0.3763888888888889,-0.07962962962962963,1,0,0,5.180589099996723,call3,0.016666666666666666,0.15,1,0,0,5.8930380000092555,colour2,0.44166666666666665,0.11388888888888889,1,0,0,6.641739500017138,number2,True,False,True,43,3,2019_Nov_21_1405,MA_Theta_Exp,3.0.7,59.83466485591335,
video/Experiment/zh_sp01_Ad_Ge_3_GlobalTheta_NoVideo.avi,globalTheta,noVideo,sp01,Ad,Ge,3,0,5,flow/blocks/GlobalTheta_NoVideo_B.csv,,,,,,,,,,,,,,,,,0,0,0,0,0,6,6,18,-0.4009259259259259,0.3111111111111111,1,0,0,5.166501600004267,call1,0.044444444444444446,-0.06944444444444445,1,0,0,6.155866299988702,colour3,0.4356481481481482,-0.05694444444444444,1,0,0,7.217039500013925,number3,True,False,True,43,3,2019_Nov_21_1405,MA_Theta_Exp,3.0.7,59.83466485591335,
video/Experiment/zh_sp01_Un_Gr_4_GlobalTheta_NoVideo.avi,globalTheta,noVideo,sp01,Un,Gr,4,0,5,flow/blocks/GlobalTheta_NoVideo_B.csv,,,,,,,,,,,,,,,,,0,0,0,0,0,7,7,23,-0.37546296296296294,-0.11527777777777778,1,0,0,5.360721200006083,call3,-0.04675925925925926,0.09074074074074075,1,0,0,6.054900099989027,colour2,0.3472222222222222,-0.2800925925925926,1,0,0,7.105254399997648,number4,False,True,True,43,3,2019_Nov_21_1405,MA_Theta_Exp,3.0.7,59.83466485591335,
video/Experiment/zh_sp01_Un_Gr_3_GlobalTheta_NoVideo.avi,globalTheta,noVideo,sp01,Un,Gr,3,0,5,flow/blocks/GlobalTheta_NoVideo_B.csv,,,,,,,,,,,,,,,,,0,0,0,0,0,8,8,6,-0.3611111111111111,-0.12361111111111112,1,0,0,5.612573299993528,call3,0.04537037037037037,0.13796296296296295,1,0,0,6.294896100007463,colour2,0.4217592592592593,-0.09768518518518518,1,0,0,7.060714599996572,number3,False,True,True,43,3,2019_Nov_21_1405,MA_Theta_Exp,3.0.7,59.83466485591335,
video/Experiment/zh_sp07_Ti_Ro_1_GlobalTheta_NoVideo.avi,globalTheta,noVideo,sp07,Ti,Ro,1,0,5,flow/blocks/GlobalTheta_NoVideo_B.csv,,,,,,,,,,,,,,,,,0,0,0,0,0,9,9,8,-0.33240740740740743,-0.13703703703703704,1,0,0,5.718986599997152,call3,-0.02175925925925926,-0.058333333333333334,1,0,0,6.604810799995903,colour3,0.3726851851851852,0.3263888888888889,1,0,0,7.605299200018635,number1,True,True,True,43,3,2019_Nov_21_1405,MA_Theta_Exp,3.0.7,59.83466485591335,
video/Experiment/zh_sp01_Ti_We_1_GlobalTheta_NoVideo.avi,globalTheta,noVideo,sp01,Ti,We,1,0,5,flow/blocks/GlobalTheta_NoVideo_B.csv,,,,,,,,,,,,,,,,,0,0,0,0,0,10,10,12,-0.38657407407407407,-0.10694444444444444,1,0,0,5.8672112000058405,call3,-0.07037037037037037,-0.06759259259259259,1,0,0,6.651617800001986,colour3,0.38333333333333336,0.32916666666666666,1,0,0,7.517550899996422,number1,True,False,True,43,3,2019_Nov_21_1405,MA_Theta_Exp,3.0.7,59.83466485591335,
video/Experiment/zh_sp01_Ad_Ro_3_GlobalTheta_NoVideo.avi,globalTheta,noVideo,sp01,Ad,Ro,3,0,5,flow/blocks/GlobalTheta_NoVideo_B.csv,,,,,,,,,,,,,,,,,0,0,0,0,0,11,11,10,-0.3921296296296296,0.3050925925925926,1,0,0,6.638280099985423,call1,-0.016666666666666666,0.32685185185185184,1,0,0,7.404870700003812,colour1,0.37175925925925923,-0.05787037037037037,1,0,0,8.559167900006287,number3,True,False,True,43,3,2019_Nov_21_1405,MA_Theta_Exp,3.0.7,59.83466485591335,
video/Experiment/zh_sp01_Un_Ge_1_GlobalTheta_NoVideo.avi,globalTheta,noVideo,sp01,Un,Ge,1,0,5,flow/blocks/GlobalTheta_NoVideo_B.csv,,,,,,,,,,,,,,,,,0,0,0,0,0,12,12,0,-0.3337962962962963,0.08842592592592592,1,0,0,7.715141499997117,call2,0.006944444444444444,0.0912037037037037,1,0,0,9.033133099990664,colour2,0.39537037037037037,0.32037037037037036,1,0,0,10.034029200003715,number1,False,False,True,43,3,2019_Nov_21_1405,MA_Theta_Exp,3.0.7,59.83466485591335,
video/Experiment/zh_sp07_Un_Gr_2_GlobalTheta_NoVideo.avi,globalTheta,noVideo,sp07,Un,Gr,2,0,5,flow/blocks/GlobalTheta_NoVideo_B.csv,,,,,,,,,,,,,,,,,0,0,0,0,0,13,13,5,-0.35324074074074074,0.32546296296296295,1,0,0,6.179386399977375,call1,0.11527777777777778,0.05787037037037037,1,0,0,6.896563899994362,colour2,0.4486111111111111,0.28703703703703703,1,0,0,8.128272100002505,number1,False,True,False,43,3,2019_Nov_21_1405,MA_Theta_Exp,3.0.7,59.83466485591335,
video/Experiment/zh_sp01_Un_Ro_2_GlobalTheta_NoVideo.avi,globalTheta,noVideo,sp01,Un,Ro,2,0,5,flow/blocks/GlobalTheta_NoVideo_B.csv,,,,,,,,,,,,,,,,,0,0,0,0,0,14,14,9,-0.36898148148148147,-0.30092592592592593,1,0,0,5.39620219997596,call4,-0.0060185185185185185,-0.11018518518518519,1,0,0,6.068588699999964,colour3,0.4185185185185185,0.08796296296296297,1,0,0,6.788548099983018,number2,True,True,True,43,3,2019_Nov_21_1405,MA_Theta_Exp,3.0.7,59.83466485591335,
video/Experiment/zh_sp07_Dr_Ro_3_GlobalTheta_NoVideo.avi,globalTheta,noVideo,sp07,Dr,Ro,3,0,5,flow/blocks/GlobalTheta_NoVideo_B.csv,,,,,,,,,,,,,,,,,0,0,0,0,0,15,15,26,-0.37592592592592594,-0.34675925925925927,1,0,0,5.236122600006638,call4,-0.024074074074074074,0.07083333333333333,1,0,0,5.94771629999741,colour2,0.425462962962963,-0.10324074074074074,1,0,0,7.215455099998508,number3,False,False,True,43,3,2019_Nov_21_1405,MA_Theta_Exp,3.0.7,59.83466485591335,
video/Experiment/zh_sp07_Un_Ge_4_GlobalTheta_NoVideo.avi,globalTheta,noVideo,sp07,Un,Ge,4,0,5,flow/blocks/GlobalTheta_NoVideo_B.csv,,,,,,,,,,,,,,,,,0,0,0,0,0,16,16,19,-0.35185185185185186,-0.30694444444444446,1,0,0,5.337599099992076,call4,-0.009259259259259259,0.07962962962962963,1,0,0,6.177692600002047,colour2,0.3476851851851852,-0.3685185185185185,1,0,0,6.887309400015511,number4,True,False,True,43,3,2019_Nov_21_1405,MA_Theta_Exp,3.0.7,59.83466485591335,
video/Experiment/zh_sp07_Ad_Ro_2_GlobalTheta_NoVideo.avi,globalTheta,noVideo,sp07,Ad,Ro,2,0,5,flow/blocks/GlobalTheta_NoVideo_B.csv,,,,,,,,,,,,,,,,,0,0,0,0,0,17,17,25,-0.3888888888888889,0.324537037037037,1,0,0,5.335652099980507,call1,-0.014814814814814815,-0.06296296296296296,1,0,0,6.250793499988504,colour3,0.3277777777777778,0.08333333333333333,1,0,0,7.734201399987796,number2,True,True,True,43,3,2019_Nov_21_1405,MA_Theta_Exp,3.0.7,59.83466485591335,
video/Experiment/zh_sp07_Dr_We_4_GlobalTheta_NoVideo.avi,globalTheta,noVideo,sp07,Dr,We,4,0,5,flow/blocks/GlobalTheta_NoVideo_B.csv,,,,,,,,,,,,,,,,,0,0,0,0,0,18,18,15,-0.41898148148148145,0.2777777777777778,1,0,0,6.183941199997207,call1,0.03425925925925926,0.11203703703703703,1,0,0,6.849657000013394,colour2,0.4740740740740741,-0.11527777777777778,1,0,0,7.688154000003124,number3,False,False,False,43,3,2019_Nov_21_1405,MA_Theta_Exp,3.0.7,59.83466485591335,
video/Experiment/zh_sp01_Ad_We_4_GlobalTheta_NoVideo.avi,globalTheta,noVideo,sp01,Ad,We,4,0,5,flow/blocks/GlobalTheta_NoVideo_B.csv,,,,,,,,,,,,,,,,,0,0,0,0,0,19,19,31,-0.3282407407407407,0.25092592592592594,1,0,0,5.890293700009352,call1,0.011574074074074073,-0.11527777777777778,1,0,0,6.775741799996467,colour3,0.3912037037037037,-0.3731481481481482,1,0,0,7.611017200018978,number4,True,False,True,43,3,2019_Nov_21_1405,MA_Theta_Exp,3.0.7,59.83466485591335,
video/Experiment/zh_sp07_Ti_We_3_GlobalTheta_NoVideo.avi,globalTheta,noVideo,sp07,Ti,We,3,0,5,flow/blocks/GlobalTheta_NoVideo_B.csv,,,,,,,,,,,,,,,,,0,0,0,0,0,20,20,30,-0.3662037037037037,-0.10694444444444444,1,0,0,5.236013000016101,call3,0.001851851851851852,0.29259259259259257,1,0,0,6.169758099975297,colour1,0.3921296296296296,-0.0412037037037037,1,0,0,7.122953299985966,number3,True,False,True,43,3,2019_Nov_21_1405,MA_Theta_Exp,3.0.7,59.83466485591335,
video/Experiment/zh_sp07_Dr_Ge_3_GlobalTheta_NoVideo.avi,globalTheta,noVideo,sp07,Dr,Ge,3,0,5,flow/blocks/GlobalTheta_NoVideo_B.csv,,,,,,,,,,,,,,,,,0,0,0,0,0,21,21,2,-0.40324074074074073,0.24537037037037038,1,0,0,5.8152451000059955,call1,-0.015277777777777777,0.2657407407407407,1,0,0,6.549162100011017,colour1,0.36157407407407405,-0.07685185185185185,1,0,0,7.614502499985974,number3,False,True,True,43,3,2019_Nov_21_1405,MA_Theta_Exp,3.0.7,59.83466485591335,
video/Experiment/zh_sp01_Un_Ro_4_GlobalTheta_NoVideo.avi,globalTheta,noVideo,sp01,Un,Ro,4,0,5,flow/blocks/GlobalTheta_NoVideo_B.csv,,,,,,,,,,,,,,,,,0,0,0,0,0,22,22,27,-0.39305555555555555,-0.10648148148148148,1,0,0,6.248393200017745,call3,-0.07453703703703704,-0.10601851851851851,1,0,0,6.909736100002192,colour3,0.36574074074074076,-0.3055555555555556,1,0,0,7.747369999997318,number4,False,True,True,43,3,2019_Nov_21_1405,MA_Theta_Exp,3.0.7,59.83466485591335,
video/Experiment/zh_sp01_Ti_Gr_2_GlobalTheta_NoVideo.avi,globalTheta,noVideo,sp01,Ti,Gr,2,0,5,flow/blocks/GlobalTheta_NoVideo_B.csv,,,,,,,,,,,,,,,,,0,0,0,0,0,23,23,21,-0.40324074074074073,-0.1398148148148148,1,0,0,5.370691199990688,call3,-0.014351851851851852,-0.09907407407407408,1,0,0,6.051711099979002,colour3,0.3712962962962963,0.09907407407407408,1,0,0,6.834767799999099,number2,True,False,True,43,3,2019_Nov_21_1405,MA_Theta_Exp,3.0.7,59.83466485591335,
video/Experiment/zh_sp07_Dr_We_3_GlobalTheta_NoVideo.avi,globalTheta,noVideo,sp07,Dr,We,3,0,5,flow/blocks/GlobalTheta_NoVideo_B.csv,,,,,,,,,,,,,,,,,0,0,0,0,0,24,24,14,,,,,,,,,,,,,,,,,,,,,,NO_ANSW,NO_ANSW,NO_ANSW,43,3,2019_Nov_21_1405,MA_Theta_Exp,3.0.7,59.83466485591335,
video/Experiment/zh_sp01_Un_We_2_GlobalTheta_NoVideo.avi,globalTheta,noVideo,sp01,Un,We,2,0,5,flow/blocks/GlobalTheta_NoVideo_B.csv,,,,,,,,,,,,,,,,,0,0,0,0,0,25,25,13,-0.3990740740740741,-0.2671296296296296,1,0,0,5.2792176000075415,call4,0.04583333333333333,-0.27037037037037037,1,0,0,5.961762200022349,colour4,0.3680555555555556,0.11296296296296296,1,0,0,6.725084999983665,number2,True,True,True,43,3,2019_Nov_21_1405,MA_Theta_Exp,3.0.7,59.83466485591335,
video/Experiment/zh_sp07_Ti_Gr_1_GlobalTheta_NoVideo.avi,globalTheta,noVideo,sp07,Ti,Gr,1,0,5,flow/blocks/GlobalTheta_NoVideo_B.csv,,,,,,,,,,,,,,,,,0,0,0,0,0,26,26,4,-0.3680555555555556,-0.07222222222222222,1,0,0,6.077721700014081,call3,0.019444444444444445,-0.09166666666666666,1,0,0,6.9439810999901965,colour3,0.3875,0.22824074074074074,1,0,0,7.776912900008028,number1,True,False,True,43,3,2019_Nov_21_1405,MA_Theta_Exp,3.0.7,59.83466485591335,
video/Experiment/zh_sp07_Dr_Ge_2_GlobalTheta_NoVideo.avi,globalTheta,noVideo,sp07,Dr,Ge,2,0,5,flow/blocks/GlobalTheta_NoVideo_B.csv,,,,,,,,,,,,,,,,,0,0,0,0,0,27,27,17,-0.32731481481481484,0.33796296296296297,1,0,0,5.30968869998469,call1,0.012962962962962963,-0.2912037037037037,1,0,0,6.33773050000309,colour4,0.37777777777777777,0.2490740740740741,1,0,0,7.210711399995489,number1,False,False,False,43,3,2019_Nov_21_1405,MA_Theta_Exp,3.0.7,59.83466485591335,
video/Experiment/zh_sp01_Dr_We_1_GlobalTheta_NoVideo.avi,globalTheta,noVideo,sp01,Dr,We,1,0,5,flow/blocks/GlobalTheta_NoVideo_B.csv,,,,,,,,,,,,,,,,,0,0,0,0,0,28,28,28,-0.3875,0.29398148148148145,0,0,1,7.28135070001008,call1,-0.04351851851851852,-0.3050925925925926,1,0,0,8.380296699993778,colour4,0.4152777777777778,0.2824074074074074,1,0,0,9.463006899983156,number1,False,True,True,43,3,2019_Nov_21_1405,MA_Theta_Exp,3.0.7,59.83466485591335,
video/Experiment/zh_sp07_Ad_Ge_2_GlobalTheta_NoVideo.avi,globalTheta,noVideo,sp07,Ad,Ge,2,0,5,flow/blocks/GlobalTheta_NoVideo_B.csv,,,,,,,,,,,,,,,,,0,0,0,0,0,29,29,1,-0.3597222222222222,0.3314814814814815,1,0,0,4.798792300018249,call1,0.024537037037037038,0.30833333333333335,1,0,0,5.430867900024168,colour1,0.40925925925925927,0.1111111111111111,1,0,0,6.165693699993426,number2,True,True,True,43,3,2019_Nov_21_1405,MA_Theta_Exp,3.0.7,59.83466485591335,
video/Experiment/zh_sp01_Ad_Ge_4_GlobalTheta_NoVideo.avi,globalTheta,noVideo,sp01,Ad,Ge,4,0,5,flow/blocks/GlobalTheta_NoVideo_B.csv,,,,,,,,,,,,,,,,,0,0,0,0,0,30,30,3,-0.3648148148148148,0.26481481481481484,1,0,0,5.877485100005288,call1,0.006944444444444444,0.3050925925925926,1,0,0,6.663972900016233,colour1,0.4050925925925926,-0.2796296296296296,1,0,0,7.79643890002626,number4,True,True,True,43,3,2019_Nov_21_1405,MA_Theta_Exp,3.0.7,59.83466485591335,
video/Experiment/zh_sp01_Ad_Ge_1_GlobalTheta_NoVideo.avi,globalTheta,noVideo,sp01,Ad,Ge,1,0,5,flow/blocks/GlobalTheta_NoVideo_B.csv,,,,,,,,,,,,,,,,,0,0,0,0,0,31,31,16,-0.36435185185185187,0.2796296296296296,1,0,0,5.7472008999902755,call1,-0.031018518518518518,0.3023148148148148,1,0,0,6.962720899988199,colour1,0.4078703703703704,0.32314814814814813,1,0,0,7.711001099989517,number1,True,True,True,43,3,2019_Nov_21_1405,MA_Theta_Exp,3.0.7,59.83466485591335,
video/Experiment/zh_sp01_Un_Gr_1_NoThetaInAudio_GlobalThetaInVideo.avi,noTheta,plusVideo,sp01,Un,Gr,1,1,3,flow/blocks/NoThetaInAudio_GlobalThetaInVideo_A.csv,,,,,,,,,,,,,,,,,0,1,1,1,0,0,0,20,-0.42407407407407405,-0.09953703703703703,1,0,0,6.13272270001471,call3,0.018055555555555554,0.27824074074074073,1,0,0,7.678219599998556,colour1,0.4310185185185185,0.2986111111111111,1,0,0,8.362658199999714,number1,False,False,True,43,3,2019_Nov_21_1405,MA_Theta_Exp,3.0.7,59.83466485591335,
video/Experiment/zh_sp01_Ad_Gr_3_NoThetaInAudio_GlobalThetaInVideo.avi,noTheta,plusVideo,sp01,Ad,Gr,3,1,3,flow/blocks/NoThetaInAudio_GlobalThetaInVideo_A.csv,,,,,,,,,,,,,,,,,0,1,1,1,0,1,1,22,-0.36574074074074076,0.2671296296296296,1,0,0,5.6960671999841,call1,-0.026851851851851852,0.08796296296296297,1,0,0,6.8787109999975655,colour2,0.42268518518518516,-0.10416666666666667,1,0,0,7.598264400003245,number3,True,True,True,43,3,2019_Nov_21_1405,MA_Theta_Exp,3.0.7,59.83466485591335,
video/Experiment/zh_sp07_Ad_Gr_1_NoThetaInAudio_GlobalThetaInVideo.avi,noTheta,plusVideo,sp07,Ad,Gr,1,1,3,flow/blocks/NoThetaInAudio_GlobalThetaInVideo_A.csv,,,,,,,,,,,,,,,,,0,1,1,1,0,2,2,4,-0.40046296296296297,0.2740740740740741,1,0,0,4.967378800007282,call1,0.004629629629629629,0.09861111111111111,1,0,0,5.703872300015064,colour2,0.3861111111111111,0.362962962962963,1,0,0,6.781755300005898,number1,True,True,True,43,3,2019_Nov_21_1405,MA_Theta_Exp,3.0.7,59.83466485591335,
video/Experiment/zh_sp07_Dr_Gr_2_NoThetaInAudio_GlobalThetaInVideo.avi,noTheta,plusVideo,sp07,Dr,Gr,2,1,3,flow/blocks/NoThetaInAudio_GlobalThetaInVideo_A.csv,,,,,,,,,,,,,,,,,0,1,1,1,0,3,3,5,-0.3578703703703704,0.04537037037037037,1,0,0,4.930557399988174,call2,0.053703703703703705,0.13287037037037036,1,0,0,5.5422521000145935,colour2,0.41805555555555557,0.14953703703703702,1,0,0,6.1689274000236765,number2,True,True,True,43,3,2019_Nov_21_1405,MA_Theta_Exp,3.0.7,59.83466485591335,
video/Experiment/zh_sp01_Un_Ro_3_NoThetaInAudio_GlobalThetaInVideo.avi,noTheta,plusVideo,sp01,Un,Ro,3,1,3,flow/blocks/NoThetaInAudio_GlobalThetaInVideo_A.csv,,,,,,,,,,,,,,,,,0,1,1,1,0,4,4,26,-0.3597222222222222,0.06666666666666667,1,0,0,5.294020000001183,call2,0.016666666666666666,-0.07731481481481481,1,0,0,5.942840300005628,colour3,0.4101851851851852,-0.10925925925925926,1,0,0,6.642056400014553,number3,False,True,True,43,3,2019_Nov_21_1405,MA_Theta_Exp,3.0.7,59.83466485591335,
video/Experiment/zh_sp07_Un_Ge_3_NoThetaInAudio_GlobalThetaInVideo.avi,noTheta,plusVideo,sp07,Un,Ge,3,1,3,flow/blocks/NoThetaInAudio_GlobalThetaInVideo_A.csv,,,,,,,,,,,,,,,,,0,1,1,1,0,5,5,2,-0.3648148148148148,-0.2847222222222222,1,0,0,4.418373099993914,call4,-0.3648148148148148,-0.2847222222222222,1,0,0,4.704381299990928,colour1,0.4,-0.09583333333333334,1,0,0,7.017212200007634,number3,True,True,True,43,3,2019_Nov_21_1405,MA_Theta_Exp,3.0.7,59.83466485591335,
video/Experiment/zh_sp01_Ad_We_2_NoThetaInAudio_GlobalThetaInVideo.avi,noTheta,plusVideo,sp01,Ad,We,2,1,3,flow/blocks/NoThetaInAudio_GlobalThetaInVideo_A.csv,,,,,,,,,,,,,,,,,0,1,1,1,0,6,6,29,-0.3976851851851852,0.2967592592592593,1,0,0,5.859389899997041,call1,0.027777777777777776,-0.3055555555555556,1,0,0,6.612842100003036,colour4,0.40694444444444444,0.03981481481481482,1,0,0,7.431136100000003,number2,True,True,True,43,3,2019_Nov_21_1405,MA_Theta_Exp,3.0.7,59.83466485591335,
video/Experiment/zh_sp07_Un_We_4_NoThetaInAudio_GlobalThetaInVideo.avi,noTheta,plusVideo,sp07,Un,We,4,1,3,flow/blocks/NoThetaInAudio_GlobalThetaInVideo_A.csv,,,,,,,,,,,,,,,,,0,1,1,1,0,7,7,15,-0.375,-0.29814814814814816,1,0,0,5.067379999993136,call4,-0.03518518518518519,-0.2935185185185185,1,0,0,5.7519533000013325,colour4,0.40324074074074073,-0.30185185185185187,1,0,0,6.465411899989704,number4,True,True,True,43,3,2019_Nov_21_1405,MA_Theta_Exp,3.0.7,59.83466485591335,
video/Experiment/zh_sp01_Un_We_1_NoThetaInAudio_GlobalThetaInVideo.avi,noTheta,plusVideo,sp01,Un,We,1,1,3,flow/blocks/NoThetaInAudio_GlobalThetaInVideo_A.csv,,,,,,,,,,,,,,,,,0,1,1,1,0,8,8,28,-0.4212962962962963,-0.3101851851851852,1,0,0,5.2595625999965705,call4,-0.0587962962962963,-0.2912037037037037,1,0,0,5.896676200005459,colour4,0.4027777777777778,0.25324074074074077,1,0,0,6.793048899999121,number1,True,True,True,43,3,2019_Nov_21_1405,MA_Theta_Exp,3.0.7,59.83466485591335,
video/Experiment/zh_sp01_Dr_Gr_3_NoThetaInAudio_GlobalThetaInVideo.avi,noTheta,plusVideo,sp01,Dr,Gr,3,1,3,flow/blocks/NoThetaInAudio_GlobalThetaInVideo_A.csv,,,,,,,,,,,,,,,,,0,1,1,1,0,9,9,6,-0.3560185185185185,-0.31851851851851853,1,0,0,5.518918000016129,call4,0.0060185185185185185,-0.06712962962962964,1,0,0,6.237787899997784,colour3,0.41064814814814815,-0.03425925925925926,1,0,0,7.074240599991754,number3,False,False,True,43,3,2019_Nov_21_1405,MA_Theta_Exp,3.0.7,59.83466485591335,
video/Experiment/zh_sp07_Dr_Ge_1_NoThetaInAudio_GlobalThetaInVideo.avi,noTheta,plusVideo,sp07,Dr,Ge,1,1,3,flow/blocks/NoThetaInAudio_GlobalThetaInVideo_A.csv,,,,,,,,,,,,,,,,,0,1,1,1,0,10,10,0,-0.2953703703703704,-0.27314814814814814,1,0,0,4.723301999998512,call4,0.022222222222222223,-0.1537037037037037,1,0,0,6.139846599980956,colour3,0.3888888888888889,0.27546296296296297,1,0,0,7.038968400011072,number1,False,False,True,43,3,2019_Nov_21_1405,MA_Theta_Exp,3.0.7,59.83466485591335,
video/Experiment/zh_sp07_Ad_We_3_NoThetaInAudio_GlobalThetaInVideo.avi,noTheta,plusVideo,sp07,Ad,We,3,1,3,flow/blocks/NoThetaInAudio_GlobalThetaInVideo_A.csv,,,,,,,,,,,,,,,,,0,1,1,1,0,11,11,30,-0.3509259259259259,0.22916666666666666,1,0,0,4.814792799996212,call1,-0.006481481481481481,-0.2884259259259259,1,0,0,5.983145500009414,colour4,0.3763888888888889,-0.1388888888888889,1,0,0,6.727358899981482,number3,True,True,True,43,3,2019_Nov_21_1405,MA_Theta_Exp,3.0.7,59.83466485591335,
video/Experiment/zh_sp01_Ad_Ro_1_NoThetaInAudio_GlobalThetaInVideo.avi,noTheta,plusVideo,sp01,Ad,Ro,1,1,3,flow/blocks/NoThetaInAudio_GlobalThetaInVideo_A.csv,,,,,,,,,,,,,,,,,0,1,1,1,0,12,12,8,-0.38935185185185184,0.27361111111111114,1,0,0,6.081352400011383,call1,0.01712962962962963,-0.06620370370370371,1,0,0,6.9278801000036765,colour3,0.35555555555555557,0.31342592592592594,1,0,0,7.935902299999725,number1,True,True,True,43,3,2019_Nov_21_1405,MA_Theta_Exp,3.0.7,59.83466485591335,
