videoFile,condition,video,speaker,callSign,colour,number,seq,id,block,exp.thisRepN,exp.thisTrialN,exp.thisN,exp.thisIndex,training.thisRepN,training.thisTrialN,training.thisN,training.thisIndex,firstHalf.thisRepN,firstHalf.thisTrialN,firstHalf.thisN,firstHalf.thisIndex,blocksA.thisRepN,blocksA.thisTrialN,blocksA.thisN,blocksA.thisIndex,secondHalf.thisRepN,secondHalf.thisTrialN,secondHalf.thisN,secondHalf.thisIndex,blocksB.thisRepN,blocksB.thisTrialN,blocksB.thisN,blocksB.thisIndex,mouseClickOnCall.x,mouseClickOnCall.y,mouseClickOnCall.leftButton,mouseClickOnCall.midButton,mouseClickOnCall.rightButton,mouseClickOnCall.time,mouseClickOnCall.clicked_name,mouseClickOnColour.x,mouseClickOnColour.y,mouseClickOnColour.leftButton,mouseClickOnColour.midButton,mouseClickOnColour.rightButton,mouseClickOnColour.time,mouseClickOnColour.clicked_name,mouseClickOnNumber.x,mouseClickOnNumber.y,mouseClickOnNumber.leftButton,mouseClickOnNumber.midButton,mouseClickOnNumber.rightButton,mouseClickOnNumber.time,mouseClickOnNumber.clicked_name,callSignCorrect,colourCorrect,numberCorrect,participant,order,date,expName,psychopyVersion,frameRate,
video/Training/zh_sp01_Ad_We_4_NVocInAudio_NoVideo.avi,vocoded,noVideo,sp01,Ad,We,4,,,,,,,,0,0,0,0,,,,,,,,,,,,,,,,,-0.38657407407407407,0.33055555555555555,1,0,0,5.498006100009661,call1,0.037037037037037035,-0.30972222222222223,1,0,0,6.5659421000164,colour4,0.387037037037037,-0.3416666666666667,1,0,0,7.680980799981626,number4,True,True,True,44,4,2019_Nov_21_1510,MA_Theta_Exp,3.0.7,59.78737218526582,
video/Training/zh_sp07_Ad_Ge_3_NVocInAudio_NoVideo.avi,vocoded,noVideo,sp07,Ad,Ge,3,,,,,,,,0,1,1,1,,,,,,,,,,,,,,,,,-0.44212962962962965,0.33194444444444443,1,0,0,5.135729400004493,call1,0.010648148148148148,0.2861111111111111,1,0,0,5.9899594000016805,colour1,0.48564814814814816,-0.1388888888888889,1,0,0,7.006246800010558,number3,True,True,True,44,4,2019_Nov_21_1510,MA_Theta_Exp,3.0.7,59.78737218526582,
video/Training/zh_sp01_Dr_Ro_3_NVocInAudio_GlobalThetaInVideo.avi,vocoded,plusVideo,sp01,Dr,Ro,3,,,,,,,,0,2,2,2,,,,,,,,,,,,,,,,,-0.3962962962962963,0.06666666666666667,1,0,0,5.777078899991466,call2,0.06898148148148148,0.3111111111111111,1,0,0,7.593662100000074,colour1,0.4009259259259259,-0.13055555555555556,1,0,0,8.477629500004696,number3,True,False,True,44,4,2019_Nov_21_1510,MA_Theta_Exp,3.0.7,59.78737218526582,
video/Training/zh_sp07_Dr_Gr_4_NVocInAudio_GlobalThetaInVideo.avi,vocoded,plusVideo,sp07,Dr,Gr,4,,,,,,,,0,3,3,3,,,,,,,,,,,,,,,,,-0.4074074074074074,0.13333333333333333,1,0,0,4.601008900004672,call2,0.024537037037037038,0.10555555555555556,1,0,0,5.25109400000656,colour2,0.4064814814814815,-0.2861111111111111,1,0,0,6.034312800009502,number4,True,True,True,44,4,2019_Nov_21_1510,MA_Theta_Exp,3.0.7,59.78737218526582,
video/Training/zh_sp01_Ti_Gr_2_NoThetaInAudio_NoVideo.avi,noTheta,noVideo,sp01,Ti,Gr,2,,,,,,,,0,4,4,4,,,,,,,,,,,,,,,,,-0.05462962962962963,0.07083333333333333,1,0,0,5.55411479997565,call2,0.006481481481481481,0.125,1,0,0,9.986222799983807,colour2,0.38425925925925924,0.09861111111111111,1,0,0,10.636417600006098,number2,False,True,True,44,4,2019_Nov_21_1510,MA_Theta_Exp,3.0.7,59.78737218526582,
video/Training/zh_sp07_Ti_Ro_1_NoThetaInAudio_NoVideo.avi,noTheta,noVideo,sp07,Ti,Ro,1,,,,,,,,0,5,5,5,,,,,,,,,,,,,,,,,-0.4324074074074074,-0.07777777777777778,1,0,0,4.756126599997515,call3,-0.010185185185185186,-0.075,1,0,0,5.6619911000016145,colour3,0.4064814814814815,0.30694444444444446,1,0,0,6.489757200004533,number1,True,True,True,44,4,2019_Nov_21_1510,MA_Theta_Exp,3.0.7,59.78737218526582,
video/Training/zh_sp01_Un_Ge_1_NoThetaInAudio_GlobalThetaInVideo.avi,noTheta,plusVideo,sp01,Un,Ge,1,,,,,,,,0,6,6,6,,,,,,,,,,,,,,,,,-0.35324074074074074,-0.32222222222222224,1,0,0,5.3557980999758,call4,-0.04212962962962963,0.31805555555555554,1,0,0,6.252917999983765,colour1,0.43703703703703706,0.26666666666666666,1,0,0,7.121111100015696,number1,True,True,True,44,4,2019_Nov_21_1510,MA_Theta_Exp,3.0.7,59.78737218526582,
video/Training/zh_sp07_Un_We_2_NoThetaInAudio_GlobalThetaInVideo.avi,noTheta,plusVideo,sp07,Un,We,2,,,,,,,,0,7,7,7,,,,,,,,,,,,,,,,,-0.40185185185185185,-0.29444444444444445,1,0,0,5.392221999994945,call4,0.00787037037037037,-0.29444444444444445,1,0,0,5.992226200003643,colour4,0.41064814814814815,0.1111111111111111,1,0,0,7.025327300012577,number2,True,True,True,44,4,2019_Nov_21_1510,MA_Theta_Exp,3.0.7,59.78737218526582,
video/Training/zh_sp01_Ad_Ge_1_GlobalTheta_NoVideo.avi,globalTheta,noVideo,sp01,Ad,Ge,1,,,,,,,,0,8,8,8,,,,,,,,,,,,,,,,,-0.45046296296296295,0.32222222222222224,1,0,0,6.214312500000233,call1,-0.021296296296296296,0.275,1,0,0,6.714124299993273,colour1,0.399537037037037,0.2916666666666667,1,0,0,7.214147600025171,number1,True,True,True,44,4,2019_Nov_21_1510,MA_Theta_Exp,3.0.7,59.78737218526582,
video/Training/zh_sp07_Ad_Ro_3_GlobalTheta_NoVideo.avi,globalTheta,noVideo,sp07,Ad,Ro,3,,,,,,,,0,9,9,9,,,,,,,,,,,,,,,,,-0.4310185185185185,0.3402777777777778,1,0,0,4.383989499998279,call1,-0.010185185185185186,-0.14166666666666666,1,0,0,5.117635000002338,colour3,0.4537037037037037,-0.06944444444444445,1,0,0,5.633757299976423,number3,True,True,True,44,4,2019_Nov_21_1510,MA_Theta_Exp,3.0.7,59.78737218526582,
video/Experiment/zh_sp07_Ti_Ge_3_NVocInAudio_GlobalThetaInVideo.avi,vocoded,plusVideo,sp07,Ti,Ge,3,0,1,flow/blocks/NVocInAudio_GlobalThetaInVideo_A.csv,,,,,,,,,0,0,0,0,0,0,0,18,,,,,,,,,-0.37962962962962965,-0.13472222222222222,1,0,0,5.345823099982226,call3,-0.056018518518518516,0.26944444444444443,1,0,0,6.697248499986017,colour1,0.3773148148148148,-0.14166666666666666,1,0,0,7.761719000001904,number3,True,True,True,44,4,2019_Nov_21_1510,MA_Theta_Exp,3.0.7,59.78737218526582,
video/Experiment/zh_sp01_Un_We_4_NVocInAudio_GlobalThetaInVideo.avi,vocoded,plusVideo,sp01,Un,We,4,0,1,flow/blocks/NVocInAudio_GlobalThetaInVideo_A.csv,,,,,,,,,0,0,0,0,0,1,1,15,,,,,,,,,-0.3851851851851852,-0.2791666666666667,1,0,0,4.974154700001236,call4,0.052314814814814814,-0.31527777777777777,1,0,0,5.607221000012942,colour4,0.3814814814814815,-0.2972222222222222,1,0,0,6.207398100028513,number4,True,True,True,44,4,2019_Nov_21_1510,MA_Theta_Exp,3.0.7,59.78737218526582,
video/Experiment/zh_sp01_Ti_Ro_3_NVocInAudio_GlobalThetaInVideo.avi,vocoded,plusVideo,sp01,Ti,Ro,3,0,1,flow/blocks/NVocInAudio_GlobalThetaInVideo_A.csv,,,,,,,,,0,0,0,0,0,2,2,10,,,,,,,,,-0.38101851851851853,-0.1,1,0,0,5.611202500003856,call3,-0.046296296296296294,-0.09305555555555556,1,0,0,7.144057299999986,colour3,0.34814814814814815,-0.12083333333333333,1,0,0,7.960836300015217,number3,True,True,True,44,4,2019_Nov_21_1510,MA_Theta_Exp,3.0.7,59.78737218526582,
video/Experiment/zh_sp01_Un_Ro_1_NVocInAudio_GlobalThetaInVideo.avi,vocoded,plusVideo,sp01,Un,Ro,1,0,1,flow/blocks/NVocInAudio_GlobalThetaInVideo_A.csv,,,,,,,,,0,0,0,0,0,3,3,24,,,,,,,,,-0.46574074074074073,-0.3458333333333333,1,0,0,5.429043699987233,call4,0.06481481481481481,-0.05,1,0,0,6.1291492999880575,colour3,0.47175925925925927,0.31666666666666665,1,0,0,6.9122583999997005,number1,True,True,True,44,4,2019_Nov_21_1510,MA_Theta_Exp,3.0.7,59.78737218526582,
video/Experiment/zh_sp01_Un_Gr_1_NVocInAudio_GlobalThetaInVideo.avi,vocoded,plusVideo,sp01,Un,Gr,1,0,1,flow/blocks/NVocInAudio_GlobalThetaInVideo_A.csv,,,,,,,,,0,0,0,0,0,4,4,20,,,,,,,,,-0.39490740740740743,-0.2986111111111111,1,0,0,5.213196099997731,call4,0.012037037037037037,0.13194444444444445,1,0,0,5.912866700004088,colour2,0.39814814814814814,0.36666666666666664,1,0,0,6.496431200008374,number1,True,True,True,44,4,2019_Nov_21_1510,MA_Theta_Exp,3.0.7,59.78737218526582,
video/Experiment/zh_sp07_Dr_Gr_2_NVocInAudio_GlobalThetaInVideo.avi,vocoded,plusVideo,sp07,Dr,Gr,2,0,1,flow/blocks/NVocInAudio_GlobalThetaInVideo_A.csv,,,,,,,,,0,0,0,0,0,5,5,5,,,,,,,,,-0.38796296296296295,0.09305555555555556,1,0,0,4.72699900000589,call2,0.009259259259259259,0.09166666666666666,1,0,0,5.240588399989065,colour2,0.39814814814814814,0.08055555555555556,1,0,0,5.723594900016906,number2,True,True,True,44,4,2019_Nov_21_1510,MA_Theta_Exp,3.0.7,59.78737218526582,
video/Experiment/zh_sp01_Ti_Ro_2_NVocInAudio_GlobalThetaInVideo.avi,vocoded,plusVideo,sp01,Ti,Ro,2,0,1,flow/blocks/NVocInAudio_GlobalThetaInVideo_A.csv,,,,,,,,,0,0,0,0,0,6,6,25,,,,,,,,,-0.40185185185185185,-0.08888888888888889,1,0,0,5.316710399987642,call3,-0.04351851851851852,-0.08888888888888889,1,0,0,5.766482000006363,colour3,0.4162037037037037,0.07777777777777778,1,0,0,6.300568000006024,number2,True,True,True,44,4,2019_Nov_21_1510,MA_Theta_Exp,3.0.7,59.78737218526582,
video/Experiment/zh_sp01_Ad_Gr_2_NVocInAudio_GlobalThetaInVideo.avi,vocoded,plusVideo,sp01,Ad,Gr,2,0,1,flow/blocks/NVocInAudio_GlobalThetaInVideo_A.csv,,,,,,,,,0,0,0,0,0,7,7,21,,,,,,,,,-0.33796296296296297,0.31666666666666665,1,0,0,5.189169899997069,call1,0.05787037037037037,0.07222222222222222,1,0,0,5.955180899996776,colour2,0.462037037037037,0.07777777777777778,1,0,0,6.505913000000874,number2,True,True,True,44,4,2019_Nov_21_1510,MA_Theta_Exp,3.0.7,59.78737218526582,
video/Experiment/zh_sp01_Ad_We_3_NVocInAudio_GlobalThetaInVideo.avi,vocoded,plusVideo,sp01,Ad,We,3,0,1,flow/blocks/NVocInAudio_GlobalThetaInVideo_A.csv,,,,,,,,,0,0,0,0,0,8,8,30,,,,,,,,,-0.4152777777777778,0.25833333333333336,1,0,0,5.029382300010184,call1,0.06527777777777778,-0.30694444444444446,1,0,0,5.67966960000922,colour4,0.4125,-0.09722222222222222,1,0,0,6.212178700021468,number3,True,True,True,44,4,2019_Nov_21_1510,MA_Theta_Exp,3.0.7,59.78737218526582,
video/Experiment/zh_sp07_Ti_Ge_4_NVocInAudio_GlobalThetaInVideo.avi,vocoded,plusVideo,sp07,Ti,Ge,4,0,1,flow/blocks/NVocInAudio_GlobalThetaInVideo_A.csv,,,,,,,,,0,0,0,0,0,9,9,3,,,,,,,,,-0.4166666666666667,-0.11527777777777778,1,0,0,4.478526599996258,call3,0.018055555555555554,0.325,1,0,0,5.127837299980456,colour1,0.3736111111111111,-0.29444444444444445,1,0,0,6.127854799997294,number4,True,True,True,44,4,2019_Nov_21_1510,MA_Theta_Exp,3.0.7,59.78737218526582,
video/Experiment/zh_sp01_Un_We_3_NVocInAudio_GlobalThetaInVideo.avi,vocoded,plusVideo,sp01,Un,We,3,0,1,flow/blocks/NVocInAudio_GlobalThetaInVideo_A.csv,,,,,,,,,0,0,0,0,0,10,10,14,,,,,,,,,-0.3611111111111111,-0.3277777777777778,1,0,0,4.927721999993082,call4,0.05416666666666667,-0.3486111111111111,1,0,0,5.594058599992422,colour4,0.44305555555555554,-0.11527777777777778,1,0,0,6.094316600007005,number3,True,True,True,44,4,2019_Nov_21_1510,MA_Theta_Exp,3.0.7,59.78737218526582,
video/Experiment/zh_sp07_Un_We_1_NVocInAudio_GlobalThetaInVideo.avi,vocoded,plusVideo,sp07,Un,We,1,0,1,flow/blocks/NVocInAudio_GlobalThetaInVideo_A.csv,,,,,,,,,0,0,0,0,0,11,11,28,,,,,,,,,-0.3472222222222222,-0.3458333333333333,1,0,0,4.403236100013601,call4,0.020833333333333332,-0.3416666666666667,1,0,0,4.953280399990035,colour4,0.3763888888888889,0.2972222222222222,1,0,0,5.670370999985607,number1,True,True,True,44,4,2019_Nov_21_1510,MA_Theta_Exp,3.0.7,59.78737218526582,
video/Experiment/zh_sp01_Dr_We_2_NVocInAudio_GlobalThetaInVideo.avi,vocoded,plusVideo,sp01,Dr,We,2,0,1,flow/blocks/NVocInAudio_GlobalThetaInVideo_A.csv,,,,,,,,,0,0,0,0,0,12,12,13,,,,,,,,,-0.3416666666666667,0.10277777777777777,1,0,0,5.275838799978374,call2,-0.025,-0.33194444444444443,1,0,0,5.857559399999445,colour4,0.39305555555555555,0.10833333333333334,1,0,0,6.607708299998194,number2,True,True,True,44,4,2019_Nov_21_1510,MA_Theta_Exp,3.0.7,59.78737218526582,
video/Experiment/zh_sp07_Dr_Ro_4_NVocInAudio_GlobalThetaInVideo.avi,vocoded,plusVideo,sp07,Dr,Ro,4,0,1,flow/blocks/NVocInAudio_GlobalThetaInVideo_A.csv,,,,,,,,,0,0,0,0,0,13,13,27,,,,,,,,,-0.39444444444444443,0.02638888888888889,1,0,0,4.564822999993339,call2,0.0375,-0.16805555555555557,1,0,0,5.112404500017874,colour3,0.46805555555555556,-0.33611111111111114,1,0,0,5.64602049998939,number4,True,True,True,44,4,2019_Nov_21_1510,MA_Theta_Exp,3.0.7,59.78737218526582,
video/Experiment/zh_sp07_Ti_Ge_1_NVocInAudio_GlobalThetaInVideo.avi,vocoded,plusVideo,sp07,Ti,Ge,1,0,1,flow/blocks/NVocInAudio_GlobalThetaInVideo_A.csv,,,,,,,,,0,0,0,0,0,14,14,16,,,,,,,,,-0.4083333333333333,-0.13055555555555556,1,0,0,4.333858900004998,call3,-0.018055555555555554,0.3,1,0,0,5.0665549999976065,colour1,0.425,0.2722222222222222,1,0,0,5.766373999998905,number1,True,True,True,44,4,2019_Nov_21_1510,MA_Theta_Exp,3.0.7,59.78737218526582,
video/Experiment/zh_sp07_Un_Ge_2_NVocInAudio_GlobalThetaInVideo.avi,vocoded,plusVideo,sp07,Un,Ge,2,0,1,flow/blocks/NVocInAudio_GlobalThetaInVideo_A.csv,,,,,,,,,0,0,0,0,0,15,15,17,,,,,,,,,-0.4097222222222222,-0.32083333333333336,1,0,0,4.384996500011766,call4,-0.03194444444444444,0.2972222222222222,1,0,0,5.115652100008447,colour1,0.4041666666666667,0.0625,1,0,0,5.765540199994575,number2,True,True,True,44,4,2019_Nov_21_1510,MA_Theta_Exp,3.0.7,59.78737218526582,
video/Experiment/zh_sp07_Ad_Gr_1_NVocInAudio_GlobalThetaInVideo.avi,vocoded,plusVideo,sp07,Ad,Gr,1,0,1,flow/blocks/NVocInAudio_GlobalThetaInVideo_A.csv,,,,,,,,,0,0,0,0,0,16,16,4,,,,,,,,,-0.4222222222222222,0.3111111111111111,1,0,0,4.719052000000374,call1,-0.05138888888888889,0.09861111111111111,1,0,0,5.199470499996096,colour2,0.3861111111111111,0.3333333333333333,1,0,0,5.749244800012093,number1,True,True,True,44,4,2019_Nov_21_1510,MA_Theta_Exp,3.0.7,59.78737218526582,
video/Experiment/zh_sp07_Dr_Gr_3_NVocInAudio_GlobalThetaInVideo.avi,vocoded,plusVideo,sp07,Dr,Gr,3,0,1,flow/blocks/NVocInAudio_GlobalThetaInVideo_A.csv,,,,,,,,,0,0,0,0,0,17,17,6,,,,,,,,,-0.42083333333333334,0.07777777777777778,1,0,0,4.504118699987885,call2,-0.009722222222222222,0.07083333333333333,1,0,0,5.053824900009204,colour2,0.39166666666666666,-0.11944444444444445,1,0,0,5.621382300014375,number3,True,True,True,44,4,2019_Nov_21_1510,MA_Theta_Exp,3.0.7,59.78737218526582,
video/Experiment/zh_sp07_Un_Ge_3_NVocInAudio_GlobalThetaInVideo.avi,vocoded,plusVideo,sp07,Un,Ge,3,0,1,flow/blocks/NVocInAudio_GlobalThetaInVideo_A.csv,,,,,,,,,0,0,0,0,0,18,18,2,,,,,,,,,-0.39444444444444443,-0.275,1,0,0,4.369607700005872,call4,-0.015277777777777777,0.325,1,0,0,5.041279899975052,colour1,0.3902777777777778,-0.10972222222222222,1,0,0,5.7537980999914,number3,True,True,True,44,4,2019_Nov_21_1510,MA_Theta_Exp,3.0.7,59.78737218526582,
video/Experiment/zh_sp07_Dr_Gr_4_NVocInAudio_GlobalThetaInVideo.avi,vocoded,plusVideo,sp07,Dr,Gr,4,0,1,flow/blocks/NVocInAudio_GlobalThetaInVideo_A.csv,,,,,,,,,0,0,0,0,0,19,19,23,,,,,,,,,-0.3402777777777778,0.07916666666666666,1,0,0,4.650532700004987,call2,-0.03333333333333333,0.08472222222222223,1,0,0,5.585352199996123,colour2,0.4583333333333333,-0.3402777777777778,1,0,0,6.216488799982471,number4,True,True,True,44,4,2019_Nov_21_1510,MA_Theta_Exp,3.0.7,59.78737218526582,
video/Experiment/zh_sp07_Ad_Ro_4_NVocInAudio_GlobalThetaInVideo.avi,vocoded,plusVideo,sp07,Ad,Ro,4,0,1,flow/blocks/NVocInAudio_GlobalThetaInVideo_A.csv,,,,,,,,,0,0,0,0,0,20,20,11,,,,,,,,,-0.42083333333333334,0.38055555555555554,1,0,0,4.531295599997975,call1,-0.020833333333333332,-0.09166666666666666,1,0,0,6.097646799986251,colour3,0.46944444444444444,-0.31805555555555554,1,0,0,6.964995499991346,number4,True,True,True,44,4,2019_Nov_21_1510,MA_Theta_Exp,3.0.7,59.78737218526582,
video/Experiment/zh_sp07_Dr_Ge_1_NVocInAudio_GlobalThetaInVideo.avi,vocoded,plusVideo,sp07,Dr,Ge,1,0,1,flow/blocks/NVocInAudio_GlobalThetaInVideo_A.csv,,,,,,,,,0,0,0,0,0,21,21,0,,,,,,,,,-0.425,0.1486111111111111,1,0,0,4.493006999982754,call2,-0.05277777777777778,0.32083333333333336,1,0,0,5.175978199986275,colour1,0.41944444444444445,0.27361111111111114,1,0,0,5.7425650999939535,number1,True,True,True,44,4,2019_Nov_21_1510,MA_Theta_Exp,3.0.7,59.78737218526582,
video/Experiment/zh_sp01_Dr_Ro_2_NVocInAudio_GlobalThetaInVideo.avi,vocoded,plusVideo,sp01,Dr,Ro,2,0,1,flow/blocks/NVocInAudio_GlobalThetaInVideo_A.csv,,,,,,,,,0,0,0,0,0,22,22,9,,,,,,,,,-0.34305555555555556,0.13194444444444445,1,0,0,5.159918999997899,call2,0.03194444444444444,-0.12638888888888888,1,0,0,5.759979599999497,colour3,0.38472222222222224,0.10416666666666667,1,0,0,6.376812500006054,number2,True,True,True,44,4,2019_Nov_21_1510,MA_Theta_Exp,3.0.7,59.78737218526582,
video/Experiment/zh_sp07_Dr_Ge_4_NVocInAudio_GlobalThetaInVideo.avi,vocoded,plusVideo,sp07,Dr,Ge,4,0,1,flow/blocks/NVocInAudio_GlobalThetaInVideo_A.csv,,,,,,,,,0,0,0,0,0,23,23,19,,,,,,,,,-0.3486111111111111,0.07222222222222222,1,0,0,4.583933600020828,call2,0.034722222222222224,0.30277777777777776,1,0,0,5.051060599973425,colour1,0.45555555555555555,-0.27361111111111114,1,0,0,5.767042599996785,number4,True,True,True,44,4,2019_Nov_21_1510,MA_Theta_Exp,3.0.7,59.78737218526582,
video/Experiment/zh_sp01_Ti_Gr_4_NVocInAudio_GlobalThetaInVideo.avi,vocoded,plusVideo,sp01,Ti,Gr,4,0,1,flow/blocks/NVocInAudio_GlobalThetaInVideo_A.csv,,,,,,,,,0,0,0,0,0,24,24,7,,,,,,,,,-0.39305555555555555,-0.08611111111111111,1,0,0,5.3204618000017945,call3,-0.025,0.08611111111111111,1,0,0,5.887062900001183,colour2,0.39444444444444443,-0.30416666666666664,1,0,0,6.455611000012141,number4,True,True,True,44,4,2019_Nov_21_1510,MA_Theta_Exp,3.0.7,59.78737218526582,
video/Experiment/zh_sp01_Ad_Gr_3_NVocInAudio_GlobalThetaInVideo.avi,vocoded,plusVideo,sp01,Ad,Gr,3,0,1,flow/blocks/NVocInAudio_GlobalThetaInVideo_A.csv,,,,,,,,,0,0,0,0,0,25,25,22,,,,,,,,,-0.35833333333333334,0.30833333333333335,1,0,0,5.022697000007611,call1,0.005555555555555556,0.10277777777777777,1,0,0,5.52394689997891,colour2,0.37777777777777777,-0.14027777777777778,1,0,0,6.107242400001269,number3,True,True,True,44,4,2019_Nov_21_1510,MA_Theta_Exp,3.0.7,59.78737218526582,
video/Experiment/zh_sp01_Ti_Ge_2_NVocInAudio_GlobalThetaInVideo.avi,vocoded,plusVideo,sp01,Ti,Ge,2,0,1,flow/blocks/NVocInAudio_GlobalThetaInVideo_A.csv,,,,,,,,,0,0,0,0,0,26,26,1,,,,,,,,,-0.4166666666666667,-0.11388888888888889,1,0,0,5.420071599975927,call3,-0.004166666666666667,0.2972222222222222,1,0,0,6.086471699993126,colour1,0.36944444444444446,0.06805555555555555,1,0,0,6.58664530000533,number2,True,True,True,44,4,2019_Nov_21_1510,MA_Theta_Exp,3.0.7,59.78737218526582,
video/Experiment/zh_sp01_Un_Ro_3_NVocInAudio_GlobalThetaInVideo.avi,vocoded,plusVideo,sp01,Un,Ro,3,0,1,flow/blocks/NVocInAudio_GlobalThetaInVideo_A.csv,,,,,,,,,0,0,0,0,0,27,27,26,,,,,,,,,-0.40555555555555556,-0.32916666666666666,1,0,0,5.166470600001048,call4,-0.006944444444444444,-0.1361111111111111,1,0,0,5.682989599998109,colour3,0.39444444444444443,-0.14027777777777778,1,0,0,6.265950000000885,number3,True,True,True,44,4,2019_Nov_21_1510,MA_Theta_Exp,3.0.7,59.78737218526582,
video/Experiment/zh_sp01_Ad_We_1_NVocInAudio_GlobalThetaInVideo.avi,vocoded,plusVideo,sp01,Ad,We,1,0,1,flow/blocks/NVocInAudio_GlobalThetaInVideo_A.csv,,,,,,,,,0,0,0,0,0,28,28,12,,,,,,,,,-0.35694444444444445,0.26805555555555555,1,0,0,5.149131499987561,call1,-0.015277777777777777,-0.2722222222222222,1,0,0,5.768351199978497,colour4,0.37222222222222223,0.325,1,0,0,6.4827827000117395,number1,True,True,True,44,4,2019_Nov_21_1510,MA_Theta_Exp,3.0.7,59.78737218526582,
video/Experiment/zh_sp07_Ad_We_2_NVocInAudio_GlobalThetaInVideo.avi,vocoded,plusVideo,sp07,Ad,We,2,0,1,flow/blocks/NVocInAudio_GlobalThetaInVideo_A.csv,,,,,,,,,0,0,0,0,0,29,29,29,,,,,,,,,-0.4166666666666667,0.25416666666666665,1,0,0,5.029538400005549,call1,-0.03888888888888889,-0.3013888888888889,1,0,0,5.746228500007419,colour4,0.3416666666666667,0.08333333333333333,1,0,0,6.263340999983484,number2,True,True,True,44,4,2019_Nov_21_1510,MA_Theta_Exp,3.0.7,59.78737218526582,
video/Experiment/zh_sp01_Ad_Ro_1_NVocInAudio_GlobalThetaInVideo.avi,vocoded,plusVideo,sp01,Ad,Ro,1,0,1,flow/blocks/NVocInAudio_GlobalThetaInVideo_A.csv,,,,,,,,,0,0,0,0,0,30,30,8,,,,,,,,,-0.41388888888888886,0.3333333333333333,1,0,0,5.446554399997694,call1,-0.07083333333333333,-0.09861111111111111,1,0,0,6.0130752000259236,colour3,0.42777777777777776,0.31666666666666665,1,0,0,6.646532999991905,number1,True,True,True,44,4,2019_Nov_21_1510,MA_Theta_Exp,3.0.7,59.78737218526582,
video/Experiment/zh_sp07_Ti_We_4_NVocInAudio_GlobalThetaInVideo.avi,vocoded,plusVideo,sp07,Ti,We,4,0,1,flow/blocks/NVocInAudio_GlobalThetaInVideo_A.csv,,,,,,,,,0,0,0,0,0,31,31,31,,,,,,,,,-0.4375,-0.10694444444444444,1,0,0,4.7474991000199225,call3,0.07222222222222222,-0.35833333333333334,1,0,0,5.414143300004071,colour4,0.4263888888888889,-0.3236111111111111,1,0,0,5.864273999992292,number4,True,True,True,44,4,2019_Nov_21_1510,MA_Theta_Exp,3.0.7,59.78737218526582,
video/Experiment/zh_sp01_Un_Gr_2_NoThetaInAudio_NoVideo.avi,noTheta,noVideo,sp01,Un,Gr,2,1,4,flow/blocks/NoThetaInAudio_NoVideo_B.csv,,,,,,,,,0,1,1,1,0,0,0,5,,,,,,,,,-0.42916666666666664,-0.28055555555555556,1,0,0,5.223389799997676,call4,-0.025,0.09861111111111111,1,0,0,5.823145199974533,colour2,0.3763888888888889,0.09722222222222222,1,0,0,6.389481399994111,number2,True,True,True,44,4,2019_Nov_21_1510,MA_Theta_Exp,3.0.7,59.78737218526582,
video/Experiment/zh_sp01_Dr_Gr_1_NoThetaInAudio_NoVideo.avi,noTheta,noVideo,sp01,Dr,Gr,1,1,4,flow/blocks/NoThetaInAudio_NoVideo_B.csv,,,,,,,,,0,1,1,1,0,1,1,20,,,,,,,,,-0.44305555555555554,-0.33194444444444443,1,0,0,5.259916199982399,call4,0.022222222222222223,0.07777777777777778,1,0,0,5.826127799984533,colour2,0.42083333333333334,0.36666666666666664,1,0,0,6.37677510001231,number1,False,True,True,44,4,2019_Nov_21_1510,MA_Theta_Exp,3.0.7,59.78737218526582,
video/Experiment/zh_sp01_Un_Gr_4_NoThetaInAudio_NoVideo.avi,noTheta,noVideo,sp01,Un,Gr,4,1,4,flow/blocks/NoThetaInAudio_NoVideo_B.csv,,,,,,,,,0,1,1,1,0,2,2,23,,,,,,,,,-0.4111111111111111,-0.3236111111111111,1,0,0,4.847152600006666,call4,-0.025,0.07222222222222222,1,0,0,5.514267999998992,colour2,0.3486111111111111,-0.3055555555555556,1,0,0,6.24711810000008,number4,True,True,True,44,4,2019_Nov_21_1510,MA_Theta_Exp,3.0.7,59.78737218526582,
video/Experiment/zh_sp07_Ti_Gr_1_NoThetaInAudio_NoVideo.avi,noTheta,noVideo,sp07,Ti,Gr,1,1,4,flow/blocks/NoThetaInAudio_NoVideo_B.csv,,,,,,,,,0,1,1,1,0,3,3,4,,,,,,,,,-0.40694444444444444,-0.12638888888888888,1,0,0,4.497775399999227,call3,-0.05277777777777778,0.05,1,0,0,4.881080499995733,colour2,0.4263888888888889,0.31805555555555554,1,0,0,5.414310499996645,number1,True,True,True,44,4,2019_Nov_21_1510,MA_Theta_Exp,3.0.7,59.78737218526582,
video/Experiment/zh_sp01_Ad_We_4_NoThetaInAudio_NoVideo.avi,noTheta,noVideo,sp01,Ad,We,4,1,4,flow/blocks/NoThetaInAudio_NoVideo_B.csv,,,,,,,,,0,1,1,1,0,4,4,31,,,,,,,,,-0.3680555555555556,0.31805555555555554,1,0,0,5.105843199999072,call1,0.0,-0.24861111111111112,1,0,0,5.822895799996331,colour4,0.42083333333333334,-0.30416666666666664,1,0,0,6.52536460000556,number4,True,True,True,44,4,2019_Nov_21_1510,MA_Theta_Exp,3.0.7,59.78737218526582,
video/Experiment/zh_sp07_Dr_We_3_NoThetaInAudio_NoVideo.avi,noTheta,noVideo,sp07,Dr,We,3,1,4,flow/blocks/NoThetaInAudio_NoVideo_B.csv,,,,,,,,,0,1,1,1,0,5,5,14,,,,,,,,,-0.4111111111111111,0.075,1,0,0,4.492849100002786,call2,-0.034722222222222224,-0.2916666666666667,1,0,0,5.375674000009894,colour4,0.3763888888888889,-0.125,1,0,0,6.208915000024717,number3,True,True,True,44,4,2019_Nov_21_1510,MA_Theta_Exp,3.0.7,59.78737218526582,
video/Experiment/zh_sp01_Ad_Ge_1_NoThetaInAudio_NoVideo.avi,noTheta,noVideo,sp01,Ad,Ge,1,1,4,flow/blocks/NoThetaInAudio_NoVideo_B.csv,,,,,,,,,0,1,1,1,0,6,6,16,,,,,,,,,-0.3958333333333333,0.3055555555555556,1,0,0,5.3218170000182,call1,0.016666666666666666,0.30833333333333335,1,0,0,5.818195900006685,colour1,0.4222222222222222,0.28055555555555556,1,0,0,6.451755499991123,number1,True,True,True,44,4,2019_Nov_21_1510,MA_Theta_Exp,3.0.7,59.78737218526582,
video/Experiment/zh_sp07_Ad_Ro_2_NoThetaInAudio_NoVideo.avi,noTheta,noVideo,sp07,Ad,Ro,2,1,4,flow/blocks/NoThetaInAudio_NoVideo_B.csv,,,,,,,,,0,1,1,1,0,7,7,25,,,,,,,,,-0.42916666666666664,0.2972222222222222,1,0,0,4.39037829998415,call1,0.009722222222222222,-0.05694444444444444,1,0,0,5.256659299979219,colour3,0.3638888888888889,0.0875,1,0,0,5.739935199992033,number2,True,True,True,44,4,2019_Nov_21_1510,MA_Theta_Exp,3.0.7,59.78737218526582,
video/Experiment/zh_sp07_Un_Ro_2_NoThetaInAudio_NoVideo.avi,noTheta,noVideo,sp07,Un,Ro,2,1,4,flow/blocks/NoThetaInAudio_NoVideo_B.csv,,,,,,,,,0,1,1,1,0,8,8,9,,,,,,,,,-0.38333333333333336,-0.3,1,0,0,4.585319200006779,call4,-0.05277777777777778,-0.16527777777777777,1,0,0,5.119501200009836,colour3,0.41805555555555557,0.075,1,0,0,6.101592099992558,number2,True,True,True,44,4,2019_Nov_21_1510,MA_Theta_Exp,3.0.7,59.78737218526582,
video/Experiment/zh_sp07_Ad_Gr_4_NoThetaInAudio_NoVideo.avi,noTheta,noVideo,sp07,Ad,Gr,4,1,4,flow/blocks/NoThetaInAudio_NoVideo_B.csv,,,,,,,,,0,1,1,1,0,9,9,7,,,,,,,,,-0.40555555555555556,0.2763888888888889,1,0,0,5.129740500007756,call1,-0.0125,0.12916666666666668,1,0,0,5.657637399999658,colour2,0.41944444444444445,-0.30972222222222223,1,0,0,6.274365099990973,number4,True,True,True,44,4,2019_Nov_21_1510,MA_Theta_Exp,3.0.7,59.78737218526582,
video/Experiment/zh_sp07_Dr_Ro_3_NoThetaInAudio_NoVideo.avi,noTheta,noVideo,sp07,Dr,Ro,3,1,4,flow/blocks/NoThetaInAudio_NoVideo_B.csv,,,,,,,,,0,1,1,1,0,10,10,26,,,,,,,,,-0.41944444444444445,0.36527777777777776,1,0,0,4.342993099999148,call1,-0.020833333333333332,-0.10694444444444444,1,0,0,4.892988300009165,colour3,0.4097222222222222,-0.12361111111111112,1,0,0,5.30962250000448,number3,False,True,True,44,4,2019_Nov_21_1510,MA_Theta_Exp,3.0.7,59.78737218526582,
video/Experiment/zh_sp07_Dr_We_4_NoThetaInAudio_NoVideo.avi,noTheta,noVideo,sp07,Dr,We,4,1,4,flow/blocks/NoThetaInAudio_NoVideo_B.csv,,,,,,,,,0,1,1,1,0,11,11,15,,,,,,,,,-0.3902777777777778,0.36527777777777776,1,0,0,4.606061200000113,call1,-0.011111111111111112,-0.30277777777777776,1,0,0,5.4069402999884915,colour4,0.37777777777777777,-0.32083333333333336,1,0,0,6.055397599993739,number4,False,True,True,44,4,2019_Nov_21_1510,MA_Theta_Exp,3.0.7,59.78737218526582,
video/Experiment/zh_sp07_Un_Ro_4_NoThetaInAudio_NoVideo.avi,noTheta,noVideo,sp07,Un,Ro,4,1,4,flow/blocks/NoThetaInAudio_NoVideo_B.csv,,,,,,,,,0,1,1,1,0,12,12,27,,,,,,,,,-0.4736111111111111,-0.3236111111111111,1,0,0,4.6984404000104405,call4,0.016666666666666666,-0.1486111111111111,1,0,0,5.315253200009465,colour3,0.36666666666666664,-0.29583333333333334,1,0,0,5.83181310002692,number4,True,True,True,44,4,2019_Nov_21_1510,MA_Theta_Exp,3.0.7,59.78737218526582,
video/Experiment/zh_sp07_Ti_Gr_2_NoThetaInAudio_NoVideo.avi,noTheta,noVideo,sp07,Ti,Gr,2,1,4,flow/blocks/NoThetaInAudio_NoVideo_B.csv,,,,,,,,,0,1,1,1,0,13,13,21,,,,,,,,,-0.3902777777777778,-0.10416666666666667,1,0,0,4.426565300003858,call3,-0.04722222222222222,0.06527777777777778,1,0,0,4.993617999978596,colour2,0.4388888888888889,0.08472222222222223,1,0,0,5.493147000001045,number2,True,True,True,44,4,2019_Nov_21_1510,MA_Theta_Exp,3.0.7,59.78737218526582,
video/Experiment/zh_sp07_Un_Gr_3_NoThetaInAudio_NoVideo.avi,noTheta,noVideo,sp07,Un,Gr,3,1,4,flow/blocks/NoThetaInAudio_NoVideo_B.csv,,,,,,,,,0,1,1,1,0,14,14,6,,,,,,,,,-0.4305555555555556,-0.29444444444444445,1,0,0,4.790000599983614,call4,-0.07777777777777778,0.05694444444444444,1,0,0,5.33616889998666,colour2,0.41944444444444445,-0.17777777777777778,1,0,0,5.819782500009751,number3,True,True,True,44,4,2019_Nov_21_1510,MA_Theta_Exp,3.0.7,59.78737218526582,
video/Experiment/zh_sp07_Ad_Ro_3_NoThetaInAudio_NoVideo.avi,noTheta,noVideo,sp07,Ad,Ro,3,1,4,flow/blocks/NoThetaInAudio_NoVideo_B.csv,,,,,,,,,0,1,1,1,0,15,15,10,,,,,,,,,-0.4027777777777778,0.28194444444444444,1,0,0,4.602934299997287,call1,-0.015277777777777777,-0.08888888888888889,1,0,0,5.368837399990298,colour3,0.45555555555555555,-0.11944444444444445,1,0,0,6.14160410000477,number3,True,True,True,44,4,2019_Nov_21_1510,MA_Theta_Exp,3.0.7,59.78737218526582,
video/Experiment/zh_sp01_Ti_Ro_1_NoThetaInAudio_NoVideo.avi,noTheta,noVideo,sp01,Ti,Ro,1,1,4,flow/blocks/NoThetaInAudio_NoVideo_B.csv,,,,,,,,,0,1,1,1,0,16,16,8,,,,,,,,,-0.4625,-0.11666666666666667,1,0,0,5.426132099993993,call3,-0.08055555555555556,-0.13055555555555556,1,0,0,5.859419699991122,colour3,0.42083333333333334,0.28194444444444444,1,0,0,6.50926319998689,number1,True,True,True,44,4,2019_Nov_21_1510,MA_Theta_Exp,3.0.7,59.78737218526582,
video/Experiment/zh_sp01_Dr_Ge_3_NoThetaInAudio_NoVideo.avi,noTheta,noVideo,sp01,Dr,Ge,3,1,4,flow/blocks/NoThetaInAudio_NoVideo_B.csv,,,,,,,,,0,1,1,1,0,17,17,2,,,,,,,,,-0.3958333333333333,-0.28888888888888886,1,0,0,4.973993299994618,call4,-0.029166666666666667,0.25833333333333336,1,0,0,5.607806999993045,colour1,0.45694444444444443,-0.12083333333333333,1,0,0,6.157527600007597,number3,False,True,True,44,4,2019_Nov_21_1510,MA_Theta_Exp,3.0.7,59.78737218526582,
video/Experiment/zh_sp07_Ti_We_2_NoThetaInAudio_NoVideo.avi,noTheta,noVideo,sp07,Ti,We,2,1,4,flow/blocks/NoThetaInAudio_NoVideo_B.csv,,,,,,,,,0,1,1,1,0,18,18,29,,,,,,,,,-0.4388888888888889,-0.1111111111111111,1,0,0,4.415753799985396,call3,-0.02361111111111111,0.11388888888888889,1,0,0,4.99635319999652,colour2,0.3875,0.06111111111111111,1,0,0,5.513286900008097,number2,True,False,True,44,4,2019_Nov_21_1510,MA_Theta_Exp,3.0.7,59.78737218526582,
video/Experiment/zh_sp01_Ad_Ge_2_NoThetaInAudio_NoVideo.avi,noTheta,noVideo,sp01,Ad,Ge,2,1,4,flow/blocks/NoThetaInAudio_NoVideo_B.csv,,,,,,,,,0,1,1,1,0,19,19,1,,,,,,,,,-0.39305555555555555,0.30694444444444446,1,0,0,5.199089100002311,call1,-0.006944444444444444,0.30694444444444446,1,0,0,5.715085700008785,colour1,0.3680555555555556,0.07777777777777778,1,0,0,6.21511710001505,number2,True,True,True,44,4,2019_Nov_21_1510,MA_Theta_Exp,3.0.7,59.78737218526582,
video/Experiment/zh_sp01_Un_Ge_4_NoThetaInAudio_NoVideo.avi,noTheta,noVideo,sp01,Un,Ge,4,1,4,flow/blocks/NoThetaInAudio_NoVideo_B.csv,,,,,,,,,0,1,1,1,0,20,20,19,,,,,,,,,-0.45694444444444443,-0.29583333333333334,1,0,0,5.149003600003198,call4,0.0375,0.2722222222222222,1,0,0,5.830574999999953,colour1,0.41944444444444445,-0.3013888888888889,1,0,0,6.513935199996922,number4,True,True,True,44,4,2019_Nov_21_1510,MA_Theta_Exp,3.0.7,59.78737218526582,
video/Experiment/zh_sp01_Ad_Ge_3_NoThetaInAudio_NoVideo.avi,noTheta,noVideo,sp01,Ad,Ge,3,1,4,flow/blocks/NoThetaInAudio_NoVideo_B.csv,,,,,,,,,0,1,1,1,0,21,21,18,,,,,,,,,-0.4083333333333333,0.29583333333333334,1,0,0,4.753826999978628,call1,-0.025,0.2861111111111111,1,0,0,5.203887299983762,colour1,0.4013888888888889,-0.10138888888888889,1,0,0,5.670480500004487,number3,True,True,True,44,4,2019_Nov_21_1510,MA_Theta_Exp,3.0.7,59.78737218526582,
video/Experiment/zh_sp01_Dr_Ro_1_NoThetaInAudio_NoVideo.avi,noTheta,noVideo,sp01,Dr,Ro,1,1,4,flow/blocks/NoThetaInAudio_NoVideo_B.csv,,,,,,,,,0,1,1,1,0,22,22,24,,,,,,,,,-0.42777777777777776,0.09027777777777778,1,0,0,5.1993447999993805,call2,0.001388888888888889,-0.1361111111111111,1,0,0,5.765406799997436,colour3,0.3375,0.2833333333333333,1,0,0,6.365774699981557,number1,True,True,True,44,4,2019_Nov_21_1510,MA_Theta_Exp,3.0.7,59.78737218526582,
video/Experiment/zh_sp01_Ti_Gr_3_NoThetaInAudio_NoVideo.avi,noTheta,noVideo,sp01,Ti,Gr,3,1,4,flow/blocks/NoThetaInAudio_NoVideo_B.csv,,,,,,,,,0,1,1,1,0,23,23,22,,,,,,,,,-0.4166666666666667,-0.12916666666666668,1,0,0,4.927825699996902,call3,-0.03333333333333333,0.04027777777777778,1,0,0,5.373752500017872,colour2,0.3347222222222222,-0.10972222222222222,1,0,0,5.823932200000854,number3,True,True,True,44,4,2019_Nov_21_1510,MA_Theta_Exp,3.0.7,59.78737218526582,
video/Experiment/zh_sp07_Un_Ge_1_NoThetaInAudio_NoVideo.avi,noTheta,noVideo,sp07,Un,Ge,1,1,4,flow/blocks/NoThetaInAudio_NoVideo_B.csv,,,,,,,,,0,1,1,1,0,24,24,0,,,,,,,,,-0.3888888888888889,-0.3013888888888889,1,0,0,4.48092010000255,call4,0.06388888888888888,0.2791666666666667,1,0,0,5.313339699991047,colour1,0.41944444444444445,0.3138888888888889,1,0,0,5.746904800005723,number1,True,True,True,44,4,2019_Nov_21_1510,MA_Theta_Exp,3.0.7,59.78737218526582,
video/Experiment/zh_sp01_Dr_Ge_2_NoThetaInAudio_NoVideo.avi,noTheta,noVideo,sp01,Dr,Ge,2,1,4,flow/blocks/NoThetaInAudio_NoVideo_B.csv,,,,,,,,,0,1,1,1,0,25,25,17,,,,,,,,,-0.4083333333333333,-0.3,1,0,0,5.265400700009195,call4,0.034722222222222224,0.3263888888888889,1,0,0,5.933555400028126,colour1,0.4027777777777778,0.07083333333333333,1,0,0,6.4494346999854315,number2,False,True,True,44,4,2019_Nov_21_1510,MA_Theta_Exp,3.0.7,59.78737218526582,
video/Experiment/zh_sp07_Ti_We_3_NoThetaInAudio_NoVideo.avi,noTheta,noVideo,sp07,Ti,We,3,1,4,flow/blocks/NoThetaInAudio_NoVideo_B.csv,,,,,,,,,0,1,1,1,0,26,26,30,,,,,,,,,-0.3972222222222222,-0.09305555555555556,1,0,0,4.447329999995418,call3,-0.03194444444444444,-0.28888888888888886,1,0,0,5.013960500014946,colour4,0.4625,-0.14166666666666666,1,0,0,5.547305600019172,number3,True,True,True,44,4,2019_Nov_21_1510,MA_Theta_Exp,3.0.7,59.78737218526582,
video/Experiment/zh_sp01_Dr_We_1_NoThetaInAudio_NoVideo.avi,noTheta,noVideo,sp01,Dr,We,1,1,4,flow/blocks/NoThetaInAudio_NoVideo_B.csv,,,,,,,,,0,1,1,1,0,27,27,28,,,,,,,,,-0.38055555555555554,-0.28194444444444444,1,0,0,5.044020699977409,call4,-0.018055555555555554,-0.30416666666666664,1,0,0,6.043849599984242,colour4,0.4152777777777778,0.28888888888888886,1,0,0,6.843783899996197,number1,False,True,True,44,4,2019_Nov_21_1510,MA_Theta_Exp,3.0.7,59.78737218526582,
video/Experiment/zh_sp07_Ti_Ro_4_NoThetaInAudio_NoVideo.avi,noTheta,noVideo,sp07,Ti,Ro,4,1,4,flow/blocks/NoThetaInAudio_NoVideo_B.csv,,,,,,,,,0,1,1,1,0,28,28,11,,,,,,,,,-0.44027777777777777,-0.09166666666666666,1,0,0,4.522927699988941,call3,-0.03333333333333333,-0.10416666666666667,1,0,0,5.189803399989614,colour3,0.5180555555555556,-0.3236111111111111,1,0,0,5.772636200010311,number4,True,True,True,44,4,2019_Nov_21_1510,MA_Theta_Exp,3.0.7,59.78737218526582,
video/Experiment/zh_sp01_Ti_We_1_NoThetaInAudio_NoVideo.avi,noTheta,noVideo,sp01,Ti,We,1,1,4,flow/blocks/NoThetaInAudio_NoVideo_B.csv,,,,,,,,,0,1,1,1,0,29,29,12,,,,,,,,,-0.32222222222222224,-0.08194444444444444,1,0,0,5.01506619999418,call3,-0.041666666666666664,-0.28055555555555556,1,0,0,5.564922799996566,colour4,0.39305555555555555,0.29305555555555557,1,0,0,6.2346052000066265,number1,True,True,True,44,4,2019_Nov_21_1510,MA_Theta_Exp,3.0.7,59.78737218526582,
video/Experiment/zh_sp07_Ad_Ge_4_NoThetaInAudio_NoVideo.avi,noTheta,noVideo,sp07,Ad,Ge,4,1,4,flow/blocks/NoThetaInAudio_NoVideo_B.csv,,,,,,,,,0,1,1,1,0,30,30,3,,,,,,,,,-0.37916666666666665,0.30416666666666664,1,0,0,4.975616699986858,call1,0.029166666666666667,0.3138888888888889,1,0,0,5.5085794999904465,colour1,0.4597222222222222,-0.3861111111111111,1,0,0,6.062117800000124,number4,True,True,True,44,4,2019_Nov_21_1510,MA_Theta_Exp,3.0.7,59.78737218526582,
video/Experiment/zh_sp01_Un_We_2_NoThetaInAudio_NoVideo.avi,noTheta,noVideo,sp01,Un,We,2,1,4,flow/blocks/NoThetaInAudio_NoVideo_B.csv,,,,,,,,,0,1,1,1,0,31,31,13,,,,,,,,,-0.3527777777777778,-0.30972222222222223,1,0,0,5.520325599994976,call4,-0.020833333333333332,-0.31805555555555554,1,0,0,5.93575500001316,colour4,0.3263888888888889,0.06388888888888888,1,0,0,6.385536400019191,number2,True,True,True,44,4,2019_Nov_21_1510,MA_Theta_Exp,3.0.7,59.78737218526582,
video/Experiment/zh_sp01_Ti_We_4_NVocInAudio_NoVideo.avi,vocoded,noVideo,sp01,Ti,We,4,2,2,flow/blocks/NVocInAudio_NoVideo_A.csv,,,,,,,,,0,2,2,2,0,0,0,31,,,,,,,,,-0.425,-0.11666666666666667,1,0,0,5.292490599997109,call3,-0.029166666666666667,-0.275,1,0,0,6.091687500011176,colour4,0.3416666666666667,-0.28194444444444444,1,0,0,6.724853199993959,number4,True,True,True,44,4,2019_Nov_21_1510,MA_Theta_Exp,3.0.7,59.78737218526582,
video/Experiment/zh_sp01_Dr_Ge_4_NVocInAudio_NoVideo.avi,vocoded,noVideo,sp01,Dr,Ge,4,2,2,flow/blocks/NVocInAudio_NoVideo_A.csv,,,,,,,,,0,2,2,2,0,1,1,19,,,,,,,,,-0.4111111111111111,0.10694444444444444,1,0,0,5.03267909999704,call2,-0.025,0.31527777777777777,1,0,0,5.5521186999976635,colour1,0.40555555555555556,-0.30277777777777776,1,0,0,6.15414279999095,number4,True,True,True,44,4,2019_Nov_21_1510,MA_Theta_Exp,3.0.7,59.78737218526582,
video/Experiment/zh_sp07_Ti_Ge_2_NVocInAudio_NoVideo.avi,vocoded,noVideo,sp07,Ti,Ge,2,2,2,flow/blocks/NVocInAudio_NoVideo_A.csv,,,,,,,,,0,2,2,2,0,2,2,1,,,,,,,,,-0.3736111111111111,-0.10416666666666667,1,0,0,4.719175599981099,call3,0.05555555555555555,0.2986111111111111,1,0,0,5.253168499999447,colour1,0.4027777777777778,0.0875,1,0,0,5.785838399984641,number2,True,True,True,44,4,2019_Nov_21_1510,MA_Theta_Exp,3.0.7,59.78737218526582,
video/Experiment/zh_sp01_Dr_Ro_2_NVocInAudio_NoVideo.avi,vocoded,noVideo,sp01,Dr,Ro,2,2,2,flow/blocks/NVocInAudio_NoVideo_A.csv,,,,,,,,,0,2,2,2,0,3,3,9,,,,,,,,,-0.3861111111111111,0.11666666666666667,1,0,0,5.060497300000861,call2,-0.006944444444444444,-0.10277777777777777,1,0,0,5.559941799991066,colour3,0.3736111111111111,0.08611111111111111,1,0,0,6.028965999983484,number2,True,True,True,44,4,2019_Nov_21_1510,MA_Theta_Exp,3.0.7,59.78737218526582,
video/Experiment/zh_sp01_Dr_Ge_1_NVocInAudio_NoVideo.avi,vocoded,noVideo,sp01,Dr,Ge,1,2,2,flow/blocks/NVocInAudio_NoVideo_A.csv,,,,,,,,,0,2,2,2,0,4,4,0,,,,,,,,,-0.4305555555555556,0.12222222222222222,1,0,0,5.05205019999994,call2,-0.004166666666666667,0.3125,1,0,0,5.517676299990853,colour1,0.4041666666666667,0.30833333333333335,1,0,0,5.941427500016289,number1,True,True,True,44,4,2019_Nov_21_1510,MA_Theta_Exp,3.0.7,59.78737218526582,
video/Experiment/zh_sp07_Un_Gr_1_NVocInAudio_NoVideo.avi,vocoded,noVideo,sp07,Un,Gr,1,2,2,flow/blocks/NVocInAudio_NoVideo_A.csv,,,,,,,,,0,2,2,2,0,5,5,20,,,,,,,,,-0.41944444444444445,-0.3148148148148148,1,0,0,4.471115499996813,call4,0.06527777777777778,0.15324074074074073,1,0,0,5.037589899991872,colour2,0.39861111111111114,0.35185185185185186,1,0,0,5.554825600003824,number1,True,True,True,44,4,2019_Nov_21_1510,MA_Theta_Exp,3.0.7,59.78737218526582,
video/Experiment/zh_sp07_Ti_Ro_2_NVocInAudio_NoVideo.avi,vocoded,noVideo,sp07,Ti,Ro,2,2,2,flow/blocks/NVocInAudio_NoVideo_A.csv,,,,,,,,,0,2,2,2,0,6,6,25,,,,,,,,,-0.36666666666666664,-0.07175925925925926,1,0,0,4.546437499986496,call3,0.03888888888888889,-0.11342592592592593,1,0,0,4.995718099991791,colour3,0.4013888888888889,0.04490740740740741,1,0,0,5.445825100003276,number2,True,True,True,44,4,2019_Nov_21_1510,MA_Theta_Exp,3.0.7,59.78737218526582,
video/Experiment/zh_sp07_Ad_We_2_NVocInAudio_NoVideo.avi,vocoded,noVideo,sp07,Ad,We,2,2,2,flow/blocks/NVocInAudio_NoVideo_A.csv,,,,,,,,,0,2,2,2,0,7,7,29,,,,,,,,,-0.35694444444444445,0.29768518518518516,1,0,0,4.499861399992369,call1,-0.0125,-0.3439814814814815,1,0,0,5.249650500016287,colour4,0.36944444444444446,0.09212962962962963,1,0,0,5.816269899980398,number2,True,True,True,44,4,2019_Nov_21_1510,MA_Theta_Exp,3.0.7,59.78737218526582,
video/Experiment/zh_sp01_Ti_Gr_4_NVocInAudio_NoVideo.avi,vocoded,noVideo,sp01,Ti,Gr,4,2,2,flow/blocks/NVocInAudio_NoVideo_A.csv,,,,,,,,,0,2,2,2,0,8,8,7,,,,,,,,,-0.4930555555555556,-0.10092592592592593,1,0,0,5.04622770001879,call3,-0.06666666666666667,0.07407407407407407,1,0,0,6.313879900000757,colour2,0.4583333333333333,-0.32731481481481484,1,0,0,6.879869900003541,number4,True,True,True,44,4,2019_Nov_21_1510,MA_Theta_Exp,3.0.7,59.78737218526582,
video/Experiment/zh_sp07_Un_We_1_NVocInAudio_NoVideo.avi,vocoded,noVideo,sp07,Un,We,1,2,2,flow/blocks/NVocInAudio_NoVideo_A.csv,,,,,,,,,0,2,2,2,0,9,9,28,,,,,,,,,-0.42777777777777776,-0.3037037037037037,1,0,0,4.578292399994098,call4,-0.075,-0.30787037037037035,1,0,0,5.041525700013153,colour4,0.41388888888888886,0.2657407407407407,1,0,0,5.774913599976571,number1,True,True,True,44,4,2019_Nov_21_1510,MA_Theta_Exp,3.0.7,59.78737218526582,
video/Experiment/zh_sp01_Ad_Ro_4_NVocInAudio_NoVideo.avi,vocoded,noVideo,sp01,Ad,Ro,4,2,2,flow/blocks/NVocInAudio_NoVideo_A.csv,,,,,,,,,0,2,2,2,0,10,10,11,,,,,,,,,-0.3875,0.2949074074074074,1,0,0,5.392175200016936,call1,0.001388888888888889,-0.08703703703703704,1,0,0,5.991891200013924,colour3,0.4041666666666667,-0.3648148148148148,1,0,0,6.508400599996094,number4,True,True,True,44,4,2019_Nov_21_1510,MA_Theta_Exp,3.0.7,59.78737218526582,
video/Experiment/zh_sp07_Ad_We_3_NVocInAudio_NoVideo.avi,vocoded,noVideo,sp07,Ad,We,3,2,2,flow/blocks/NVocInAudio_NoVideo_A.csv,,,,,,,,,0,2,2,2,0,11,11,30,,,,,,,,,-0.39444444444444443,0.26296296296296295,1,0,0,4.484199800004717,call1,0.027777777777777776,-0.3175925925925926,1,0,0,5.150788900005864,colour4,0.3972222222222222,-0.13148148148148148,1,0,0,5.684011499979533,number3,True,True,True,44,4,2019_Nov_21_1510,MA_Theta_Exp,3.0.7,59.78737218526582,
video/Experiment/zh_sp01_Dr_Gr_2_NVocInAudio_NoVideo.avi,vocoded,noVideo,sp01,Dr,Gr,2,2,2,flow/blocks/NVocInAudio_NoVideo_A.csv,,,,,,,,,0,2,2,2,0,12,12,5,,,,,,,,,-0.4486111111111111,0.11018518518518519,1,0,0,5.1132267999928445,call2,0.05416666666666667,0.08935185185185185,1,0,0,6.027727200009394,colour2,0.40555555555555556,0.1087962962962963,1,0,0,6.475706099998206,number2,True,True,True,44,4,2019_Nov_21_1510,MA_Theta_Exp,3.0.7,59.78737218526582,
video/Experiment/zh_sp01_Ti_Ro_3_NVocInAudio_NoVideo.avi,vocoded,noVideo,sp01,Ti,Ro,3,2,2,flow/blocks/NVocInAudio_NoVideo_A.csv,,,,,,,,,0,2,2,2,0,13,13,10,,,,,,,,,-0.3902777777777778,-0.13703703703703704,1,0,0,4.8893430000171065,call3,0.001388888888888889,-0.11898148148148148,1,0,0,5.338775499985786,colour3,0.4041666666666667,-0.10648148148148148,1,0,0,5.9055242000031285,number3,True,True,True,44,4,2019_Nov_21_1510,MA_Theta_Exp,3.0.7,59.78737218526582,
video/Experiment/zh_sp01_Ti_Ge_3_NVocInAudio_NoVideo.avi,vocoded,noVideo,sp01,Ti,Ge,3,2,2,flow/blocks/NVocInAudio_NoVideo_A.csv,,,,,,,,,0,2,2,2,0,14,14,18,,,,,,,,,-0.3611111111111111,-0.09537037037037037,1,0,0,4.940111100004287,call3,0.013888888888888888,0.29768518518518516,1,0,0,5.489629400020931,colour1,0.34305555555555556,-0.1287037037037037,1,0,0,6.12325529998634,number3,True,True,True,44,4,2019_Nov_21_1510,MA_Theta_Exp,3.0.7,59.78737218526582,
video/Experiment/zh_sp07_Un_We_3_NVocInAudio_NoVideo.avi,vocoded,noVideo,sp07,Un,We,3,2,2,flow/blocks/NVocInAudio_NoVideo_A.csv,,,,,,,,,0,2,2,2,0,15,15,14,,,,,,,,,-0.3680555555555556,-0.32731481481481484,1,0,0,4.125449799990747,call4,0.02361111111111111,-0.3425925925925926,1,0,0,4.541547800006811,colour4,0.3861111111111111,-0.1787037037037037,1,0,0,4.95839350001188,number3,True,True,True,44,4,2019_Nov_21_1510,MA_Theta_Exp,3.0.7,59.78737218526582,
video/Experiment/zh_sp07_Dr_Gr_4_NVocInAudio_NoVideo.avi,vocoded,noVideo,sp07,Dr,Gr,4,2,2,flow/blocks/NVocInAudio_NoVideo_A.csv,,,,,,,,,0,2,2,2,0,16,16,23,,,,,,,,,-0.4,0.10324074074074074,1,0,0,4.414815500000259,call2,0.005555555555555556,0.10185185185185185,1,0,0,4.815288199984934,colour2,0.36666666666666664,-0.30925925925925923,1,0,0,5.34838330000639,number4,True,True,True,44,4,2019_Nov_21_1510,MA_Theta_Exp,3.0.7,59.78737218526582,
video/Experiment/zh_sp07_Un_Ge_3_NVocInAudio_NoVideo.avi,vocoded,noVideo,sp07,Un,Ge,3,2,2,flow/blocks/NVocInAudio_NoVideo_A.csv,,,,,,,,,0,2,2,2,0,17,17,2,,,,,,,,,-0.41944444444444445,-0.2967592592592593,1,0,0,4.594757999991998,call4,-0.034722222222222224,0.2949074074074074,1,0,0,5.261292900016997,colour1,0.44166666666666665,-0.13148148148148148,1,0,0,5.878223600011552,number3,True,True,True,44,4,2019_Nov_21_1510,MA_Theta_Exp,3.0.7,59.78737218526582,
video/Experiment/zh_sp01_Ad_We_1_NVocInAudio_NoVideo.avi,vocoded,noVideo,sp01,Ad,We,1,2,2,flow/blocks/NVocInAudio_NoVideo_A.csv,,,,,,,,,0,2,2,2,0,18,18,12,,,,,,,,,-0.3875,0.3449074074074074,1,0,0,5.025387499976205,call1,0.006944444444444444,-0.32175925925925924,1,0,0,5.572264799993718,colour4,0.4041666666666667,0.29074074074074074,1,0,0,6.222211199987214,number1,True,True,True,44,4,2019_Nov_21_1510,MA_Theta_Exp,3.0.7,59.78737218526582,
video/Experiment/zh_sp01_Dr_Gr_3_NVocInAudio_NoVideo.avi,vocoded,noVideo,sp01,Dr,Gr,3,2,2,flow/blocks/NVocInAudio_NoVideo_A.csv,,,,,,,,,0,2,2,2,0,19,19,6,,,,,,,,,-0.3861111111111111,0.06435185185185185,1,0,0,5.169293300015852,call2,0.008333333333333333,0.09351851851851851,1,0,0,5.598026200023014,colour2,0.42083333333333334,-0.1398148148148148,1,0,0,6.014072499994654,number3,True,True,True,44,4,2019_Nov_21_1510,MA_Theta_Exp,3.0.7,59.78737218526582,
video/Experiment/zh_sp07_Ti_Ge_4_NVocInAudio_NoVideo.avi,vocoded,noVideo,sp07,Ti,Ge,4,2,2,flow/blocks/NVocInAudio_NoVideo_A.csv,,,,,,,,,0,2,2,2,0,20,20,3,,,,,,,,,-0.36527777777777776,-0.1300925925925926,1,0,0,4.448123499983922,call3,0.044444444444444446,0.23935185185185184,1,0,0,4.931993300007889,colour1,0.4222222222222222,-0.32731481481481484,1,0,0,5.465217199991457,number4,True,True,True,44,4,2019_Nov_21_1510,MA_Theta_Exp,3.0.7,59.78737218526582,
video/Experiment/zh_sp01_Un_Ge_2_NVocInAudio_NoVideo.avi,vocoded,noVideo,sp01,Un,Ge,2,2,2,flow/blocks/NVocInAudio_NoVideo_A.csv,,,,,,,,,0,2,2,2,0,21,21,17,,,,,,,,,-0.45416666666666666,-0.2912037037037037,1,0,0,5.3151684000040404,call4,0.044444444444444446,0.36018518518518516,1,0,0,5.951038800005335,colour1,0.4027777777777778,0.06851851851851852,1,0,0,6.436647199996514,number2,True,True,True,44,4,2019_Nov_21_1510,MA_Theta_Exp,3.0.7,59.78737218526582,
video/Experiment/zh_sp07_Un_Ro_1_NVocInAudio_NoVideo.avi,vocoded,noVideo,sp07,Un,Ro,1,2,2,flow/blocks/NVocInAudio_NoVideo_A.csv,,,,,,,,,0,2,2,2,0,22,22,24,,,,,,,,,-0.44027777777777777,-0.23425925925925925,1,0,0,4.357038999994984,call4,-0.041666666666666664,-0.10787037037037037,1,0,0,5.2068750000034925,colour3,0.37777777777777777,0.31296296296296294,1,0,0,5.825380199996289,number1,True,True,True,44,4,2019_Nov_21_1510,MA_Theta_Exp,3.0.7,59.78737218526582,
video/Experiment/zh_sp01_Ti_Ge_1_NVocInAudio_NoVideo.avi,vocoded,noVideo,sp01,Ti,Ge,1,2,2,flow/blocks/NVocInAudio_NoVideo_A.csv,,,,,,,,,0,2,2,2,0,23,23,16,,,,,,,,,-0.4083333333333333,-0.11064814814814815,1,0,0,5.354456400003983,call3,0.004166666666666667,0.2712962962962963,1,0,0,5.971130199992331,colour1,0.36944444444444446,0.3296296296296296,1,0,0,6.504032600001665,number1,True,True,True,44,4,2019_Nov_21_1510,MA_Theta_Exp,3.0.7,59.78737218526582,
video/Experiment/zh_sp07_Ad_Ro_1_NVocInAudio_NoVideo.avi,vocoded,noVideo,sp07,Ad,Ro,1,2,2,flow/blocks/NVocInAudio_NoVideo_A.csv,,,,,,,,,0,2,2,2,0,24,24,8,,,,,,,,,-0.3763888888888889,0.29212962962962963,1,0,0,4.5376564000034705,call1,0.020833333333333332,-0.12731481481481483,1,0,0,5.399053900007857,colour3,0.4263888888888889,0.2518518518518518,1,0,0,6.415353899996262,number1,True,True,True,44,4,2019_Nov_21_1510,MA_Theta_Exp,3.0.7,59.78737218526582,
video/Experiment/zh_sp07_Un_We_4_NVocInAudio_NoVideo.avi,vocoded,noVideo,sp07,Un,We,4,2,2,flow/blocks/NVocInAudio_NoVideo_A.csv,,,,,,,,,0,2,2,2,0,25,25,15,,,,,,,,,-0.375,-0.3148148148148148,1,0,0,4.5476192999922205,call4,-0.03194444444444444,-0.3287037037037037,1,0,0,5.311460700002499,colour4,0.3875,-0.34814814814814815,1,0,0,5.7113493000215385,number4,True,True,True,44,4,2019_Nov_21_1510,MA_Theta_Exp,3.0.7,59.78737218526582,
video/Experiment/zh_sp07_Dr_We_2_NVocInAudio_NoVideo.avi,vocoded,noVideo,sp07,Dr,We,2,2,2,flow/blocks/NVocInAudio_NoVideo_A.csv,,,,,,,,,0,2,2,2,0,26,26,13,,,,,,,,,-0.39861111111111114,0.11435185185185186,1,0,0,5.779399099992588,call2,-0.004166666666666667,-0.3287037037037037,1,0,0,6.297505700000329,colour4,0.38333333333333336,0.06435185185185185,1,0,0,6.762639199994737,number2,True,True,True,44,4,2019_Nov_21_1510,MA_Theta_Exp,3.0.7,59.78737218526582,
video/Experiment/zh_sp01_Ad_Gr_2_NVocInAudio_NoVideo.avi,vocoded,noVideo,sp01,Ad,Gr,2,2,2,flow/blocks/NVocInAudio_NoVideo_A.csv,,,,,,,,,0,2,2,2,0,27,27,21,,,,,,,,,-0.3611111111111111,0.3560185185185185,1,0,0,5.002103199978592,call1,0.029166666666666667,0.07268518518518519,1,0,0,5.521203099982813,colour2,0.44027777777777777,0.06435185185185185,1,0,0,5.954016700008651,number2,True,True,True,44,4,2019_Nov_21_1510,MA_Theta_Exp,3.0.7,59.78737218526582,
video/Experiment/zh_sp07_Dr_Ro_4_NVocInAudio_NoVideo.avi,vocoded,noVideo,sp07,Dr,Ro,4,2,2,flow/blocks/NVocInAudio_NoVideo_A.csv,,,,,,,,,0,2,2,2,0,28,28,27,,,,,,,,,-0.42916666666666664,0.1310185185185185,1,0,0,4.482156600017333,call2,-0.03611111111111111,-0.08425925925925926,1,0,0,4.881876100000227,colour3,0.32083333333333336,-0.3037037037037037,1,0,0,5.29840850000619,number4,True,True,True,44,4,2019_Nov_21_1510,MA_Theta_Exp,3.0.7,59.78737218526582,
video/Experiment/zh_sp01_Ad_Gr_1_NVocInAudio_NoVideo.avi,vocoded,noVideo,sp01,Ad,Gr,1,2,2,flow/blocks/NVocInAudio_NoVideo_A.csv,,,,,,,,,0,2,2,2,0,29,29,4,,,,,,,,,-0.4444444444444444,0.3449074074074074,1,0,0,5.299492100020871,call1,-0.001388888888888889,0.11018518518518519,1,0,0,5.848932099994272,colour2,0.37777777777777777,0.31296296296296294,1,0,0,6.366622200002894,number1,True,True,True,44,4,2019_Nov_21_1510,MA_Theta_Exp,3.0.7,59.78737218526582,
video/Experiment/zh_sp01_Un_Ro_3_NVocInAudio_NoVideo.avi,vocoded,noVideo,sp01,Un,Ro,3,2,2,flow/blocks/NVocInAudio_NoVideo_A.csv,,,,,,,,,0,2,2,2,0,30,30,26,,,,,,,,,-0.3611111111111111,-0.3398148148148148,1,0,0,5.130621299991617,call4,-0.020833333333333332,-0.13842592592592592,1,0,0,5.663664199993946,colour3,0.4027777777777778,-0.10092592592592593,1,0,0,6.147233099996811,number3,True,True,True,44,4,2019_Nov_21_1510,MA_Theta_Exp,3.0.7,59.78737218526582,
video/Experiment/zh_sp07_Ad_Gr_3_NVocInAudio_NoVideo.avi,vocoded,noVideo,sp07,Ad,Gr,3,2,2,flow/blocks/NVocInAudio_NoVideo_A.csv,,,,,,,,,0,2,2,2,0,31,31,22,,,,,,,,,-0.44722222222222224,0.31157407407407406,1,0,0,4.647253800008912,call1,0.03611111111111111,0.15046296296296297,1,0,0,5.230579800001578,colour2,0.41805555555555557,-0.07453703703703704,1,0,0,5.7936828000238165,number3,True,True,True,44,4,2019_Nov_21_1510,MA_Theta_Exp,3.0.7,59.78737218526582,
video/Experiment/zh_sp01_Ti_We_1_NoThetaInAudio_GlobalThetaInVideo.avi,noTheta,plusVideo,sp01,Ti,We,1,3,3,flow/blocks/NoThetaInAudio_GlobalThetaInVideo_B.csv,,,,,,,,,0,3,3,3,0,0,0,12,,,,,,,,,-0.4166666666666667,0.10046296296296296,1,0,0,4.890097800001968,call2,-0.03194444444444444,-0.30648148148148147,1,0,0,5.573160900006769,colour4,0.4583333333333333,0.2949074074074074,1,0,0,6.307503699994413,number1,False,True,True,44,4,2019_Nov_21_1510,MA_Theta_Exp,3.0.7,59.78737218526582,
video/Experiment/zh_sp07_Ad_Gr_4_NoThetaInAudio_GlobalThetaInVideo.avi,noTheta,plusVideo,sp07,Ad,Gr,4,3,3,flow/blocks/NoThetaInAudio_GlobalThetaInVideo_B.csv,,,,,,,,,0,3,3,3,0,1,1,7,,,,,,,,,-0.34305555555555556,0.31574074074074077,1,0,0,4.445292399992468,call1,-0.06666666666666667,0.10046296296296296,1,0,0,4.895177099999273,colour2,0.30972222222222223,-0.3523148148148148,1,0,0,5.379170900007011,number4,True,True,True,44,4,2019_Nov_21_1510,MA_Theta_Exp,3.0.7,59.78737218526582,
video/Experiment/zh_sp07_Ad_Ro_2_NoThetaInAudio_GlobalThetaInVideo.avi,noTheta,plusVideo,sp07,Ad,Ro,2,3,3,flow/blocks/NoThetaInAudio_GlobalThetaInVideo_B.csv,,,,,,,,,0,3,3,3,0,2,2,25,,,,,,,,,-0.42083333333333334,0.2810185185185185,1,0,0,4.44734569999855,call1,0.022222222222222223,-0.15787037037037038,1,0,0,5.0329612999921665,colour3,0.4236111111111111,0.07685185185185185,1,0,0,5.480354300001636,number2,True,True,True,44,4,2019_Nov_21_1510,MA_Theta_Exp,3.0.7,59.78737218526582,
video/Experiment/zh_sp01_Dr_Ro_3_NoThetaInAudio_GlobalThetaInVideo.avi,noTheta,plusVideo,sp01,Dr,Ro,3,3,3,flow/blocks/NoThetaInAudio_GlobalThetaInVideo_B.csv,,,,,,,,,0,3,3,3,0,3,3,26,,,,,,,,,-0.3486111111111111,-0.32592592592592595,1,0,0,5.208634699985851,call4,0.041666666666666664,-0.1425925925925926,1,0,0,5.625681499979692,colour3,0.4027777777777778,-0.11898148148148148,1,0,0,6.093052000011085,number3,False,True,True,44,4,2019_Nov_21_1510,MA_Theta_Exp,3.0.7,59.78737218526582,
video/Experiment/zh_sp01_Ad_Ge_2_NoThetaInAudio_GlobalThetaInVideo.avi,noTheta,plusVideo,sp01,Ad,Ge,2,3,3,flow/blocks/NoThetaInAudio_GlobalThetaInVideo_B.csv,,,,,,,,,0,3,3,3,0,4,4,1,,,,,,,,,-0.38472222222222224,0.2824074074074074,1,0,0,5.693767199991271,call1,0.041666666666666664,0.28935185185185186,1,0,0,6.693690899992362,colour1,0.4013888888888889,0.07824074074074074,1,0,0,7.176892899995437,number2,True,True,True,44,4,2019_Nov_21_1510,MA_Theta_Exp,3.0.7,59.78737218526582,
video/Experiment/zh_sp07_Ti_Gr_2_NoThetaInAudio_GlobalThetaInVideo.avi,noTheta,plusVideo,sp07,Ti,Gr,2,3,3,flow/blocks/NoThetaInAudio_GlobalThetaInVideo_B.csv,,,,,,,,,0,3,3,3,0,5,5,21,,,,,,,,,-0.37777777777777777,-0.1259259259259259,1,0,0,4.451803600008134,call3,0.004166666666666667,0.07824074074074074,1,0,0,5.034530500008259,colour2,0.4222222222222222,0.0712962962962963,1,0,0,5.418468899995787,number2,True,True,True,44,4,2019_Nov_21_1510,MA_Theta_Exp,3.0.7,59.78737218526582,
video/Experiment/zh_sp01_Un_Gr_2_NoThetaInAudio_GlobalThetaInVideo.avi,noTheta,plusVideo,sp01,Un,Gr,2,3,3,flow/blocks/NoThetaInAudio_GlobalThetaInVideo_B.csv,,,,,,,,,0,3,3,3,0,6,6,5,,,,,,,,,-0.3763888888888889,-0.3023148148148148,1,0,0,5.373972000001231,call4,0.1125,0.10601851851851851,1,0,0,5.973756100022001,colour2,0.4527777777777778,0.047685185185185185,1,0,0,6.873818599997321,number2,True,True,True,44,4,2019_Nov_21_1510,MA_Theta_Exp,3.0.7,59.78737218526582,
video/Experiment/zh_sp01_Ti_Ro_4_NoThetaInAudio_GlobalThetaInVideo.avi,noTheta,plusVideo,sp01,Ti,Ro,4,3,3,flow/blocks/NoThetaInAudio_GlobalThetaInVideo_B.csv,,,,,,,,,0,3,3,3,0,7,7,11,,,,,,,,,-0.3958333333333333,-0.13703703703703704,1,0,0,5.226103399996646,call3,-0.04583333333333333,-0.1050925925925926,1,0,0,5.65910590000567,colour3,0.38055555555555554,-0.3050925925925926,1,0,0,6.109745399997337,number4,True,True,True,44,4,2019_Nov_21_1510,MA_Theta_Exp,3.0.7,59.78737218526582,
video/Experiment/zh_sp01_Un_Ro_4_NoThetaInAudio_GlobalThetaInVideo.avi,noTheta,plusVideo,sp01,Un,Ro,4,3,3,flow/blocks/NoThetaInAudio_GlobalThetaInVideo_B.csv,,,,,,,,,0,3,3,3,0,8,8,27,,,,,,,,,-0.41944444444444445,-0.27175925925925926,1,0,0,5.1523551999998745,call4,0.011111111111111112,-0.1425925925925926,1,0,0,5.63560549999238,colour3,0.3638888888888889,-0.3050925925925926,1,0,0,6.002000700013014,number4,True,True,True,44,4,2019_Nov_21_1510,MA_Theta_Exp,3.0.7,59.78737218526582,
video/Experiment/zh_sp07_Dr_Ro_1_NoThetaInAudio_GlobalThetaInVideo.avi,noTheta,plusVideo,sp07,Dr,Ro,1,3,3,flow/blocks/NoThetaInAudio_GlobalThetaInVideo_B.csv,,,,,,,,,0,3,3,3,0,9,9,24,,,,,,,,,-0.375,0.2740740740740741,1,0,0,4.532328899978893,call1,-0.03888888888888889,-0.1550925925925926,1,0,0,5.0327005999861285,colour3,0.4027777777777778,0.2671296296296296,1,0,0,5.632174200000009,number1,False,True,True,44,4,2019_Nov_21_1510,MA_Theta_Exp,3.0.7,59.78737218526582,
video/Experiment/zh_sp07_Un_Ge_4_NoThetaInAudio_GlobalThetaInVideo.avi,noTheta,plusVideo,sp07,Un,Ge,4,3,3,flow/blocks/NoThetaInAudio_GlobalThetaInVideo_B.csv,,,,,,,,,0,3,3,3,0,10,10,19,,,,,,,,,-0.4111111111111111,-0.3023148148148148,1,0,0,4.201734600006603,call4,0.015277777777777777,0.3351851851851852,1,0,0,4.817040399997495,colour1,0.4236111111111111,-0.3148148148148148,1,0,0,5.500498500012327,number4,True,True,True,44,4,2019_Nov_21_1510,MA_Theta_Exp,3.0.7,59.78737218526582,
video/Experiment/zh_sp01_Un_Ge_1_NoThetaInAudio_GlobalThetaInVideo.avi,noTheta,plusVideo,sp01,Un,Ge,1,3,3,flow/blocks/NoThetaInAudio_GlobalThetaInVideo_B.csv,,,,,,,,,0,3,3,3,0,11,11,0,,,,,,,,,-0.43333333333333335,-0.29814814814814816,1,0,0,5.222496500005946,call4,0.005555555555555556,0.2935185185185185,1,0,0,5.820368999993661,colour1,0.4166666666666667,0.2962962962962963,1,0,0,6.286850100004813,number1,True,True,True,44,4,2019_Nov_21_1510,MA_Theta_Exp,3.0.7,59.78737218526582,
video/Experiment/zh_sp01_Un_We_2_NoThetaInAudio_GlobalThetaInVideo.avi,noTheta,plusVideo,sp01,Un,We,2,3,3,flow/blocks/NoThetaInAudio_GlobalThetaInVideo_B.csv,,,,,,,,,0,3,3,3,0,12,12,13,,,,,,,,,-0.4083333333333333,-0.2814814814814815,1,0,0,5.275889899989124,call4,0.002777777777777778,-0.30092592592592593,1,0,0,5.692252999986522,colour4,0.3638888888888889,0.13657407407407407,1,0,0,6.175772799993865,number2,True,True,True,44,4,2019_Nov_21_1510,MA_Theta_Exp,3.0.7,59.78737218526582,
video/Experiment/zh_sp01_Dr_Ge_2_NoThetaInAudio_GlobalThetaInVideo.avi,noTheta,plusVideo,sp01,Dr,Ge,2,3,3,flow/blocks/NoThetaInAudio_GlobalThetaInVideo_B.csv,,,,,,,,,0,3,3,3,0,13,13,17,,,,,,,,,-0.37083333333333335,-0.30648148148148147,1,0,0,5.03828669997165,call4,-0.005555555555555556,0.29907407407407405,1,0,0,5.621256100013852,colour1,0.4388888888888889,0.08657407407407407,1,0,0,6.238490499992622,number2,False,True,True,44,4,2019_Nov_21_1510,MA_Theta_Exp,3.0.7,59.78737218526582,
video/Experiment/zh_sp01_Ti_Ro_1_NoThetaInAudio_GlobalThetaInVideo.avi,noTheta,plusVideo,sp01,Ti,Ro,1,3,3,flow/blocks/NoThetaInAudio_GlobalThetaInVideo_B.csv,,,,,,,,,0,3,3,3,0,14,14,8,,,,,,,,,-0.3763888888888889,-0.11481481481481481,1,0,0,5.198297900002217,call3,-0.03333333333333333,-0.09537037037037037,1,0,0,5.577405099989846,colour3,0.475,0.287962962962963,1,0,0,6.225644100020872,number1,True,True,True,44,4,2019_Nov_21_1510,MA_Theta_Exp,3.0.7,59.78737218526582,
video/Experiment/zh_sp01_Dr_Ge_3_NoThetaInAudio_GlobalThetaInVideo.avi,noTheta,plusVideo,sp01,Dr,Ge,3,3,3,flow/blocks/NoThetaInAudio_GlobalThetaInVideo_B.csv,,,,,,,,,0,3,3,3,0,15,15,2,,,,,,,,,-0.36666666666666664,-0.30787037037037035,1,0,0,4.964990599983139,call4,-0.004166666666666667,0.29212962962962963,1,0,0,5.614749500004109,colour1,0.39861111111111114,-0.09953703703703703,1,0,0,6.131341900007101,number3,False,True,True,44,4,2019_Nov_21_1510,MA_Theta_Exp,3.0.7,59.78737218526582,
video/Experiment/zh_sp07_Un_Gr_3_NoThetaInAudio_GlobalThetaInVideo.avi,noTheta,plusVideo,sp07,Un,Gr,3,3,3,flow/blocks/NoThetaInAudio_GlobalThetaInVideo_B.csv,,,,,,,,,0,3,3,3,0,16,16,6,,,,,,,,,-0.42083333333333334,-0.09537037037037037,1,0,0,4.615796800004318,call3,-0.08611111111111111,0.09490740740740741,1,0,0,5.0150656000187155,colour2,0.3472222222222222,-0.11898148148148148,1,0,0,5.464952999987872,number3,False,True,True,44,4,2019_Nov_21_1510,MA_Theta_Exp,3.0.7,59.78737218526582,
video/Experiment/zh_sp01_Ad_Ge_4_NoThetaInAudio_GlobalThetaInVideo.avi,noTheta,plusVideo,sp01,Ad,Ge,4,3,3,flow/blocks/NoThetaInAudio_GlobalThetaInVideo_B.csv,,,,,,,,,0,3,3,3,0,17,17,3,,,,,,,,,-0.4097222222222222,0.2824074074074074,1,0,0,4.719432699988829,call1,-0.04027777777777778,0.29768518518518516,1,0,0,5.41360810000333,colour1,0.4597222222222222,-0.32592592592592595,1,0,0,5.982047199999215,number4,True,True,True,44,4,2019_Nov_21_1510,MA_Theta_Exp,3.0.7,59.78737218526582,
video/Experiment/zh_sp07_Dr_We_3_NoThetaInAudio_GlobalThetaInVideo.avi,noTheta,plusVideo,sp07,Dr,We,3,3,3,flow/blocks/NoThetaInAudio_GlobalThetaInVideo_B.csv,,,,,,,,,0,3,3,3,0,18,18,14,,,,,,,,,-0.36666666666666664,-0.32314814814814813,1,0,0,4.418115799984662,call4,0.05,-0.28703703703703703,1,0,0,5.067974400008097,colour4,0.36944444444444446,-0.0912037037037037,1,0,0,5.514861700008623,number3,False,True,True,44,4,2019_Nov_21_1510,MA_Theta_Exp,3.0.7,59.78737218526582,
video/Experiment/zh_sp01_Un_Gr_4_NoThetaInAudio_GlobalThetaInVideo.avi,noTheta,plusVideo,sp01,Un,Gr,4,3,3,flow/blocks/NoThetaInAudio_GlobalThetaInVideo_B.csv,,,,,,,,,0,3,3,3,0,19,19,23,,,,,,,,,-0.45694444444444443,-0.32592592592592595,1,0,0,5.026834799995413,call4,-0.05,0.08796296296296297,1,0,0,5.576746100006858,colour2,0.39305555555555555,-0.32175925925925924,1,0,0,6.194169000023976,number4,True,True,True,44,4,2019_Nov_21_1510,MA_Theta_Exp,3.0.7,59.78737218526582,
video/Experiment/zh_sp07_Dr_We_4_NoThetaInAudio_GlobalThetaInVideo.avi,noTheta,plusVideo,sp07,Dr,We,4,3,3,flow/blocks/NoThetaInAudio_GlobalThetaInVideo_B.csv,,,,,,,,,0,3,3,3,0,20,20,15,,,,,,,,,-0.36944444444444446,0.0962962962962963,1,0,0,4.480191899987403,call2,-0.059722222222222225,-0.3037037037037037,1,0,0,5.029168699984439,colour4,0.39166666666666666,-0.29953703703703705,1,0,0,5.479225600021891,number4,True,True,True,44,4,2019_Nov_21_1510,MA_Theta_Exp,3.0.7,59.78737218526582,
video/Experiment/zh_sp01_Dr_We_1_NoThetaInAudio_GlobalThetaInVideo.avi,noTheta,plusVideo,sp01,Dr,We,1,3,3,flow/blocks/NoThetaInAudio_GlobalThetaInVideo_B.csv,,,,,,,,,0,3,3,3,0,21,21,28,,,,,,,,,-0.37777777777777777,0.16157407407407406,1,0,0,5.233735999994678,call2,-0.004166666666666667,-0.3175925925925926,1,0,0,5.813980699982494,colour4,0.40694444444444444,0.2740740740740741,1,0,0,6.430930200003786,number1,True,True,True,44,4,2019_Nov_21_1510,MA_Theta_Exp,3.0.7,59.78737218526582,
video/Experiment/zh_sp07_Ti_Gr_3_NoThetaInAudio_GlobalThetaInVideo.avi,noTheta,plusVideo,sp07,Ti,Gr,3,3,3,flow/blocks/NoThetaInAudio_GlobalThetaInVideo_B.csv,,,,,,,,,0,3,3,3,0,22,22,22,,,,,,,,,-0.35833333333333334,-0.13842592592592592,1,0,0,4.521233200008282,call3,0.041666666666666664,0.1574074074074074,1,0,0,5.073336900008144,colour2,0.35555555555555557,-0.1412037037037037,1,0,0,5.610040999978082,number3,True,True,True,44,4,2019_Nov_21_1510,MA_Theta_Exp,3.0.7,59.78737218526582,
video/Experiment/zh_sp07_Ad_We_4_NoThetaInAudio_GlobalThetaInVideo.avi,noTheta,plusVideo,sp07,Ad,We,4,3,3,flow/blocks/NoThetaInAudio_GlobalThetaInVideo_B.csv,,,,,,,,,0,3,3,3,0,23,23,31,,,,,,,,,-0.39861111111111114,0.2851851851851852,1,0,0,4.429649199999403,call1,-0.027777777777777776,-0.2662037037037037,1,0,0,4.979188500001328,colour4,0.4097222222222222,-0.2967592592592593,1,0,0,5.379241799993906,number4,True,True,True,44,4,2019_Nov_21_1510,MA_Theta_Exp,3.0.7,59.78737218526582,
video/Experiment/zh_sp07_Ad_Ge_1_NoThetaInAudio_GlobalThetaInVideo.avi,noTheta,plusVideo,sp07,Ad,Ge,1,3,3,flow/blocks/NoThetaInAudio_GlobalThetaInVideo_B.csv,,,,,,,,,0,3,3,3,0,24,24,16,,,,,,,,,-0.35555555555555557,0.29768518518518516,1,0,0,4.400629899988417,call1,-0.013888888888888888,0.300462962962963,1,0,0,4.766636099986499,colour1,0.3819444444444444,0.29074074074074074,1,0,0,5.133316499995999,number1,True,True,True,44,4,2019_Nov_21_1510,MA_Theta_Exp,3.0.7,59.78737218526582,
video/Experiment/zh_sp07_Un_Ro_2_NoThetaInAudio_GlobalThetaInVideo.avi,noTheta,plusVideo,sp07,Un,Ro,2,3,3,flow/blocks/NoThetaInAudio_GlobalThetaInVideo_B.csv,,,,,,,,,0,3,3,3,0,25,25,9,,,,,,,,,-0.38333333333333336,-0.3509259259259259,1,0,0,4.594942199997604,call4,0.029166666666666667,-0.14675925925925926,1,0,0,5.011655000009341,colour3,0.43194444444444446,0.30185185185185187,1,0,0,5.477739299996756,number1,True,True,False,44,4,2019_Nov_21_1510,MA_Theta_Exp,3.0.7,59.78737218526582,
video/Experiment/zh_sp01_Ti_We_3_NoThetaInAudio_GlobalThetaInVideo.avi,noTheta,plusVideo,sp01,Ti,We,3,3,3,flow/blocks/NoThetaInAudio_GlobalThetaInVideo_B.csv,,,,,,,,,0,3,3,3,0,26,26,30,,,,,,,,,-0.36666666666666664,-0.09259259259259259,1,0,0,4.942952100012917,call3,-0.075,-0.3537037037037037,1,0,0,5.45959959999891,colour4,0.43472222222222223,-0.15648148148148147,1,0,0,5.992772199999308,number3,True,True,True,44,4,2019_Nov_21_1510,MA_Theta_Exp,3.0.7,59.78737218526582,
video/Experiment/zh_sp07_Ti_Gr_1_NoThetaInAudio_GlobalThetaInVideo.avi,noTheta,plusVideo,sp07,Ti,Gr,1,3,3,flow/blocks/NoThetaInAudio_GlobalThetaInVideo_B.csv,,,,,,,,,0,3,3,3,0,27,27,4,,,,,,,,,-0.35694444444444445,-0.09953703703703703,1,0,0,4.213773700001184,call3,0.03194444444444444,0.09212962962962963,1,0,0,4.596111699996982,colour2,0.40694444444444444,0.3101851851851852,1,0,0,5.013050999987172,number1,True,True,True,44,4,2019_Nov_21_1510,MA_Theta_Exp,3.0.7,59.78737218526582,
video/Experiment/zh_sp01_Ad_Ge_3_NoThetaInAudio_GlobalThetaInVideo.avi,noTheta,plusVideo,sp01,Ad,Ge,3,3,3,flow/blocks/NoThetaInAudio_GlobalThetaInVideo_B.csv,,,,,,,,,0,3,3,3,0,28,28,18,,,,,,,,,-0.4041666666666667,0.30185185185185187,1,0,0,4.98890900000697,call1,0.009722222222222222,0.3282407407407407,1,0,0,5.469281300000148,colour1,0.4388888888888889,-0.10648148148148148,1,0,0,5.91685179999331,number3,True,True,True,44,4,2019_Nov_21_1510,MA_Theta_Exp,3.0.7,59.78737218526582,
video/Experiment/zh_sp07_Dr_Gr_1_NoThetaInAudio_GlobalThetaInVideo.avi,noTheta,plusVideo,sp07,Dr,Gr,1,3,3,flow/blocks/NoThetaInAudio_GlobalThetaInVideo_B.csv,,,,,,,,,0,3,3,3,0,29,29,20,,,,,,,,,-0.42083333333333334,0.0712962962962963,1,0,0,4.542066900001373,call2,-0.02361111111111111,0.0962962962962963,1,0,0,5.0100567000044975,colour2,0.3861111111111111,0.32407407407407407,1,0,0,5.459446799999569,number1,True,True,True,44,4,2019_Nov_21_1510,MA_Theta_Exp,3.0.7,59.78737218526582,
video/Experiment/zh_sp07_Ti_We_2_NoThetaInAudio_GlobalThetaInVideo.avi,noTheta,plusVideo,sp07,Ti,We,2,3,3,flow/blocks/NoThetaInAudio_GlobalThetaInVideo_B.csv,,,,,,,,,0,3,3,3,0,30,30,29,,,,,,,,,-0.3625,-0.11481481481481481,1,0,0,4.361275900009787,call3,-0.015277777777777777,0.03935185185185185,1,0,0,4.744937700015726,colour2,0.35833333333333334,0.11712962962962963,1,0,0,5.094733899983112,number2,True,False,True,44,4,2019_Nov_21_1510,MA_Theta_Exp,3.0.7,59.78737218526582,
video/Experiment/zh_sp07_Ad_Ro_3_NoThetaInAudio_GlobalThetaInVideo.avi,noTheta,plusVideo,sp07,Ad,Ro,3,3,3,flow/blocks/NoThetaInAudio_GlobalThetaInVideo_B.csv,,,,,,,,,0,3,3,3,0,31,31,10,,,,,,,,,-0.4013888888888889,0.33240740740740743,1,0,0,4.36623069999041,call1,-0.009722222222222222,-0.11481481481481481,1,0,0,4.914425900002243,colour3,0.3736111111111111,-0.10925925925925926,1,0,0,5.397523100022227,number3,True,True,True,44,4,2019_Nov_21_1510,MA_Theta_Exp,3.0.7,59.78737218526582,
video/Experiment/zh_sp01_Un_We_1_GlobalTheta_NoVideo.avi,globalTheta,noVideo,sp01,Un,We,1,4,5,flow/blocks/GlobalTheta_NoVideo_A.csv,,,,,,,,,0,4,4,4,0,0,0,28,,,,,,,,,-0.3625,-0.13564814814814816,1,0,0,5.197146799997427,call3,-0.008333333333333333,-0.30648148148148147,1,0,0,5.764876600005664,colour4,0.4097222222222222,0.287962962962963,1,0,0,6.397089900012361,number1,False,True,True,44,4,2019_Nov_21_1510,MA_Theta_Exp,3.0.7,59.78737218526582,
video/Experiment/zh_sp07_Ad_Gr_3_GlobalTheta_NoVideo.avi,globalTheta,noVideo,sp07,Ad,Gr,3,4,5,flow/blocks/GlobalTheta_NoVideo_A.csv,,,,,,,,,0,4,4,4,0,1,1,22,,,,,,,,,-0.3527777777777778,-0.11898148148148148,1,0,0,6.153033500013407,call3,-0.0375,0.0699074074074074,1,0,0,6.869621399993775,colour2,0.39305555555555555,-0.07592592592592592,1,0,0,8.019819300010568,number3,False,True,True,44,4,2019_Nov_21_1510,MA_Theta_Exp,3.0.7,59.78737218526582,
video/Experiment/zh_sp07_Ti_Ge_4_GlobalTheta_NoVideo.avi,globalTheta,noVideo,sp07,Ti,Ge,4,4,5,flow/blocks/GlobalTheta_NoVideo_A.csv,,,,,,,,,0,4,4,4,0,2,2,3,,,,,,,,,-0.39444444444444443,-0.13564814814814816,1,0,0,4.338064400013536,call3,-0.03611111111111111,0.26851851851851855,1,0,0,4.886609400011366,colour1,0.46805555555555556,-0.29398148148148145,1,0,0,5.369534400000703,number4,True,True,True,44,4,2019_Nov_21_1510,MA_Theta_Exp,3.0.7,59.78737218526582,
video/Experiment/zh_sp07_Un_Ro_1_GlobalTheta_NoVideo.avi,globalTheta,noVideo,sp07,Un,Ro,1,4,5,flow/blocks/GlobalTheta_NoVideo_A.csv,,,,,,,,,0,4,4,4,0,3,3,24,,,,,,,,,-0.33611111111111114,-0.10092592592592593,1,0,0,4.350118400005158,call3,-0.03888888888888889,-0.09814814814814815,1,0,0,4.83438839999144,colour3,0.45,0.2726851851851852,1,0,0,5.295411200000672,number1,False,True,True,44,4,2019_Nov_21_1510,MA_Theta_Exp,3.0.7,59.78737218526582,
video/Experiment/zh_sp07_Dr_Ge_1_GlobalTheta_NoVideo.avi,globalTheta,noVideo,sp07,Dr,Ge,1,4,5,flow/blocks/GlobalTheta_NoVideo_A.csv,,,,,,,,,0,4,4,4,0,4,4,0,,,,,,,,,-0.4527777777777778,0.30324074074074076,1,0,0,4.45148469999549,call1,-0.09027777777777778,0.2962962962962963,1,0,0,4.851049299992155,colour1,0.3888888888888889,0.2796296296296296,1,0,0,5.551148700003978,number1,False,True,True,44,4,2019_Nov_21_1510,MA_Theta_Exp,3.0.7,59.78737218526582,
video/Experiment/zh_sp01_Dr_Ge_4_GlobalTheta_NoVideo.avi,globalTheta,noVideo,sp01,Dr,Ge,4,4,5,flow/blocks/GlobalTheta_NoVideo_A.csv,,,,,,,,,0,4,4,4,0,5,5,19,,,,,,,,,-0.37222222222222223,0.11018518518518519,1,0,0,4.866246400022646,call2,0.002777777777777778,0.2657407407407407,1,0,0,5.299813899997389,colour1,0.46944444444444444,-0.31203703703703706,1,0,0,5.832180600002175,number4,True,True,True,44,4,2019_Nov_21_1510,MA_Theta_Exp,3.0.7,59.78737218526582,
video/Experiment/zh_sp01_Ad_Ro_4_GlobalTheta_NoVideo.avi,globalTheta,noVideo,sp01,Ad,Ro,4,4,5,flow/blocks/GlobalTheta_NoVideo_A.csv,,,,,,,,,0,4,4,4,0,6,6,11,,,,,,,,,-0.3611111111111111,0.30462962962962964,1,0,0,5.17930340001476,call1,-0.05555555555555555,-0.09953703703703703,1,0,0,5.696626999997534,colour3,0.4666666666666667,-0.32314814814814813,1,0,0,6.129224500007695,number4,True,True,True,44,4,2019_Nov_21_1510,MA_Theta_Exp,3.0.7,59.78737218526582,
video/Experiment/zh_sp01_Ti_Ro_3_GlobalTheta_NoVideo.avi,globalTheta,noVideo,sp01,Ti,Ro,3,4,5,flow/blocks/GlobalTheta_NoVideo_A.csv,,,,,,,,,0,4,4,4,0,7,7,10,,,,,,,,,-0.4041666666666667,-0.09953703703703703,1,0,0,4.827961899980437,call3,-0.030555555555555555,-0.09398148148148149,1,0,0,5.3778686999867205,colour3,0.37222222222222223,-0.14953703703703702,1,0,0,5.777712500013877,number3,True,True,True,44,4,2019_Nov_21_1510,MA_Theta_Exp,3.0.7,59.78737218526582,
video/Experiment/zh_sp01_Dr_Gr_3_GlobalTheta_NoVideo.avi,globalTheta,noVideo,sp01,Dr,Gr,3,4,5,flow/blocks/GlobalTheta_NoVideo_A.csv,,,,,,,,,0,4,4,4,0,8,8,6,,,,,,,,,-0.3541666666666667,-0.3287037037037037,1,0,0,5.248950499983039,call4,-0.016666666666666666,0.031018518518518518,1,0,0,5.848739300010493,colour2,0.40555555555555556,-0.1175925925925926,1,0,0,6.331702700001188,number3,False,True,True,44,4,2019_Nov_21_1510,MA_Theta_Exp,3.0.7,59.78737218526582,
video/Experiment/zh_sp01_Un_Ro_3_GlobalTheta_NoVideo.avi,globalTheta,noVideo,sp01,Un,Ro,3,4,5,flow/blocks/GlobalTheta_NoVideo_A.csv,,,,,,,,,0,4,4,4,0,9,9,26,,,,,,,,,-0.44583333333333336,-0.34675925925925927,1,0,0,4.948891900014132,call4,0.019444444444444445,-0.12453703703703704,1,0,0,5.416324799996801,colour3,0.3416666666666667,-0.08842592592592592,1,0,0,5.899405000003753,number3,True,True,True,44,4,2019_Nov_21_1510,MA_Theta_Exp,3.0.7,59.78737218526582,
video/Experiment/zh_sp01_Un_Ge_2_GlobalTheta_NoVideo.avi,globalTheta,noVideo,sp01,Un,Ge,2,4,5,flow/blocks/GlobalTheta_NoVideo_A.csv,,,,,,,,,0,4,4,4,0,10,10,17,,,,,,,,,-0.3611111111111111,-0.32731481481481484,1,0,0,4.921843299991451,call4,-0.025,0.3296296296296296,1,0,0,5.482273000001442,colour1,0.35694444444444445,0.12268518518518519,1,0,0,5.982179300015559,number2,True,True,True,44,4,2019_Nov_21_1510,MA_Theta_Exp,3.0.7,59.78737218526582,
video/Experiment/zh_sp01_Un_We_3_GlobalTheta_NoVideo.avi,globalTheta,noVideo,sp01,Un,We,3,4,5,flow/blocks/GlobalTheta_NoVideo_A.csv,,,,,,,,,0,4,4,4,0,11,11,14,,,,,,,,,-0.38333333333333336,-0.2953703703703704,1,0,0,4.722061099979328,call4,0.03333333333333333,-0.3314814814814815,1,0,0,5.138559799990617,colour4,0.45,-0.1175925925925926,1,0,0,5.521895300014876,number3,True,True,True,44,4,2019_Nov_21_1510,MA_Theta_Exp,3.0.7,59.78737218526582,
video/Experiment/zh_sp07_Dr_Ro_2_GlobalTheta_NoVideo.avi,globalTheta,noVideo,sp07,Dr,Ro,2,4,5,flow/blocks/GlobalTheta_NoVideo_A.csv,,,,,,,,,0,4,4,4,0,12,12,9,,,,,,,,,-0.3763888888888889,0.2851851851851852,1,0,0,4.43990820000181,call1,-0.004166666666666667,-0.11203703703703703,1,0,0,5.226887800003169,colour3,0.48333333333333334,0.2949074074074074,1,0,0,5.790203000011388,number1,False,True,False,44,4,2019_Nov_21_1510,MA_Theta_Exp,3.0.7,59.78737218526582,
video/Experiment/zh_sp07_Ti_Gr_4_GlobalTheta_NoVideo.avi,globalTheta,noVideo,sp07,Ti,Gr,4,4,5,flow/blocks/GlobalTheta_NoVideo_A.csv,,,,,,,,,0,4,4,4,0,13,13,7,,,,,,,,,-0.39444444444444443,-0.12175925925925926,1,0,0,4.581946199992672,call3,-0.027777777777777776,0.11574074074074074,1,0,0,4.981113299989374,colour2,0.3347222222222222,-0.2884259259259259,1,0,0,5.464546600007452,number4,True,True,True,44,4,2019_Nov_21_1510,MA_Theta_Exp,3.0.7,59.78737218526582,
video/Experiment/zh_sp07_Ti_We_4_GlobalTheta_NoVideo.avi,globalTheta,noVideo,sp07,Ti,We,4,4,5,flow/blocks/GlobalTheta_NoVideo_A.csv,,,,,,,,,0,4,4,4,0,14,14,31,,,,,,,,,-0.4263888888888889,-0.14537037037037037,1,0,0,4.546311399986735,call3,-0.041666666666666664,-0.28425925925925927,1,0,0,4.961130999989109,colour4,0.4125,-0.3509259259259259,1,0,0,5.443956400005845,number4,True,True,True,44,4,2019_Nov_21_1510,MA_Theta_Exp,3.0.7,59.78737218526582,
video/Experiment/zh_sp07_Un_Ge_3_GlobalTheta_NoVideo.avi,globalTheta,noVideo,sp07,Un,Ge,3,4,5,flow/blocks/GlobalTheta_NoVideo_A.csv,,,,,,,,,0,4,4,4,0,15,15,2,,,,,,,,,-0.39861111111111114,-0.10231481481481482,1,0,0,4.449088399996981,call3,0.015277777777777777,0.2810185185185185,1,0,0,4.9826055000012275,colour1,0.42777777777777776,-0.1050925925925926,1,0,0,5.482239800010575,number3,False,True,True,44,4,2019_Nov_21_1510,MA_Theta_Exp,3.0.7,59.78737218526582,
video/Experiment/zh_sp01_Dr_Gr_2_GlobalTheta_NoVideo.avi,globalTheta,noVideo,sp01,Dr,Gr,2,4,5,flow/blocks/GlobalTheta_NoVideo_A.csv,,,,,,,,,0,4,4,4,0,16,16,5,,,,,,,,,-0.34444444444444444,-0.32175925925925924,1,0,0,5.174626299994998,call4,0.044444444444444446,0.05740740740740741,1,0,0,5.621654999995371,colour2,0.35138888888888886,0.09351851851851851,1,0,0,6.071166100009577,number2,False,True,True,44,4,2019_Nov_21_1510,MA_Theta_Exp,3.0.7,59.78737218526582,
video/Experiment/zh_sp01_Ad_We_3_GlobalTheta_NoVideo.avi,globalTheta,noVideo,sp01,Ad,We,3,4,5,flow/blocks/GlobalTheta_NoVideo_A.csv,,,,,,,,,0,4,4,4,0,17,17,30,,,,,,,,,-0.4111111111111111,0.3143518518518518,1,0,0,4.9520348999940325,call1,0.011111111111111112,-0.2898148148148148,1,0,0,5.618353700003354,colour4,0.3972222222222222,-0.05787037037037037,1,0,0,6.284910100017441,number3,True,True,True,44,4,2019_Nov_21_1510,MA_Theta_Exp,3.0.7,59.78737218526582,
video/Experiment/zh_sp01_Ti_Ge_3_GlobalTheta_NoVideo.avi,globalTheta,noVideo,sp01,Ti,Ge,3,4,5,flow/blocks/GlobalTheta_NoVideo_A.csv,,,,,,,,,0,4,4,4,0,18,18,18,,,,,,,,,-0.325,-0.09953703703703703,1,0,0,5.201765399979195,call3,0.011111111111111112,0.2740740740740741,1,0,0,5.700858700001845,colour1,0.38472222222222224,-0.08564814814814815,1,0,0,6.217742300010286,number3,True,True,True,44,4,2019_Nov_21_1510,MA_Theta_Exp,3.0.7,59.78737218526582,
video/Experiment/zh_sp01_Dr_Ro_4_GlobalTheta_NoVideo.avi,globalTheta,noVideo,sp01,Dr,Ro,4,4,5,flow/blocks/GlobalTheta_NoVideo_A.csv,,,,,,,,,0,4,4,4,0,19,19,27,,,,,,,,,-0.43194444444444446,-0.30925925925925923,1,0,0,4.979373900016071,call4,-0.05416666666666667,-0.17037037037037037,1,0,0,5.3962180000089575,colour3,0.28194444444444444,-0.324537037037037,1,0,0,5.779167400003644,number4,False,True,True,44,4,2019_Nov_21_1510,MA_Theta_Exp,3.0.7,59.78737218526582,
video/Experiment/zh_sp07_Ti_Ge_2_GlobalTheta_NoVideo.avi,globalTheta,noVideo,sp07,Ti,Ge,2,4,5,flow/blocks/GlobalTheta_NoVideo_A.csv,,,,,,,,,0,4,4,4,0,20,20,1,,,,,,,,,-0.3861111111111111,-0.12314814814814815,1,0,0,4.478690699994331,call3,-0.041666666666666664,0.29768518518518516,1,0,0,5.028559600003064,colour1,0.5013888888888889,0.0837962962962963,1,0,0,5.46155809998163,number2,True,True,True,44,4,2019_Nov_21_1510,MA_Theta_Exp,3.0.7,59.78737218526582,
video/Experiment/zh_sp01_Ad_We_1_GlobalTheta_NoVideo.avi,globalTheta,noVideo,sp01,Ad,We,1,4,5,flow/blocks/GlobalTheta_NoVideo_A.csv,,,,,,,,,0,4,4,4,0,21,21,12,,,,,,,,,-0.37083333333333335,0.3435185185185185,1,0,0,5.062801499996567,call1,-0.006944444444444444,-0.3175925925925926,1,0,0,5.645592499990016,colour4,0.38055555555555554,0.2810185185185185,1,0,0,6.279345299990382,number1,True,True,True,44,4,2019_Nov_21_1510,MA_Theta_Exp,3.0.7,59.78737218526582,
video/Experiment/zh_sp01_Dr_We_2_GlobalTheta_NoVideo.avi,globalTheta,noVideo,sp01,Dr,We,2,4,5,flow/blocks/GlobalTheta_NoVideo_A.csv,,,,,,,,,0,4,4,4,0,22,22,13,,,,,,,,,-0.3680555555555556,-0.37175925925925923,1,0,0,4.942562300013378,call4,-0.005555555555555556,-0.337037037037037,1,0,0,5.325483900000108,colour4,0.3972222222222222,0.10601851851851851,1,0,0,5.97568199998932,number2,False,True,True,44,4,2019_Nov_21_1510,MA_Theta_Exp,3.0.7,59.78737218526582,
video/Experiment/zh_sp07_Un_We_4_GlobalTheta_NoVideo.avi,globalTheta,noVideo,sp07,Un,We,4,4,5,flow/blocks/GlobalTheta_NoVideo_A.csv,,,,,,,,,0,4,4,4,0,23,23,15,,,,,,,,,-0.4263888888888889,0.06018518518518518,1,0,0,4.24971249999362,call2,-0.02638888888888889,-0.2912037037037037,1,0,0,4.9988333999936,colour4,0.4444444444444444,-0.337037037037037,1,0,0,5.382996600004844,number4,False,True,True,44,4,2019_Nov_21_1510,MA_Theta_Exp,3.0.7,59.78737218526582,
video/Experiment/zh_sp07_Ad_Gr_2_GlobalTheta_NoVideo.avi,globalTheta,noVideo,sp07,Ad,Gr,2,4,5,flow/blocks/GlobalTheta_NoVideo_A.csv,,,,,,,,,0,4,4,4,0,24,24,21,,,,,,,,,-0.39861111111111114,0.3087962962962963,1,0,0,4.258749600005103,call1,0.07222222222222222,0.10185185185185185,1,0,0,4.725326499989023,colour2,0.4041666666666667,0.10185185185185185,1,0,0,5.10886930002016,number2,True,True,True,44,4,2019_Nov_21_1510,MA_Theta_Exp,3.0.7,59.78737218526582,
video/Experiment/zh_sp01_Ad_We_2_GlobalTheta_NoVideo.avi,globalTheta,noVideo,sp01,Ad,We,2,4,5,flow/blocks/GlobalTheta_NoVideo_A.csv,,,,,,,,,0,4,4,4,0,25,25,29,,,,,,,,,-0.4166666666666667,0.3101851851851852,1,0,0,5.0087567000009585,call1,-0.002777777777777778,-0.3287037037037037,1,0,0,5.609497500001453,colour4,0.3527777777777778,0.08657407407407407,1,0,0,6.103561099997023,number2,True,True,True,44,4,2019_Nov_21_1510,MA_Theta_Exp,3.0.7,59.78737218526582,
video/Experiment/zh_sp07_Un_Gr_1_GlobalTheta_NoVideo.avi,globalTheta,noVideo,sp07,Un,Gr,1,4,5,flow/blocks/GlobalTheta_NoVideo_A.csv,,,,,,,,,0,4,4,4,0,26,26,20,,,,,,,,,-0.3763888888888889,-0.09537037037037037,1,0,0,4.3900656000187155,call3,-0.03333333333333333,0.11712962962962963,1,0,0,4.83779270001105,colour2,0.4222222222222222,0.3101851851851852,1,0,0,5.25390419998439,number1,False,True,True,44,4,2019_Nov_21_1510,MA_Theta_Exp,3.0.7,59.78737218526582,
video/Experiment/zh_sp07_Dr_Gr_4_GlobalTheta_NoVideo.avi,globalTheta,noVideo,sp07,Dr,Gr,4,4,5,flow/blocks/GlobalTheta_NoVideo_A.csv,,,,,,,,,0,4,4,4,0,27,27,23,,,,,,,,,-0.3875,0.28935185185185186,1,0,0,4.416570300003514,call1,-0.04722222222222222,0.06851851851851852,1,0,0,4.883614899998065,colour2,0.42777777777777776,-0.1412037037037037,1,0,0,5.350315600022441,number3,False,True,False,44,4,2019_Nov_21_1510,MA_Theta_Exp,3.0.7,59.78737218526582,
video/Experiment/zh_sp07_Ad_Ro_1_GlobalTheta_NoVideo.avi,globalTheta,noVideo,sp07,Ad,Ro,1,4,5,flow/blocks/GlobalTheta_NoVideo_A.csv,,,,,,,,,0,4,4,4,0,28,28,8,,,,,,,,,-0.37083333333333335,0.27824074074074073,1,0,0,4.1180553999729455,call1,-0.02638888888888889,-0.13703703703703704,1,0,0,4.584694599994691,colour3,0.38333333333333336,0.2796296296296296,1,0,0,5.036047700006748,number1,True,True,True,44,4,2019_Nov_21_1510,MA_Theta_Exp,3.0.7,59.78737218526582,
video/Experiment/zh_sp07_Ad_Gr_1_GlobalTheta_NoVideo.avi,globalTheta,noVideo,sp07,Ad,Gr,1,4,5,flow/blocks/GlobalTheta_NoVideo_A.csv,,,,,,,,,0,4,4,4,0,29,29,4,,,,,,,,,-0.3736111111111111,0.287962962962963,1,0,0,4.380632099986542,call1,-0.011111111111111112,0.06157407407407407,1,0,0,4.846790799987502,colour2,0.425,0.287962962962963,1,0,0,5.296880300011253,number1,True,True,True,44,4,2019_Nov_21_1510,MA_Theta_Exp,3.0.7,59.78737218526582,
video/Experiment/zh_sp07_Ti_Ro_2_GlobalTheta_NoVideo.avi,globalTheta,noVideo,sp07,Ti,Ro,2,4,5,flow/blocks/GlobalTheta_NoVideo_A.csv,,,,,,,,,0,4,4,4,0,30,30,25,,,,,,,,,-0.4305555555555556,-0.13287037037037036,1,0,0,4.320194400002947,call3,0.001388888888888889,-0.020370370370370372,1,0,0,4.887268999998923,colour3,0.42777777777777776,0.26851851851851855,1,0,0,5.606348499975866,number1,True,True,False,44,4,2019_Nov_21_1510,MA_Theta_Exp,3.0.7,59.78737218526582,
video/Experiment/zh_sp01_Ti_Ge_1_GlobalTheta_NoVideo.avi,globalTheta,noVideo,sp01,Ti,Ge,1,4,5,flow/blocks/GlobalTheta_NoVideo_A.csv,,,,,,,,,0,4,4,4,0,31,31,16,,,,,,,,,-0.39166666666666666,-0.13425925925925927,1,0,0,4.9924675000074785,call3,-0.058333333333333334,0.28379629629629627,1,0,0,5.425559800001793,colour1,0.39444444444444443,0.27824074074074073,1,0,0,5.8419468000065535,number1,True,True,True,44,4,2019_Nov_21_1510,MA_Theta_Exp,3.0.7,59.78737218526582,
video/Experiment/zh_sp07_Ti_Gr_2_NVocInAudio_NoVideo.avi,vocoded,noVideo,sp07,Ti,Gr,2,0,2,flow/blocks/NVocInAudio_NoVideo_B.csv,,,,,,,,,,,,,,,,,0,0,0,0,0,0,0,21,-0.4027777777777778,-0.1425925925925926,1,0,0,4.742077100003371,call3,-0.04861111111111111,0.03935185185185185,1,0,0,5.191896300006192,colour2,0.41805555555555557,0.06296296296296296,1,0,0,5.62530240000342,number2,True,True,True,44,4,2019_Nov_21_1510,MA_Theta_Exp,3.0.7,59.78737218526582,
video/Experiment/zh_sp01_Ti_Gr_1_NVocInAudio_NoVideo.avi,vocoded,noVideo,sp01,Ti,Gr,1,0,2,flow/blocks/NVocInAudio_NoVideo_B.csv,,,,,,,,,,,,,,,,,0,0,0,0,0,1,1,4,-0.34444444444444444,-0.08842592592592592,1,0,0,5.107257900002878,call3,-0.041666666666666664,0.11435185185185186,1,0,0,5.523825000011129,colour2,0.4736111111111111,0.30185185185185187,1,0,0,5.940602500020759,number1,True,True,True,44,4,2019_Nov_21_1510,MA_Theta_Exp,3.0.7,59.78737218526582,
video/Experiment/zh_sp07_Un_Ge_1_NVocInAudio_NoVideo.avi,vocoded,noVideo,sp07,Un,Ge,1,0,2,flow/blocks/NVocInAudio_NoVideo_B.csv,,,,,,,,,,,,,,,,,0,0,0,0,0,2,2,0,-0.35694444444444445,-0.29259259259259257,1,0,0,4.36406100000022,call4,-0.022222222222222223,0.25601851851851853,1,0,0,5.01509050000459,colour1,0.46111111111111114,0.3296296296296296,1,0,0,5.430135700007668,number1,True,True,True,44,4,2019_Nov_21_1510,MA_Theta_Exp,3.0.7,59.78737218526582,
video/Experiment/zh_sp07_Dr_We_1_NVocInAudio_NoVideo.avi,vocoded,noVideo,sp07,Dr,We,1,0,2,flow/blocks/NVocInAudio_NoVideo_B.csv,,,,,,,,,,,,,,,,,0,0,0,0,0,3,3,28,-0.3347222222222222,0.10046296296296296,1,0,0,4.581656800000928,call2,0.020833333333333332,-0.29259259259259257,1,0,0,5.130353599990485,colour4,0.34444444444444444,0.2824074074074074,1,0,0,5.696763399988413,number1,True,True,True,44,4,2019_Nov_21_1510,MA_Theta_Exp,3.0.7,59.78737218526582,
video/Experiment/zh_sp01_Un_Ge_4_NVocInAudio_NoVideo.avi,vocoded,noVideo,sp01,Un,Ge,4,0,2,flow/blocks/NVocInAudio_NoVideo_B.csv,,,,,,,,,,,,,,,,,0,0,0,0,0,4,4,19,-0.36944444444444446,-0.3148148148148148,1,0,0,5.245668699993985,call4,0.08055555555555556,0.27546296296296297,1,0,0,5.878304700017907,colour1,0.4027777777777778,-0.2773148148148148,1,0,0,6.411678000004031,number4,True,True,True,44,4,2019_Nov_21_1510,MA_Theta_Exp,3.0.7,59.78737218526582,
video/Experiment/zh_sp01_Un_Gr_2_NVocInAudio_NoVideo.avi,vocoded,noVideo,sp01,Un,Gr,2,0,2,flow/blocks/NVocInAudio_NoVideo_B.csv,,,,,,,,,,,,,,,,,0,0,0,0,0,5,5,5,-0.44027777777777777,-0.31203703703703706,1,0,0,5.135101299994858,call4,0.07083333333333333,0.10462962962962963,1,0,0,5.634913599991705,colour2,0.4361111111111111,0.10324074074074074,1,0,0,6.06793259998085,number2,True,True,True,44,4,2019_Nov_21_1510,MA_Theta_Exp,3.0.7,59.78737218526582,
video/Experiment/zh_sp01_Ti_Gr_3_NVocInAudio_NoVideo.avi,vocoded,noVideo,sp01,Ti,Gr,3,0,2,flow/blocks/NVocInAudio_NoVideo_B.csv,,,,,,,,,,,,,,,,,0,0,0,0,0,6,6,22,-0.4222222222222222,-0.12314814814814815,1,0,0,5.111192000011215,call3,0.05,0.06712962962962964,1,0,0,5.997945600014646,colour2,0.37777777777777777,-0.053703703703703705,1,0,0,6.4137024999945424,number3,True,True,True,44,4,2019_Nov_21_1510,MA_Theta_Exp,3.0.7,59.78737218526582,
video/Experiment/zh_sp01_Un_Gr_3_NVocInAudio_NoVideo.avi,vocoded,noVideo,sp01,Un,Gr,3,0,2,flow/blocks/NVocInAudio_NoVideo_B.csv,,,,,,,,,,,,,,,,,0,0,0,0,0,7,7,6,-0.40555555555555556,-0.2912037037037037,1,0,0,4.888094299996737,call4,-0.10416666666666667,0.07268518518518519,1,0,0,5.3700409999873955,colour2,0.37777777777777777,-0.14814814814814814,1,0,0,6.084807700011879,number3,True,True,True,44,4,2019_Nov_21_1510,MA_Theta_Exp,3.0.7,59.78737218526582,
video/Experiment/zh_sp07_Un_Ro_2_NVocInAudio_NoVideo.avi,vocoded,noVideo,sp07,Un,Ro,2,0,2,flow/blocks/NVocInAudio_NoVideo_B.csv,,,,,,,,,,,,,,,,,0,0,0,0,0,8,8,9,-0.3972222222222222,-0.32592592592592595,1,0,0,4.46861889999127,call4,0.0,-0.14953703703703702,1,0,0,4.852318199991714,colour3,0.3958333333333333,0.10601851851851851,1,0,0,5.268203999992693,number2,True,True,True,44,4,2019_Nov_21_1510,MA_Theta_Exp,3.0.7,59.78737218526582,
video/Experiment/zh_sp01_Dr_Gr_1_NVocInAudio_NoVideo.avi,vocoded,noVideo,sp01,Dr,Gr,1,0,2,flow/blocks/NVocInAudio_NoVideo_B.csv,,,,,,,,,,,,,,,,,0,0,0,0,0,9,9,20,-0.43472222222222223,0.10046296296296296,1,0,0,5.156874600012088,call2,0.004166666666666667,0.13796296296296295,1,0,0,5.589750800019829,colour2,0.41805555555555557,0.2824074074074074,1,0,0,6.040232200000901,number1,True,True,True,44,4,2019_Nov_21_1510,MA_Theta_Exp,3.0.7,59.78737218526582,
video/Experiment/zh_sp01_Ad_Ge_1_NVocInAudio_NoVideo.avi,vocoded,noVideo,sp01,Ad,Ge,1,0,2,flow/blocks/NVocInAudio_NoVideo_B.csv,,,,,,,,,,,,,,,,,0,0,0,0,0,10,10,16,-0.3194444444444444,0.29074074074074074,1,0,0,5.08868759998586,call1,-0.016666666666666666,0.32407407407407407,1,0,0,5.505510399991181,colour1,0.4097222222222222,0.3143518518518518,1,0,0,5.90532799999346,number1,True,True,True,44,4,2019_Nov_21_1510,MA_Theta_Exp,3.0.7,59.78737218526582,
video/Experiment/zh_sp01_Ad_Ge_2_NVocInAudio_NoVideo.avi,vocoded,noVideo,sp01,Ad,Ge,2,0,2,flow/blocks/NVocInAudio_NoVideo_B.csv,,,,,,,,,,,,,,,,,0,0,0,0,0,11,11,1,-0.3527777777777778,0.29768518518518516,1,0,0,5.135539200011408,call1,-0.001388888888888889,0.2962962962962963,1,0,0,5.568668000021717,colour1,0.36666666666666664,0.10740740740740741,1,0,0,6.019685100007337,number2,True,True,True,44,4,2019_Nov_21_1510,MA_Theta_Exp,3.0.7,59.78737218526582,
video/Experiment/zh_sp01_Ti_We_1_NVocInAudio_NoVideo.avi,vocoded,noVideo,sp01,Ti,We,1,0,2,flow/blocks/NVocInAudio_NoVideo_B.csv,,,,,,,,,,,,,,,,,0,0,0,0,0,12,12,12,-0.3861111111111111,-0.14814814814814814,1,0,0,5.05221269998583,call3,-0.016666666666666666,-0.32037037037037036,1,0,0,5.549494200007757,colour4,0.35833333333333334,0.28935185185185186,1,0,0,6.265090300003067,number1,True,True,True,44,4,2019_Nov_21_1510,MA_Theta_Exp,3.0.7,59.78737218526582,
video/Experiment/zh_sp07_Dr_Ge_3_NVocInAudio_NoVideo.avi,vocoded,noVideo,sp07,Dr,Ge,3,0,2,flow/blocks/NVocInAudio_NoVideo_B.csv,,,,,,,,,,,,,,,,,0,0,0,0,0,13,13,2,-0.34444444444444444,0.07546296296296297,1,0,0,4.679907900019316,call2,0.04027777777777778,0.2865740740740741,1,0,0,5.147920000017621,colour1,0.3236111111111111,-0.03564814814814815,1,0,0,5.664461199979996,number3,True,True,True,44,4,2019_Nov_21_1510,MA_Theta_Exp,3.0.7,59.78737218526582,
video/Experiment/zh_sp07_Dr_Ro_1_NVocInAudio_NoVideo.avi,vocoded,noVideo,sp07,Dr,Ro,1,0,2,flow/blocks/NVocInAudio_NoVideo_B.csv,,,,,,,,,,,,,,,,,0,0,0,0,0,14,14,24,-0.41388888888888886,0.14074074074074075,1,0,0,4.215920599992387,call2,-0.011111111111111112,-0.10648148148148148,1,0,0,4.765289299975848,colour3,0.42777777777777776,0.2671296296296296,1,0,0,5.298489499982679,number1,True,True,True,44,4,2019_Nov_21_1510,MA_Theta_Exp,3.0.7,59.78737218526582,
video/Experiment/zh_sp01_Ad_Ge_4_NVocInAudio_NoVideo.avi,vocoded,noVideo,sp01,Ad,Ge,4,0,2,flow/blocks/NVocInAudio_NoVideo_B.csv,,,,,,,,,,,,,,,,,0,0,0,0,0,15,15,3,-0.35,0.3101851851851852,1,0,0,4.840445200010436,call1,-0.002777777777777778,0.29212962962962963,1,0,0,5.223574500007089,colour1,0.37222222222222223,-0.2898148148148148,1,0,0,5.82389269999112,number4,True,True,True,44,4,2019_Nov_21_1510,MA_Theta_Exp,3.0.7,59.78737218526582,
video/Experiment/zh_sp07_Ti_We_3_NVocInAudio_NoVideo.avi,vocoded,noVideo,sp07,Ti,We,3,0,2,flow/blocks/NVocInAudio_NoVideo_B.csv,,,,,,,,,,,,,,,,,0,0,0,0,0,16,16,30,-0.38333333333333336,-0.08842592592592592,1,0,0,5.0967210000089835,call3,-0.001388888888888889,-0.31342592592592594,1,0,0,5.61310859999503,colour4,0.3541666666666667,-0.1398148148148148,1,0,0,6.050236199982464,number3,True,True,True,44,4,2019_Nov_21_1510,MA_Theta_Exp,3.0.7,59.78737218526582,
video/Experiment/zh_sp07_Ad_Gr_4_NVocInAudio_NoVideo.avi,vocoded,noVideo,sp07,Ad,Gr,4,0,2,flow/blocks/NVocInAudio_NoVideo_B.csv,,,,,,,,,,,,,,,,,0,0,0,0,0,17,17,7,-0.3541666666666667,0.28935185185185186,1,0,0,4.883465200022329,call1,0.059722222222222225,0.0587962962962963,1,0,0,5.866431500006001,colour2,0.4513888888888889,-0.32731481481481484,1,0,0,6.366731299989624,number4,True,True,True,44,4,2019_Nov_21_1510,MA_Theta_Exp,3.0.7,59.78737218526582,
video/Experiment/zh_sp07_Ad_We_4_NVocInAudio_NoVideo.avi,vocoded,noVideo,sp07,Ad,We,4,0,2,flow/blocks/NVocInAudio_NoVideo_B.csv,,,,,,,,,,,,,,,,,0,0,0,0,0,18,18,31,-0.3416666666666667,0.31574074074074077,1,0,0,4.467066300014267,call1,-0.019444444444444445,-0.28564814814814815,1,0,0,5.167317000014009,colour4,0.38472222222222224,-0.30092592592592593,1,0,0,5.533504999999423,number4,True,True,True,44,4,2019_Nov_21_1510,MA_Theta_Exp,3.0.7,59.78737218526582,
video/Experiment/zh_sp07_Ti_We_2_NVocInAudio_NoVideo.avi,vocoded,noVideo,sp07,Ti,We,2,0,2,flow/blocks/NVocInAudio_NoVideo_B.csv,,,,,,,,,,,,,,,,,0,0,0,0,0,19,19,29,-0.4097222222222222,-0.07037037037037037,1,0,0,4.526887199986959,call3,0.0,-0.3106481481481482,1,0,0,4.965358899993589,colour4,0.3138888888888889,0.13935185185185187,1,0,0,5.39373219999834,number2,True,True,True,44,4,2019_Nov_21_1510,MA_Theta_Exp,3.0.7,59.78737218526582,
video/Experiment/zh_sp07_Dr_Ge_2_NVocInAudio_NoVideo.avi,vocoded,noVideo,sp07,Dr,Ge,2,0,2,flow/blocks/NVocInAudio_NoVideo_B.csv,,,,,,,,,,,,,,,,,0,0,0,0,0,20,20,17,-0.36944444444444446,0.09907407407407408,1,0,0,4.5682953000068665,call2,0.09027777777777778,0.35185185185185186,1,0,0,4.984895100002177,colour1,0.41388888888888886,0.07685185185185185,1,0,0,6.234814499999629,number2,True,True,True,44,4,2019_Nov_21_1510,MA_Theta_Exp,3.0.7,59.78737218526582,
video/Experiment/zh_sp01_Un_Gr_4_NVocInAudio_NoVideo.avi,vocoded,noVideo,sp01,Un,Gr,4,0,2,flow/blocks/NVocInAudio_NoVideo_B.csv,,,,,,,,,,,,,,,,,0,0,0,0,0,21,21,23,-0.3972222222222222,-0.29398148148148145,1,0,0,4.98530239998945,call4,-0.044444444444444446,0.07407407407407407,1,0,0,5.690682699991157,colour2,0.3236111111111111,-0.3106481481481482,1,0,0,6.201689500012435,number4,True,True,True,44,4,2019_Nov_21_1510,MA_Theta_Exp,3.0.7,59.78737218526582,
video/Experiment/zh_sp01_Un_Ro_4_NVocInAudio_NoVideo.avi,vocoded,noVideo,sp01,Un,Ro,4,0,2,flow/blocks/NVocInAudio_NoVideo_B.csv,,,,,,,,,,,,,,,,,0,0,0,0,0,22,22,27,-0.3375,-0.33564814814814814,1,0,0,5.390152100007981,call4,0.0375,-0.18425925925925926,1,0,0,5.823341300012544,colour3,0.31666666666666665,-0.3287037037037037,1,0,0,6.23960289999377,number4,True,True,True,44,4,2019_Nov_21_1510,MA_Theta_Exp,3.0.7,59.78737218526582,
video/Experiment/zh_sp01_Un_We_2_NVocInAudio_NoVideo.avi,vocoded,noVideo,sp01,Un,We,2,0,2,flow/blocks/NVocInAudio_NoVideo_B.csv,,,,,,,,,,,,,,,,,0,0,0,0,0,23,23,13,-0.4111111111111111,-0.26064814814814813,1,0,0,5.112187699996866,call4,-0.018055555555555554,-0.31342592592592594,1,0,0,5.512365600006888,colour4,0.4027777777777778,0.09490740740740741,1,0,0,6.062307199987117,number2,True,True,True,44,4,2019_Nov_21_1510,MA_Theta_Exp,3.0.7,59.78737218526582,
video/Experiment/zh_sp01_Ti_Ro_4_NVocInAudio_NoVideo.avi,vocoded,noVideo,sp01,Ti,Ro,4,0,2,flow/blocks/NVocInAudio_NoVideo_B.csv,,,,,,,,,,,,,,,,,0,0,0,0,0,24,24,11,-0.38472222222222224,-0.11203703703703703,1,0,0,5.0952945000026375,call3,-0.0375,-0.07731481481481481,1,0,0,5.544499099982204,colour3,0.4236111111111111,-0.324537037037037,1,0,0,5.961257200018736,number4,True,True,True,44,4,2019_Nov_21_1510,MA_Theta_Exp,3.0.7,59.78737218526582,
video/Experiment/zh_sp07_Dr_We_4_NVocInAudio_NoVideo.avi,vocoded,noVideo,sp07,Dr,We,4,0,2,flow/blocks/NVocInAudio_NoVideo_B.csv,,,,,,,,,,,,,,,,,0,0,0,0,0,25,25,15,-0.41805555555555557,0.09351851851851851,1,0,0,4.584350299992366,call2,-0.0375,-0.33287037037037037,1,0,0,5.201168100000359,colour4,0.3736111111111111,-0.3175925925925926,1,0,0,5.667249699996319,number4,True,True,True,44,4,2019_Nov_21_1510,MA_Theta_Exp,3.0.7,59.78737218526582,
video/Experiment/zh_sp07_Dr_Ro_3_NVocInAudio_NoVideo.avi,vocoded,noVideo,sp07,Dr,Ro,3,0,2,flow/blocks/NVocInAudio_NoVideo_B.csv,,,,,,,,,,,,,,,,,0,0,0,0,0,26,26,26,-0.3638888888888889,0.09074074074074075,1,0,0,4.652096400008304,call2,-0.041666666666666664,-0.10231481481481482,1,0,0,5.099859499983722,colour3,0.3625,-0.12175925925925926,1,0,0,5.549722600000678,number3,True,True,True,44,4,2019_Nov_21_1510,MA_Theta_Exp,3.0.7,59.78737218526582,
video/Experiment/zh_sp01_Dr_We_3_NVocInAudio_NoVideo.avi,vocoded,noVideo,sp01,Dr,We,3,0,2,flow/blocks/NVocInAudio_NoVideo_B.csv,,,,,,,,,,,,,,,,,0,0,0,0,0,27,27,14,-0.3680555555555556,0.14351851851851852,1,0,0,5.1472576999804005,call2,0.005555555555555556,-0.30648148148148147,1,0,0,5.885814999986906,colour4,0.4083333333333333,-0.18981481481481483,1,0,0,6.319053100014571,number3,True,True,True,44,4,2019_Nov_21_1510,MA_Theta_Exp,3.0.7,59.78737218526582,
video/Experiment/zh_sp07_Ad_Ro_2_NVocInAudio_NoVideo.avi,vocoded,noVideo,sp07,Ad,Ro,2,0,2,flow/blocks/NVocInAudio_NoVideo_B.csv,,,,,,,,,,,,,,,,,0,0,0,0,0,28,28,25,-0.35833333333333334,0.2962962962962963,1,0,0,4.5287707000097726,call1,0.004166666666666667,-0.15092592592592594,1,0,0,4.9785008000035305,colour3,0.3875,0.06851851851851852,1,0,0,5.428991299995687,number2,True,True,True,44,4,2019_Nov_21_1510,MA_Theta_Exp,3.0.7,59.78737218526582,
video/Experiment/zh_sp01_Ad_Ro_3_NVocInAudio_NoVideo.avi,vocoded,noVideo,sp01,Ad,Ro,3,0,2,flow/blocks/NVocInAudio_NoVideo_B.csv,,,,,,,,,,,,,,,,,0,0,0,0,0,29,29,10,-0.4125,0.31296296296296294,1,0,0,4.997144900000421,call1,0.0,-0.1050925925925926,1,0,0,5.580382899992401,colour3,0.4625,-0.08009259259259259,1,0,0,6.780704799981322,number3,True,True,True,44,4,2019_Nov_21_1510,MA_Theta_Exp,3.0.7,59.78737218526582,
video/Experiment/zh_sp07_Ti_Ro_1_NVocInAudio_NoVideo.avi,vocoded,noVideo,sp07,Ti,Ro,1,0,2,flow/blocks/NVocInAudio_NoVideo_B.csv,,,,,,,,,,,,,,,,,0,0,0,0,0,30,30,8,-0.38055555555555554,-0.11342592592592593,1,0,0,4.536514700012049,call3,-0.04861111111111111,-0.11203703703703703,1,0,0,4.953003300004639,colour3,0.36527777777777776,0.29212962962962963,1,0,0,5.5544689999951515,number1,True,True,True,44,4,2019_Nov_21_1510,MA_Theta_Exp,3.0.7,59.78737218526582,
video/Experiment/zh_sp07_Ad_Ge_3_NVocInAudio_NoVideo.avi,vocoded,noVideo,sp07,Ad,Ge,3,0,2,flow/blocks/NVocInAudio_NoVideo_B.csv,,,,,,,,,,,,,,,,,0,0,0,0,0,31,31,18,-0.4013888888888889,0.3296296296296296,1,0,0,4.530457100016065,call1,-0.005555555555555556,0.29074074074074074,1,0,0,4.929158900020411,colour1,0.41944444444444445,-0.11342592592592593,1,0,0,5.445678399992175,number3,True,True,True,44,4,2019_Nov_21_1510,MA_Theta_Exp,3.0.7,59.78737218526582,
video/Experiment/zh_sp01_Ti_Ro_2_NVocInAudio_GlobalThetaInVideo.avi,vocoded,plusVideo,sp01,Ti,Ro,2,1,1,flow/blocks/NVocInAudio_GlobalThetaInVideo_A.csv,,,,,,,,,,,,,,,,,0,1,1,1,0,0,0,25,-0.38333333333333336,-0.09537037037037037,1,0,0,6.201970699999947,call3,-0.03333333333333333,-0.11342592592592593,1,0,0,6.701093199983006,colour3,0.32916666666666666,0.11018518518518519,1,0,0,7.434129400004167,number2,True,True,True,44,4,2019_Nov_21_1510,MA_Theta_Exp,3.0.7,59.78737218526582,
video/Experiment/zh_sp01_Dr_Ro_2_NVocInAudio_GlobalThetaInVideo.avi,vocoded,plusVideo,sp01,Dr,Ro,2,1,1,flow/blocks/NVocInAudio_GlobalThetaInVideo_A.csv,,,,,,,,,,,,,,,,,0,1,1,1,0,1,1,9,-0.40555555555555556,0.10185185185185185,1,0,0,5.76632840000093,call2,0.030555555555555555,-0.11203703703703703,1,0,0,6.232399500004249,colour3,0.37916666666666665,0.0962962962962963,1,0,0,6.665456900023855,number2,True,True,True,44,4,2019_Nov_21_1510,MA_Theta_Exp,3.0.7,59.78737218526582,
video/Experiment/zh_sp07_Ti_Ge_1_NVocInAudio_GlobalThetaInVideo.avi,vocoded,plusVideo,sp07,Ti,Ge,1,1,1,flow/blocks/NVocInAudio_GlobalThetaInVideo_A.csv,,,,,,,,,,,,,,,,,0,1,1,1,0,2,2,16,-0.3486111111111111,-0.1037037037037037,1,0,0,4.872600200003944,call3,-0.05,0.25324074074074077,1,0,0,5.406431700015673,colour1,0.44583333333333336,0.2796296296296296,1,0,0,5.855531499983044,number1,True,True,True,44,4,2019_Nov_21_1510,MA_Theta_Exp,3.0.7,59.78737218526582,
video/Experiment/zh_sp01_Un_Ro_3_NVocInAudio_GlobalThetaInVideo.avi,vocoded,plusVideo,sp01,Un,Ro,3,1,1,flow/blocks/NVocInAudio_GlobalThetaInVideo_A.csv,,,,,,,,,,,,,,,,,0,1,1,1,0,3,3,26,-0.39305555555555555,-0.3037037037037037,1,0,0,4.993825700017624,call4,-0.011111111111111112,-0.1439814814814815,1,0,0,5.444520900025964,colour3,0.475,-0.12314814814814815,1,0,0,5.926377099996898,number3,True,True,True,44,4,2019_Nov_21_1510,MA_Theta_Exp,3.0.7,59.78737218526582,
video/Experiment/zh_sp07_Un_Ge_2_NVocInAudio_GlobalThetaInVideo.avi,vocoded,plusVideo,sp07,Un,Ge,2,1,1,flow/blocks/NVocInAudio_GlobalThetaInVideo_A.csv,,,,,,,,,,,,,,,,,0,1,1,1,0,4,4,17,-0.41944444444444445,-0.32314814814814813,1,0,0,4.372836099995766,call4,0.02638888888888889,0.30185185185185187,1,0,0,4.972481700009666,colour1,0.42083333333333334,0.10185185185185185,1,0,0,5.5542287999996915,number2,True,True,True,44,4,2019_Nov_21_1510,MA_Theta_Exp,3.0.7,59.78737218526582,
video/Experiment/zh_sp07_Dr_Ro_4_NVocInAudio_GlobalThetaInVideo.avi,vocoded,plusVideo,sp07,Dr,Ro,4,1,1,flow/blocks/NVocInAudio_GlobalThetaInVideo_A.csv,,,,,,,,,,,,,,,,,0,1,1,1,0,5,5,27,-0.42777777777777776,0.08935185185185185,1,0,0,4.459467100008624,call2,-0.02361111111111111,-0.1300925925925926,1,0,0,4.896946299995761,colour3,0.45416666666666666,-0.31203703703703706,1,0,0,5.35856990001048,number4,True,True,True,44,4,2019_Nov_21_1510,MA_Theta_Exp,3.0.7,59.78737218526582,
video/Experiment/zh_sp01_Un_We_3_NVocInAudio_GlobalThetaInVideo.avi,vocoded,plusVideo,sp01,Un,We,3,1,1,flow/blocks/NVocInAudio_GlobalThetaInVideo_A.csv,,,,,,,,,,,,,,,,,0,1,1,1,0,6,6,14,-0.3888888888888889,-0.2800925925925926,1,0,0,5.227957299997797,call4,-0.011111111111111112,-0.27175925925925926,1,0,0,5.728377499995986,colour4,0.3875,-0.1300925925925926,1,0,0,6.1946299000119325,number3,True,True,True,44,4,2019_Nov_21_1510,MA_Theta_Exp,3.0.7,59.78737218526582,
video/Experiment/zh_sp01_Ad_We_1_NVocInAudio_GlobalThetaInVideo.avi,vocoded,plusVideo,sp01,Ad,We,1,1,1,flow/blocks/NVocInAudio_GlobalThetaInVideo_A.csv,,,,,,,,,,,,,,,,,0,1,1,1,0,7,7,12,-0.34444444444444444,0.28379629629629627,1,0,0,5.123318400001153,call1,-0.041666666666666664,-0.2967592592592593,1,0,0,5.690212899993639,colour4,0.38333333333333336,0.25324074074074077,1,0,0,6.4059535000124015,number1,True,True,True,44,4,2019_Nov_21_1510,MA_Theta_Exp,3.0.7,59.78737218526582,
video/Experiment/zh_sp01_Un_We_4_NVocInAudio_GlobalThetaInVideo.avi,vocoded,plusVideo,sp01,Un,We,4,1,1,flow/blocks/NVocInAudio_GlobalThetaInVideo_A.csv,,,,,,,,,,,,,,,,,0,1,1,1,0,8,8,15,-0.3972222222222222,-0.33564814814814814,1,0,0,4.913409999979194,call4,0.03194444444444444,-0.3106481481481482,1,0,0,5.329930899984902,colour4,0.3625,-0.31342592592592594,1,0,0,5.747322900017025,number4,True,True,True,44,4,2019_Nov_21_1510,MA_Theta_Exp,3.0.7,59.78737218526582,
video/Experiment/zh_sp01_Ad_We_3_NVocInAudio_GlobalThetaInVideo.avi,vocoded,plusVideo,sp01,Ad,We,3,1,1,flow/blocks/NVocInAudio_GlobalThetaInVideo_A.csv,,,,,,,,,,,,,,,,,0,1,1,1,0,9,9,30,-0.3527777777777778,0.2949074074074074,1,0,0,5.178381699981401,call1,0.03611111111111111,-0.3592592592592593,1,0,0,5.876140400010627,colour4,0.3972222222222222,-0.1287037037037037,1,0,0,6.393068100005621,number3,True,True,True,44,4,2019_Nov_21_1510,MA_Theta_Exp,3.0.7,59.78737218526582,
video/Experiment/zh_sp07_Dr_Gr_2_NVocInAudio_GlobalThetaInVideo.avi,vocoded,plusVideo,sp07,Dr,Gr,2,1,1,flow/blocks/NVocInAudio_GlobalThetaInVideo_A.csv,,,,,,,,,,,,,,,,,0,1,1,1,0,10,10,5,-0.4027777777777778,0.12962962962962962,1,0,0,4.764298800000688,call2,-0.04027777777777778,0.10462962962962963,1,0,0,5.286132299981546,colour2,0.44027777777777777,0.07546296296296297,1,0,0,5.781046499992954,number2,True,True,True,44,4,2019_Nov_21_1510,MA_Theta_Exp,3.0.7,59.78737218526582,
video/Experiment/zh_sp01_Un_Gr_1_NVocInAudio_GlobalThetaInVideo.avi,vocoded,plusVideo,sp01,Un,Gr,1,1,1,flow/blocks/NVocInAudio_GlobalThetaInVideo_A.csv,,,,,,,,,,,,,,,,,0,1,1,1,0,11,11,20,-0.35694444444444445,-0.30787037037037035,1,0,0,5.179197199991904,call4,-0.0375,0.05324074074074074,1,0,0,5.613997400010703,colour2,0.40555555555555556,0.3101851851851852,1,0,0,6.046477500000037,number1,True,True,True,44,4,2019_Nov_21_1510,MA_Theta_Exp,3.0.7,59.78737218526582,
video/Experiment/zh_sp01_Un_Ro_1_NVocInAudio_GlobalThetaInVideo.avi,vocoded,plusVideo,sp01,Un,Ro,1,1,1,flow/blocks/NVocInAudio_GlobalThetaInVideo_A.csv,,,,,,,,,,,,,,,,,0,1,1,1,0,12,12,24,-0.48333333333333334,-0.3189814814814815,1,0,0,5.517835399979958,call4,-0.004166666666666667,-0.1175925925925926,1,0,0,6.665351899981033,colour3,0.49583333333333335,0.3351851851851852,1,0,0,7.1654512000095565,number1,True,True,True,44,4,2019_Nov_21_1510,MA_Theta_Exp,3.0.7,59.78737218526582,
video/Experiment/zh_sp01_Dr_We_2_NVocInAudio_GlobalThetaInVideo.avi,vocoded,plusVideo,sp01,Dr,We,2,1,1,flow/blocks/NVocInAudio_GlobalThetaInVideo_A.csv,,,,,,,,,,,,,,,,,0,1,1,1,0,13,13,13,-0.37777777777777777,0.11435185185185186,1,0,0,5.218157900002552,call2,-0.0125,-0.2912037037037037,1,0,0,5.782752200000687,colour4,0.37083333333333335,0.0837962962962963,1,0,0,6.282881599996472,number2,True,True,True,44,4,2019_Nov_21_1510,MA_Theta_Exp,3.0.7,59.78737218526582,
