videoFile,condition,video,speaker,callSign,colour,number,seq,id,block,exp.thisRepN,exp.thisTrialN,exp.thisN,exp.thisIndex,training.thisRepN,training.thisTrialN,training.thisN,training.thisIndex,firstHalf.thisRepN,firstHalf.thisTrialN,firstHalf.thisN,firstHalf.thisIndex,blocksA.thisRepN,blocksA.thisTrialN,blocksA.thisN,blocksA.thisIndex,secondHalf.thisRepN,secondHalf.thisTrialN,secondHalf.thisN,secondHalf.thisIndex,blocksB.thisRepN,blocksB.thisTrialN,blocksB.thisN,blocksB.thisIndex,mouseClickOnCall.x,mouseClickOnCall.y,mouseClickOnCall.leftButton,mouseClickOnCall.midButton,mouseClickOnCall.rightButton,mouseClickOnCall.time,mouseClickOnCall.clicked_name,mouseClickOnColour.x,mouseClickOnColour.y,mouseClickOnColour.leftButton,mouseClickOnColour.midButton,mouseClickOnColour.rightButton,mouseClickOnColour.time,mouseClickOnColour.clicked_name,mouseClickOnNumber.x,mouseClickOnNumber.y,mouseClickOnNumber.leftButton,mouseClickOnNumber.midButton,mouseClickOnNumber.rightButton,mouseClickOnNumber.time,mouseClickOnNumber.clicked_name,callSignCorrect,colourCorrect,numberCorrect,participant,order,date,expName,psychopyVersion,frameRate,
video/Training/zh_sp01_Ad_We_4_NVocInAudio_NoVideo.avi,vocoded,noVideo,sp01,Ad,We,4,,,,,,,,0,0,0,0,,,,,,,,,,,,,,,,,-0.45185185185185184,0.3282407407407407,1,0,0,5.696185599983437,call1,-0.031018518518518518,-0.3148148148148148,1,0,0,6.793289599998388,colour4,0.44814814814814813,-0.32175925925925924,1,0,0,7.393928899982711,number4,True,True,True,45,5,2019_Nov_21_1704,MA_Theta_Exp,3.0.7,60.17947927599999,
video/Training/zh_sp07_Ad_Ge_3_NVocInAudio_NoVideo.avi,vocoded,noVideo,sp07,Ad,Ge,3,,,,,,,,0,1,1,1,,,,,,,,,,,,,,,,,-0.43657407407407406,0.31574074074074077,1,0,0,4.790304299996933,call1,0.023148148148148147,0.30462962962962964,1,0,0,5.637283899995964,colour1,0.43842592592592594,-0.10925925925925926,1,0,0,6.3183709000004455,number3,True,True,True,45,5,2019_Nov_21_1704,MA_Theta_Exp,3.0.7,60.17947927599999,
video/Training/zh_sp01_Dr_Ro_3_NVocInAudio_GlobalThetaInVideo.avi,vocoded,plusVideo,sp01,Dr,Ro,3,,,,,,,,0,2,2,2,,,,,,,,,,,,,,,,,-0.4101851851851852,0.11018518518518519,1,0,0,5.374668700009352,call2,0.016203703703703703,-0.1175925925925926,1,0,0,6.3950941000075545,colour3,0.3925925925925926,-0.13148148148148148,1,0,0,6.877167800004827,number3,True,True,True,45,5,2019_Nov_21_1704,MA_Theta_Exp,3.0.7,60.17947927599999,
video/Training/zh_sp07_Dr_Gr_4_NVocInAudio_GlobalThetaInVideo.avi,vocoded,plusVideo,sp07,Dr,Gr,4,,,,,,,,0,3,3,3,,,,,,,,,,,,,,,,,-0.42962962962962964,0.11296296296296296,1,0,0,4.846621700009564,call2,0.08703703703703704,0.07962962962962963,1,0,0,5.443881100014551,colour2,0.47453703703703703,-0.3175925925925926,1,0,0,6.110254999977769,number4,True,True,True,45,5,2019_Nov_21_1704,MA_Theta_Exp,3.0.7,60.17947927599999,
video/Training/zh_sp01_Ti_Gr_2_NoThetaInAudio_NoVideo.avi,noTheta,noVideo,sp01,Ti,Gr,2,,,,,,,,0,4,4,4,,,,,,,,,,,,,,,,,-0.42268518518518516,0.33101851851851855,1,0,0,5.792517800000496,call1,0.03287037037037037,-0.32037037037037036,1,0,0,7.325301200005924,colour4,0.43703703703703706,0.1337962962962963,1,0,0,8.009985499986215,number2,False,False,True,45,5,2019_Nov_21_1704,MA_Theta_Exp,3.0.7,60.17947927599999,
video/Training/zh_sp07_Ti_Ro_1_NoThetaInAudio_NoVideo.avi,noTheta,noVideo,sp07,Ti,Ro,1,,,,,,,,0,5,5,5,,,,,,,,,,,,,,,,,-0.41435185185185186,-0.08981481481481482,1,0,0,5.185377499990864,call3,-0.0032407407407407406,0.300462962962963,1,0,0,6.735248199984198,colour1,0.43842592592592594,0.30185185185185187,1,0,0,7.4397996999905445,number1,True,False,True,45,5,2019_Nov_21_1704,MA_Theta_Exp,3.0.7,60.17947927599999,
video/Training/zh_sp01_Un_Ge_1_NoThetaInAudio_GlobalThetaInVideo.avi,noTheta,plusVideo,sp01,Un,Ge,1,,,,,,,,0,6,6,6,,,,,,,,,,,,,,,,,-0.45740740740740743,-0.3523148148148148,1,0,0,5.311819199996535,call4,-0.012962962962962963,0.3449074074074074,1,0,0,6.193270199990366,colour1,0.449537037037037,0.33240740740740743,1,0,0,6.884201900014887,number1,True,True,True,45,5,2019_Nov_21_1704,MA_Theta_Exp,3.0.7,60.17947927599999,
video/Training/zh_sp07_Un_We_2_NoThetaInAudio_GlobalThetaInVideo.avi,noTheta,plusVideo,sp07,Un,We,2,,,,,,,,0,7,7,7,,,,,,,,,,,,,,,,,-0.412962962962963,-0.3162037037037037,1,0,0,4.659158099995693,call4,0.060648148148148145,-0.2953703703703704,1,0,0,5.308734399994137,colour4,0.4148148148148148,0.10740740740740741,1,0,0,5.989897900028154,number2,True,True,True,45,5,2019_Nov_21_1704,MA_Theta_Exp,3.0.7,60.17947927599999,
video/Training/zh_sp01_Ad_Ge_1_GlobalTheta_NoVideo.avi,globalTheta,noVideo,sp01,Ad,Ge,1,,,,,,,,0,8,8,8,,,,,,,,,,,,,,,,,-0.4449074074074074,0.3199074074074074,1,0,0,5.6879315999976825,call1,0.009259259259259259,0.05740740740740741,1,0,0,6.66150529999868,colour2,0.47314814814814815,0.37824074074074077,1,0,0,7.275981699989643,number1,True,False,True,45,5,2019_Nov_21_1704,MA_Theta_Exp,3.0.7,60.17947927599999,
video/Training/zh_sp07_Ad_Ro_3_GlobalTheta_NoVideo.avi,globalTheta,noVideo,sp07,Ad,Ro,3,,,,,,,,0,9,9,9,,,,,,,,,,,,,,,,,-0.42824074074074076,0.33101851851851855,1,0,0,4.518324900011066,call1,-0.014351851851851852,0.31574074074074077,1,0,0,5.983201800001552,colour1,0.4287037037037037,-0.10648148148148148,1,0,0,6.651523600012297,number3,True,False,True,45,5,2019_Nov_21_1704,MA_Theta_Exp,3.0.7,60.17947927599999,
video/Experiment/zh_sp07_Ti_Ge_3_NoThetaInAudio_NoVideo.avi,noTheta,noVideo,sp07,Ti,Ge,3,0,4,flow/blocks/NoThetaInAudio_NoVideo_A.csv,,,,,,,,,0,0,0,0,0,0,0,18,,,,,,,,,-0.36018518518518516,-0.11898148148148148,1,0,0,6.753866499988362,call3,0.024537037037037038,-0.10648148148148148,1,0,0,7.447068500012392,colour3,0.39814814814814814,-0.13148148148148148,1,0,0,7.903642600023886,number3,True,False,True,45,5,2019_Nov_21_1704,MA_Theta_Exp,3.0.7,60.17947927599999,
video/Experiment/zh_sp07_Ad_Gr_2_NoThetaInAudio_NoVideo.avi,noTheta,noVideo,sp07,Ad,Gr,2,0,4,flow/blocks/NoThetaInAudio_NoVideo_A.csv,,,,,,,,,0,0,0,0,0,1,1,21,,,,,,,,,-0.3976851851851852,0.3365740740740741,1,0,0,4.473331499990309,call1,-0.011574074074074073,0.04490740740740741,1,0,0,5.851065399998333,colour2,0.4412037037037037,0.07407407407407407,1,0,0,6.322858500003349,number2,True,True,True,45,5,2019_Nov_21_1704,MA_Theta_Exp,3.0.7,60.17947927599999,
video/Experiment/zh_sp07_Ad_Ro_4_NoThetaInAudio_NoVideo.avi,noTheta,noVideo,sp07,Ad,Ro,4,0,4,flow/blocks/NoThetaInAudio_NoVideo_A.csv,,,,,,,,,0,0,0,0,0,2,2,11,,,,,,,,,-0.42268518518518516,0.27685185185185185,1,0,0,4.602653099980671,call1,0.01898148148148148,-0.12175925925925926,1,0,0,5.271520200010855,colour3,0.47175925925925927,-0.38564814814814813,1,0,0,5.856069300003583,number4,True,True,True,45,5,2019_Nov_21_1704,MA_Theta_Exp,3.0.7,60.17947927599999,
video/Experiment/zh_sp01_Ad_Gr_3_NoThetaInAudio_NoVideo.avi,noTheta,noVideo,sp01,Ad,Gr,3,0,4,flow/blocks/NoThetaInAudio_NoVideo_A.csv,,,,,,,,,0,0,0,0,0,3,3,22,,,,,,,,,-0.46296296296296297,0.2935185185185185,1,0,0,5.02984109998215,call1,0.04259259259259259,0.08518518518518518,1,0,0,5.647866399987834,colour2,0.4287037037037037,-0.13564814814814816,1,0,0,6.214225700008683,number3,True,True,True,45,5,2019_Nov_21_1704,MA_Theta_Exp,3.0.7,60.17947927599999,
video/Experiment/zh_sp01_Dr_Gr_4_NoThetaInAudio_NoVideo.avi,noTheta,noVideo,sp01,Dr,Gr,4,0,4,flow/blocks/NoThetaInAudio_NoVideo_A.csv,,,,,,,,,0,0,0,0,0,4,4,23,,,,,,,,,-0.43657407407407406,-0.3037037037037037,1,0,0,5.654914100014139,call4,-0.000462962962962963,-0.0912037037037037,1,0,0,6.355766200023936,colour3,0.4912037037037037,-0.30092592592592593,1,0,0,6.895013199973619,number4,False,False,True,45,5,2019_Nov_21_1704,MA_Theta_Exp,3.0.7,60.17947927599999,
video/Experiment/zh_sp07_Ti_Ro_3_NoThetaInAudio_NoVideo.avi,noTheta,noVideo,sp07,Ti,Ro,3,0,4,flow/blocks/NoThetaInAudio_NoVideo_A.csv,,,,,,,,,0,0,0,0,0,5,5,10,,,,,,,,,-0.3907407407407407,-0.1162037037037037,1,0,0,5.691969299979974,call3,0.016203703703703703,0.2935185185185185,1,0,0,8.614146100007929,colour1,0.4078703703703704,-0.11203703703703703,1,0,0,9.236127700016368,number3,True,False,True,45,5,2019_Nov_21_1704,MA_Theta_Exp,3.0.7,60.17947927599999,
video/Experiment/zh_sp01_Un_We_4_NoThetaInAudio_NoVideo.avi,noTheta,noVideo,sp01,Un,We,4,0,4,flow/blocks/NoThetaInAudio_NoVideo_A.csv,,,,,,,,,0,0,0,0,0,6,6,15,,,,,,,,,-0.42685185185185187,-0.30787037037037035,1,0,0,5.141046600008849,call4,-0.007407407407407408,-0.3189814814814815,1,0,0,5.823940800008131,colour4,0.4648148148148148,-0.32592592592592595,1,0,0,6.378072999999858,number4,True,True,True,45,5,2019_Nov_21_1704,MA_Theta_Exp,3.0.7,60.17947927599999,
video/Experiment/zh_sp01_Un_We_3_NoThetaInAudio_NoVideo.avi,noTheta,noVideo,sp01,Un,We,3,0,4,flow/blocks/NoThetaInAudio_NoVideo_A.csv,,,,,,,,,0,0,0,0,0,7,7,14,,,,,,,,,-0.40879629629629627,-0.29398148148148145,1,0,0,4.845296800020151,call4,0.05787037037037037,-0.31342592592592594,1,0,0,5.472891799989156,colour4,0.3773148148148148,-0.10648148148148148,1,0,0,6.160267200000817,number3,True,True,True,45,5,2019_Nov_21_1704,MA_Theta_Exp,3.0.7,60.17947927599999,
video/Experiment/zh_sp01_Un_Gr_1_NoThetaInAudio_NoVideo.avi,noTheta,noVideo,sp01,Un,Gr,1,0,4,flow/blocks/NoThetaInAudio_NoVideo_A.csv,,,,,,,,,0,0,0,0,0,8,8,20,,,,,,,,,-0.39351851851851855,-0.2884259259259259,1,0,0,4.930354600015562,call4,0.003703703703703704,0.09907407407407408,1,0,0,5.914022900018608,colour2,0.41759259259259257,0.2949074074074074,1,0,0,6.9135001999966335,number1,True,True,True,45,5,2019_Nov_21_1704,MA_Theta_Exp,3.0.7,60.17947927599999,
video/Experiment/zh_sp01_Ad_Gr_1_NoThetaInAudio_NoVideo.avi,noTheta,noVideo,sp01,Ad,Gr,1,0,4,flow/blocks/NoThetaInAudio_NoVideo_A.csv,,,,,,,,,0,0,0,0,0,9,9,4,,,,,,,,,-0.4449074074074074,0.30185185185185187,1,0,0,6.172996699984651,call1,-0.010185185185185186,0.09351851851851851,1,0,0,6.872080200002529,colour2,0.399537037037037,0.27685185185185185,1,0,0,7.4110535999934655,number1,True,True,True,45,5,2019_Nov_21_1704,MA_Theta_Exp,3.0.7,60.17947927599999,
video/Experiment/zh_sp01_Dr_Gr_3_NoThetaInAudio_NoVideo.avi,noTheta,noVideo,sp01,Dr,Gr,3,0,4,flow/blocks/NoThetaInAudio_NoVideo_A.csv,,,,,,,,,0,0,0,0,0,10,10,6,,,,,,,,,-0.40324074074074073,0.12129629629629629,1,0,0,5.356872300006216,call2,0.005092592592592593,0.11712962962962963,1,0,0,5.991938999999547,colour2,0.449537037037037,-0.15648148148148147,1,0,0,6.655669999978272,number3,True,True,True,45,5,2019_Nov_21_1704,MA_Theta_Exp,3.0.7,60.17947927599999,
video/Experiment/zh_sp07_Ti_Gr_4_NoThetaInAudio_NoVideo.avi,noTheta,noVideo,sp07,Ti,Gr,4,0,4,flow/blocks/NoThetaInAudio_NoVideo_A.csv,,,,,,,,,0,0,0,0,0,11,11,7,,,,,,,,,-0.4115740740740741,-0.10092592592592593,1,0,0,4.774110400001518,call3,0.02175925925925926,0.11018518518518519,1,0,0,5.344687700009672,colour2,0.38981481481481484,-0.2967592592592593,1,0,0,5.940892300015548,number4,True,True,True,45,5,2019_Nov_21_1704,MA_Theta_Exp,3.0.7,60.17947927599999,
video/Experiment/zh_sp07_Dr_Ro_4_NoThetaInAudio_NoVideo.avi,noTheta,noVideo,sp07,Dr,Ro,4,0,4,flow/blocks/NoThetaInAudio_NoVideo_A.csv,,,,,,,,,0,0,0,0,0,12,12,27,,,,,,,,,-0.3824074074074074,0.08518518518518518,1,0,0,8.072532299993327,call2,0.03287037037037037,-0.16064814814814815,1,0,0,9.322808099997928,colour3,0.4550925925925926,-0.31342592592592594,1,0,0,9.92255750001641,number4,True,True,True,45,5,2019_Nov_21_1704,MA_Theta_Exp,3.0.7,60.17947927599999,
video/Experiment/zh_sp07_Ti_Ge_4_NoThetaInAudio_NoVideo.avi,noTheta,noVideo,sp07,Ti,Ge,4,0,4,flow/blocks/NoThetaInAudio_NoVideo_A.csv,,,,,,,,,0,0,0,0,0,13,13,3,,,,,,,,,-0.42407407407407405,-0.09537037037037037,1,0,0,5.618268999998691,call3,-0.021296296296296296,0.3087962962962963,1,0,0,6.831140200025402,colour1,0.41064814814814815,-0.2884259259259259,1,0,0,7.605533399997512,number4,True,True,True,45,5,2019_Nov_21_1704,MA_Theta_Exp,3.0.7,60.17947927599999,
video/Experiment/zh_sp07_Dr_Ge_4_NoThetaInAudio_NoVideo.avi,noTheta,noVideo,sp07,Dr,Ge,4,0,4,flow/blocks/NoThetaInAudio_NoVideo_A.csv,,,,,,,,,0,0,0,0,0,14,14,19,,,,,,,,,-0.43796296296296294,0.27546296296296297,1,0,0,5.9251167999755125,call1,-0.014351851851851852,0.31157407407407406,1,0,0,8.407929499982856,colour1,0.47314814814814815,-0.36342592592592593,1,0,0,9.153103499993449,number4,False,True,True,45,5,2019_Nov_21_1704,MA_Theta_Exp,3.0.7,60.17947927599999,
video/Experiment/zh_sp01_Un_Ro_1_NoThetaInAudio_NoVideo.avi,noTheta,noVideo,sp01,Un,Ro,1,0,4,flow/blocks/NoThetaInAudio_NoVideo_A.csv,,,,,,,,,0,0,0,0,0,15,15,24,,,,,,,,,-0.36712962962962964,-0.3106481481481482,1,0,0,5.051100800017593,call4,-0.02962962962962963,0.09490740740740741,1,0,0,5.551712299988139,colour2,0.4078703703703704,0.34074074074074073,1,0,0,6.015328799985582,number1,True,False,True,45,5,2019_Nov_21_1704,MA_Theta_Exp,3.0.7,60.17947927599999,
video/Experiment/zh_sp07_Ti_Ge_2_NoThetaInAudio_NoVideo.avi,noTheta,noVideo,sp07,Ti,Ge,2,0,4,flow/blocks/NoThetaInAudio_NoVideo_A.csv,,,,,,,,,0,0,0,0,0,16,16,1,,,,,,,,,-0.412962962962963,-0.11898148148148148,1,0,0,4.60576000000583,call3,-0.021296296296296296,0.3143518518518518,1,0,0,5.440231299988227,colour1,0.35648148148148145,0.06574074074074074,1,0,0,6.327610000007553,number2,True,True,True,45,5,2019_Nov_21_1704,MA_Theta_Exp,3.0.7,60.17947927599999,
video/Experiment/zh_sp01_Ad_We_3_NoThetaInAudio_NoVideo.avi,noTheta,noVideo,sp01,Ad,We,3,0,4,flow/blocks/NoThetaInAudio_NoVideo_A.csv,,,,,,,,,0,0,0,0,0,17,17,30,,,,,,,,,-0.39351851851851855,0.35324074074074074,1,0,0,4.984143099980429,call1,0.025925925925925925,-0.37175925925925923,1,0,0,5.818759199988563,colour4,0.36342592592592593,-0.1162037037037037,1,0,0,6.617427099990891,number3,True,True,True,45,5,2019_Nov_21_1704,MA_Theta_Exp,3.0.7,60.17947927599999,
video/Experiment/zh_sp07_Ti_Ro_2_NoThetaInAudio_NoVideo.avi,noTheta,noVideo,sp07,Ti,Ro,2,0,4,flow/blocks/NoThetaInAudio_NoVideo_A.csv,,,,,,,,,0,0,0,0,0,18,18,25,,,,,,,,,-0.4115740740740741,-0.1259259259259259,1,0,0,4.760277199995471,call3,0.006481481481481481,-0.26342592592592595,1,0,0,6.636728500016034,colour4,0.4064814814814815,0.10601851851851851,1,0,0,7.330993800016586,number2,True,False,True,45,5,2019_Nov_21_1704,MA_Theta_Exp,3.0.7,60.17947927599999,
video/Experiment/zh_sp01_Ti_We_4_NoThetaInAudio_NoVideo.avi,noTheta,noVideo,sp01,Ti,We,4,0,4,flow/blocks/NoThetaInAudio_NoVideo_A.csv,,,,,,,,,0,0,0,0,0,19,19,31,,,,,,,,,-0.37546296296296294,0.30324074074074076,1,0,0,5.844624500023201,call1,0.03425925925925926,-0.34953703703703703,1,0,0,6.561618100007763,colour4,0.399537037037037,-0.33287037037037037,1,0,0,7.076970099995378,number4,False,True,True,45,5,2019_Nov_21_1704,MA_Theta_Exp,3.0.7,60.17947927599999,
video/Experiment/zh_sp01_Dr_We_2_NoThetaInAudio_NoVideo.avi,noTheta,noVideo,sp01,Dr,We,2,0,4,flow/blocks/NoThetaInAudio_NoVideo_A.csv,,,,,,,,,0,0,0,0,0,20,20,13,,,,,,,,,-0.4337962962962963,0.33796296296296297,1,0,0,5.8641857000184245,call1,0.03009259259259259,-0.2953703703703704,1,0,0,6.631424100021832,colour4,0.3592592592592593,0.09074074074074075,1,0,0,7.12541889998829,number2,False,True,True,45,5,2019_Nov_21_1704,MA_Theta_Exp,3.0.7,60.17947927599999,
video/Experiment/zh_sp07_Un_We_1_NoThetaInAudio_NoVideo.avi,noTheta,noVideo,sp07,Un,We,1,0,4,flow/blocks/NoThetaInAudio_NoVideo_A.csv,,,,,,,,,0,0,0,0,0,21,21,28,,,,,,,,,-0.41574074074074074,-0.2689814814814815,1,0,0,4.456116000015754,call4,0.006481481481481481,-0.31342592592592594,1,0,0,4.980258800002048,colour4,0.3648148148148148,0.30462962962962964,1,0,0,5.598666899983073,number1,True,True,True,45,5,2019_Nov_21_1704,MA_Theta_Exp,3.0.7,60.17947927599999,
video/Experiment/zh_sp01_Dr_Ro_2_NoThetaInAudio_NoVideo.avi,noTheta,noVideo,sp01,Dr,Ro,2,0,4,flow/blocks/NoThetaInAudio_NoVideo_A.csv,,,,,,,,,0,0,0,0,0,22,22,9,,,,,,,,,-0.44074074074074077,0.2972222222222222,1,0,0,5.4122658999986015,call1,-0.001851851851851852,-0.12083333333333333,1,0,0,6.112205000012182,colour3,0.43425925925925923,0.12083333333333333,1,0,0,6.562031599984039,number2,False,True,True,45,5,2019_Nov_21_1704,MA_Theta_Exp,3.0.7,60.17947927599999,
video/Experiment/zh_sp07_Un_Ge_3_NoThetaInAudio_NoVideo.avi,noTheta,noVideo,sp07,Un,Ge,3,0,4,flow/blocks/NoThetaInAudio_NoVideo_A.csv,,,,,,,,,0,0,0,0,0,23,23,2,,,,,,,,,-0.4351851851851852,-0.3458333333333333,1,0,0,4.3732803000020795,call4,-0.018518518518518517,0.36944444444444446,1,0,0,5.124087000003783,colour1,0.44675925925925924,-0.12638888888888888,1,0,0,5.891863500000909,number3,True,True,True,45,5,2019_Nov_21_1704,MA_Theta_Exp,3.0.7,60.17947927599999,
video/Experiment/zh_sp07_Ad_We_2_NoThetaInAudio_NoVideo.avi,noTheta,noVideo,sp07,Ad,We,2,0,4,flow/blocks/NoThetaInAudio_NoVideo_A.csv,,,,,,,,,0,0,0,0,0,24,24,29,,,,,,,,,-0.39490740740740743,0.33194444444444443,1,0,0,4.328733200003626,call1,0.062037037037037036,-0.3763888888888889,1,0,0,5.021477300004335,colour4,0.37175925925925923,0.11944444444444445,1,0,0,5.787693799997214,number2,True,True,True,45,5,2019_Nov_21_1704,MA_Theta_Exp,3.0.7,60.17947927599999,
video/Experiment/zh_sp01_Un_Ro_3_NoThetaInAudio_NoVideo.avi,noTheta,noVideo,sp01,Un,Ro,3,0,4,flow/blocks/NoThetaInAudio_NoVideo_A.csv,,,,,,,,,0,0,0,0,0,25,25,26,,,,,,,,,-0.4060185185185185,-0.3287037037037037,1,0,0,4.844101399998181,call4,0.006481481481481481,-0.09398148148148149,1,0,0,5.422272600000724,colour3,0.462037037037037,-0.08842592592592592,1,0,0,5.955141100013861,number3,True,True,True,45,5,2019_Nov_21_1704,MA_Theta_Exp,3.0.7,60.17947927599999,
video/Experiment/zh_sp07_Dr_Gr_2_NoThetaInAudio_NoVideo.avi,noTheta,noVideo,sp07,Dr,Gr,2,0,4,flow/blocks/NoThetaInAudio_NoVideo_A.csv,,,,,,,,,0,0,0,0,0,26,26,5,,,,,,,,,-0.33796296296296297,-0.07453703703703704,1,0,0,4.362994199997047,call3,0.027314814814814816,0.09490740740740741,1,0,0,4.911704700003611,colour2,0.4217592592592593,0.11712962962962963,1,0,0,5.396749900013674,number2,False,True,True,45,5,2019_Nov_21_1704,MA_Theta_Exp,3.0.7,60.17947927599999,
video/Experiment/zh_sp01_Ad_Ro_1_NoThetaInAudio_NoVideo.avi,noTheta,noVideo,sp01,Ad,Ro,1,0,4,flow/blocks/NoThetaInAudio_NoVideo_A.csv,,,,,,,,,0,0,0,0,0,27,27,8,,,,,,,,,-0.4532407407407407,0.30462962962962964,1,0,0,5.074867200019071,call1,-0.001851851851851852,-0.1037037037037037,1,0,0,5.67517990001943,colour3,0.43425925925925923,0.362962962962963,1,0,0,6.2788423000019975,number1,True,True,True,45,5,2019_Nov_21_1704,MA_Theta_Exp,3.0.7,60.17947927599999,
video/Experiment/zh_sp07_Un_Ge_2_NoThetaInAudio_NoVideo.avi,noTheta,noVideo,sp07,Un,Ge,2,0,4,flow/blocks/NoThetaInAudio_NoVideo_A.csv,,,,,,,,,0,0,0,0,0,28,28,17,,,,,,,,,-0.4337962962962963,-0.32731481481481484,1,0,0,4.61947340000188,call4,-0.0060185185185185185,0.13796296296296295,1,0,0,5.228183800005354,colour2,0.4634259259259259,0.06851851851851852,1,0,0,5.683256599993911,number2,True,False,True,45,5,2019_Nov_21_1704,MA_Theta_Exp,3.0.7,60.17947927599999,
video/Experiment/zh_sp01_Ti_Ge_1_NoThetaInAudio_NoVideo.avi,noTheta,noVideo,sp01,Ti,Ge,1,0,4,flow/blocks/NoThetaInAudio_NoVideo_A.csv,,,,,,,,,0,0,0,0,0,29,29,16,,,,,,,,,-0.41435185185185186,-0.11203703703703703,1,0,0,5.106282199994894,call3,0.04259259259259259,0.37962962962962965,1,0,0,5.764752200018847,colour1,0.399537037037037,0.33101851851851855,1,0,0,6.317354600003455,number1,True,True,True,45,5,2019_Nov_21_1704,MA_Theta_Exp,3.0.7,60.17947927599999,
video/Experiment/zh_sp01_Ad_We_1_NoThetaInAudio_NoVideo.avi,noTheta,noVideo,sp01,Ad,We,1,0,4,flow/blocks/NoThetaInAudio_NoVideo_A.csv,,,,,,,,,0,0,0,0,0,30,30,12,,,,,,,,,-0.43657407407407406,0.3087962962962963,1,0,0,5.478543600009289,call1,0.013425925925925926,-0.3731481481481482,1,0,0,6.205165000021225,colour4,0.41759259259259257,0.3365740740740741,1,0,0,6.916539500001818,number1,True,True,True,45,5,2019_Nov_21_1704,MA_Theta_Exp,3.0.7,60.17947927599999,
video/Experiment/zh_sp07_Dr_Ge_1_NoThetaInAudio_NoVideo.avi,noTheta,noVideo,sp07,Dr,Ge,1,0,4,flow/blocks/NoThetaInAudio_NoVideo_A.csv,,,,,,,,,0,0,0,0,0,31,31,0,,,,,,,,,-0.39351851851851855,-0.29398148148148145,1,0,0,4.3585734000080265,call4,0.03287037037037037,0.36574074074074076,1,0,0,5.068957500014221,colour1,0.4023148148148148,0.3060185185185185,1,0,0,5.626002400007565,number1,False,True,True,45,5,2019_Nov_21_1704,MA_Theta_Exp,3.0.7,60.17947927599999,
video/Experiment/zh_sp07_Ti_Gr_2_NVocInAudio_NoVideo.avi,vocoded,noVideo,sp07,Ti,Gr,2,1,2,flow/blocks/NVocInAudio_NoVideo_B.csv,,,,,,,,,0,1,1,1,0,0,0,21,,,,,,,,,-0.3837962962962963,-0.15787037037037038,1,0,0,4.6606522999936715,call3,-0.01990740740740741,0.13518518518518519,1,0,0,5.270508100016741,colour2,0.3787037037037037,0.11851851851851852,1,0,0,5.763481399975717,number2,True,True,True,45,5,2019_Nov_21_1704,MA_Theta_Exp,3.0.7,60.17947927599999,
video/Experiment/zh_sp01_Ti_Ro_4_NVocInAudio_NoVideo.avi,vocoded,noVideo,sp01,Ti,Ro,4,1,2,flow/blocks/NVocInAudio_NoVideo_B.csv,,,,,,,,,0,1,1,1,0,1,1,11,,,,,,,,,-0.41574074074074074,-0.12453703703703704,1,0,0,4.982536700001219,call3,-0.026851851851851852,-0.0912037037037037,1,0,0,5.534271600015927,colour3,0.39675925925925926,-0.2912037037037037,1,0,0,6.241546600009315,number4,True,True,True,45,5,2019_Nov_21_1704,MA_Theta_Exp,3.0.7,60.17947927599999,
video/Experiment/zh_sp01_Dr_We_3_NVocInAudio_NoVideo.avi,vocoded,noVideo,sp01,Dr,We,3,1,2,flow/blocks/NVocInAudio_NoVideo_B.csv,,,,,,,,,0,1,1,1,0,2,2,14,,,,,,,,,-0.38657407407407407,0.11018518518518519,1,0,0,5.088104700000258,call2,-0.01574074074074074,-0.3662037037037037,1,0,0,5.72087140000076,colour4,0.3592592592592593,-0.1050925925925926,1,0,0,6.833235900005093,number3,True,True,True,45,5,2019_Nov_21_1704,MA_Theta_Exp,3.0.7,60.17947927599999,
video/Experiment/zh_sp01_Ad_Ge_4_NVocInAudio_NoVideo.avi,vocoded,noVideo,sp01,Ad,Ge,4,1,2,flow/blocks/NVocInAudio_NoVideo_B.csv,,,,,,,,,0,1,1,1,0,3,3,3,,,,,,,,,-0.39490740740740743,0.30185185185185187,1,0,0,4.909643699997105,call1,0.013425925925925926,0.30462962962962964,1,0,0,5.538266399991699,colour1,0.41064814814814815,-0.25787037037037036,1,0,0,6.12132279999787,number4,True,True,True,45,5,2019_Nov_21_1704,MA_Theta_Exp,3.0.7,60.17947927599999,
video/Experiment/zh_sp01_Ad_Ge_1_NVocInAudio_NoVideo.avi,vocoded,noVideo,sp01,Ad,Ge,1,1,2,flow/blocks/NVocInAudio_NoVideo_B.csv,,,,,,,,,0,1,1,1,0,4,4,16,,,,,,,,,-0.3851851851851852,0.30462962962962964,1,0,0,4.969521999999415,call1,0.03425925925925926,0.2810185185185185,1,0,0,5.534681799996179,colour1,0.47175925925925927,0.2865740740740741,1,0,0,6.033338299981551,number1,True,True,True,45,5,2019_Nov_21_1704,MA_Theta_Exp,3.0.7,60.17947927599999,
video/Experiment/zh_sp07_Ti_We_3_NVocInAudio_NoVideo.avi,vocoded,noVideo,sp07,Ti,We,3,1,2,flow/blocks/NVocInAudio_NoVideo_B.csv,,,,,,,,,0,1,1,1,0,5,5,30,,,,,,,,,-0.40046296296296297,-0.10787037037037037,1,0,0,5.042801699979464,call3,0.062037037037037036,-0.36342592592592593,1,0,0,6.043891299981624,colour4,0.4009259259259259,-0.07175925925925926,1,0,0,7.075698700005887,number3,True,True,True,45,5,2019_Nov_21_1704,MA_Theta_Exp,3.0.7,60.17947927599999,
video/Experiment/zh_sp07_Ti_Ro_1_NVocInAudio_NoVideo.avi,vocoded,noVideo,sp07,Ti,Ro,1,1,2,flow/blocks/NVocInAudio_NoVideo_B.csv,,,,,,,,,0,1,1,1,0,6,6,8,,,,,,,,,-0.3921296296296296,-0.15231481481481482,1,0,0,4.52658090001205,call3,0.009259259259259259,-0.10648148148148148,1,0,0,5.513878000027034,colour3,0.462037037037037,0.38101851851851853,1,0,0,6.257564300001832,number1,True,True,True,45,5,2019_Nov_21_1704,MA_Theta_Exp,3.0.7,60.17947927599999,
video/Experiment/zh_sp07_Dr_Ge_2_NVocInAudio_NoVideo.avi,vocoded,noVideo,sp07,Dr,Ge,2,1,2,flow/blocks/NVocInAudio_NoVideo_B.csv,,,,,,,,,0,1,1,1,0,7,7,17,,,,,,,,,-0.40185185185185185,0.07546296296296297,1,0,0,4.810549100016942,call2,0.04675925925925926,0.3296296296296296,1,0,0,6.018371099984506,colour1,0.4134259259259259,0.10185185185185185,1,0,0,6.685773100005463,number2,True,True,True,45,5,2019_Nov_21_1704,MA_Theta_Exp,3.0.7,60.17947927599999,
video/Experiment/zh_sp01_Un_Gr_2_NVocInAudio_NoVideo.avi,vocoded,noVideo,sp01,Un,Gr,2,1,2,flow/blocks/NVocInAudio_NoVideo_B.csv,,,,,,,,,0,1,1,1,0,8,8,5,,,,,,,,,-0.4351851851851852,-0.27314814814814814,1,0,0,5.22131999998237,call4,0.03425925925925926,0.06296296296296296,1,0,0,6.663398600008804,colour2,0.3773148148148148,0.0712962962962963,1,0,0,7.635340299981181,number2,True,True,True,45,5,2019_Nov_21_1704,MA_Theta_Exp,3.0.7,60.17947927599999,
video/Experiment/zh_sp01_Ti_Gr_3_NVocInAudio_NoVideo.avi,vocoded,noVideo,sp01,Ti,Gr,3,1,2,flow/blocks/NVocInAudio_NoVideo_B.csv,,,,,,,,,0,1,1,1,0,9,9,22,,,,,,,,,-0.48518518518518516,-0.1259259259259259,1,0,0,5.0100059999967925,call3,0.02175925925925926,0.0699074074074074,1,0,0,6.238121400005184,colour2,0.37592592592592594,-0.11064814814814815,1,0,0,6.805804500007071,number3,True,True,True,45,5,2019_Nov_21_1704,MA_Theta_Exp,3.0.7,60.17947927599999,
video/Experiment/zh_sp01_Ad_Ge_2_NVocInAudio_NoVideo.avi,vocoded,noVideo,sp01,Ad,Ge,2,1,2,flow/blocks/NVocInAudio_NoVideo_B.csv,,,,,,,,,0,1,1,1,0,10,10,1,,,,,,,,,-0.4115740740740741,0.30694444444444446,1,0,0,5.168340900010662,call1,0.009259259259259259,0.28888888888888886,1,0,0,6.134369499981403,colour1,0.4078703703703704,0.11527777777777778,1,0,0,7.169065599999158,number2,True,True,True,45,5,2019_Nov_21_1704,MA_Theta_Exp,3.0.7,60.17947927599999,
video/Experiment/zh_sp01_Ad_Ro_3_NVocInAudio_NoVideo.avi,vocoded,noVideo,sp01,Ad,Ro,3,1,2,flow/blocks/NVocInAudio_NoVideo_B.csv,,,,,,,,,0,1,1,1,0,11,11,10,,,,,,,,,-0.45740740740740743,0.3125,1,0,0,5.273977400007425,call1,0.010648148148148148,-0.10833333333333334,1,0,0,6.038238400011323,colour3,0.4064814814814815,-0.12638888888888888,1,0,0,6.471822999999858,number3,True,True,True,45,5,2019_Nov_21_1704,MA_Theta_Exp,3.0.7,60.17947927599999,
video/Experiment/zh_sp01_Un_Ge_4_NVocInAudio_NoVideo.avi,vocoded,noVideo,sp01,Un,Ge,4,1,2,flow/blocks/NVocInAudio_NoVideo_B.csv,,,,,,,,,0,1,1,1,0,12,12,19,,,,,,,,,-0.3685185185185185,-0.2972222222222222,1,0,0,5.015909800014924,call4,-0.01574074074074074,0.3375,1,0,0,5.828159199998481,colour1,0.3912037037037037,-0.33611111111111114,1,0,0,6.544835300010163,number4,True,True,True,45,5,2019_Nov_21_1704,MA_Theta_Exp,3.0.7,60.17947927599999,
video/Experiment/zh_sp07_Un_Ge_1_NVocInAudio_NoVideo.avi,vocoded,noVideo,sp07,Un,Ge,1,1,2,flow/blocks/NVocInAudio_NoVideo_B.csv,,,,,,,,,0,1,1,1,0,13,13,0,,,,,,,,,-0.41712962962962963,-0.3347222222222222,1,0,0,4.536550299992086,call4,-0.031018518518518518,0.3111111111111111,1,0,0,5.233993599977111,colour1,0.3314814814814815,0.29583333333333334,1,0,0,5.747340300003998,number1,True,True,True,45,5,2019_Nov_21_1704,MA_Theta_Exp,3.0.7,60.17947927599999,
video/Experiment/zh_sp07_Dr_We_4_NVocInAudio_NoVideo.avi,vocoded,noVideo,sp07,Dr,We,4,1,2,flow/blocks/NVocInAudio_NoVideo_B.csv,,,,,,,,,0,1,1,1,0,14,14,15,,,,,,,,,-0.3837962962962963,0.11388888888888889,1,0,0,4.744279700011248,call2,0.006481481481481481,-0.3111111111111111,1,0,0,5.3970845000003465,colour4,0.4078703703703704,-0.37222222222222223,1,0,0,5.963548200001242,number4,True,True,True,45,5,2019_Nov_21_1704,MA_Theta_Exp,3.0.7,60.17947927599999,
video/Experiment/zh_sp01_Ti_Gr_1_NVocInAudio_NoVideo.avi,vocoded,noVideo,sp01,Ti,Gr,1,1,2,flow/blocks/NVocInAudio_NoVideo_B.csv,,,,,,,,,0,1,1,1,0,15,15,4,,,,,,,,,-0.35462962962962963,-0.08888888888888889,1,0,0,5.247903799987398,call3,-0.011574074074074073,0.08472222222222223,1,0,0,5.981955800001742,colour2,0.3939814814814815,0.3236111111111111,1,0,0,6.821947899996303,number1,True,True,True,45,5,2019_Nov_21_1704,MA_Theta_Exp,3.0.7,60.17947927599999,
video/Experiment/zh_sp07_Ad_Ro_2_NVocInAudio_NoVideo.avi,vocoded,noVideo,sp07,Ad,Ro,2,1,2,flow/blocks/NVocInAudio_NoVideo_B.csv,,,,,,,,,0,1,1,1,0,16,16,25,,,,,,,,,-0.42824074074074076,0.29444444444444445,1,0,0,4.606033799995203,call1,0.04537037037037037,-0.1375,1,0,0,5.734319799987134,colour3,0.4050925925925926,0.14305555555555555,1,0,0,6.81178380001802,number2,True,True,True,45,5,2019_Nov_21_1704,MA_Theta_Exp,3.0.7,60.17947927599999,
video/Experiment/zh_sp01_Dr_Gr_1_NVocInAudio_NoVideo.avi,vocoded,noVideo,sp01,Dr,Gr,1,1,2,flow/blocks/NVocInAudio_NoVideo_B.csv,,,,,,,,,0,1,1,1,0,17,17,20,,,,,,,,,-0.46296296296296297,0.08055555555555556,1,0,0,5.361878099996829,call2,-0.01990740740740741,0.10138888888888889,1,0,0,6.653738299995894,colour2,0.37453703703703706,0.30694444444444446,1,0,0,7.301765599986538,number1,True,True,True,45,5,2019_Nov_21_1704,MA_Theta_Exp,3.0.7,60.17947927599999,
video/Experiment/zh_sp01_Un_We_2_NVocInAudio_NoVideo.avi,vocoded,noVideo,sp01,Un,We,2,1,2,flow/blocks/NVocInAudio_NoVideo_B.csv,,,,,,,,,0,1,1,1,0,18,18,13,,,,,,,,,-0.38796296296296295,-0.3263888888888889,1,0,0,6.821350499987602,call4,-0.02546296296296296,0.05555555555555555,1,0,0,8.837808699987363,colour2,0.3106481481481482,0.06805555555555555,1,0,0,9.238609799998812,number2,True,False,True,45,5,2019_Nov_21_1704,MA_Theta_Exp,3.0.7,60.17947927599999,
video/Experiment/zh_sp01_Un_Gr_4_NVocInAudio_NoVideo.avi,vocoded,noVideo,sp01,Un,Gr,4,1,2,flow/blocks/NVocInAudio_NoVideo_B.csv,,,,,,,,,0,1,1,1,0,19,19,23,,,,,,,,,-0.39351851851851855,-0.3458333333333333,1,0,0,4.932737299997825,call4,0.017592592592592594,0.13194444444444445,1,0,0,5.488325699989218,colour2,0.399537037037037,-0.31527777777777777,1,0,0,6.102603999985149,number4,True,True,True,45,5,2019_Nov_21_1704,MA_Theta_Exp,3.0.7,60.17947927599999,
video/Experiment/zh_sp07_Dr_We_1_NVocInAudio_NoVideo.avi,vocoded,noVideo,sp07,Dr,We,1,1,2,flow/blocks/NVocInAudio_NoVideo_B.csv,,,,,,,,,0,1,1,1,0,20,20,28,,,,,,,,,-0.39490740740740743,0.09027777777777778,1,0,0,4.557338399987202,call2,0.023148148148148147,-0.3541666666666667,1,0,0,5.126378299988573,colour4,0.3662037037037037,0.3,1,0,0,5.843308000010438,number1,True,True,True,45,5,2019_Nov_21_1704,MA_Theta_Exp,3.0.7,60.17947927599999,
video/Experiment/zh_sp07_Dr_Ge_3_NVocInAudio_NoVideo.avi,vocoded,noVideo,sp07,Dr,Ge,3,1,2,flow/blocks/NVocInAudio_NoVideo_B.csv,,,,,,,,,0,1,1,1,0,21,21,2,,,,,,,,,-0.4449074074074074,0.11527777777777778,1,0,0,4.64699120001751,call2,0.005092592592592593,0.2375,1,0,0,5.650959699996747,colour1,0.4078703703703704,-0.1111111111111111,1,0,0,6.230120899999747,number3,True,True,True,45,5,2019_Nov_21_1704,MA_Theta_Exp,3.0.7,60.17947927599999,
video/Experiment/zh_sp01_Un_Ro_4_NVocInAudio_NoVideo.avi,vocoded,noVideo,sp01,Un,Ro,4,1,2,flow/blocks/NVocInAudio_NoVideo_B.csv,,,,,,,,,0,1,1,1,0,22,22,27,,,,,,,,,-0.3976851851851852,-0.3111111111111111,1,0,0,5.1140843000030145,call4,0.027314814814814816,-0.12777777777777777,1,0,0,5.7955423000094015,colour3,0.4287037037037037,-0.2861111111111111,1,0,0,6.466545599978417,number4,True,True,True,45,5,2019_Nov_21_1704,MA_Theta_Exp,3.0.7,60.17947927599999,
video/Experiment/zh_sp07_Ad_We_4_NVocInAudio_NoVideo.avi,vocoded,noVideo,sp07,Ad,We,4,1,2,flow/blocks/NVocInAudio_NoVideo_B.csv,,,,,,,,,0,1,1,1,0,23,23,31,,,,,,,,,-0.3476851851851852,0.2902777777777778,1,0,0,4.413104899984319,call1,0.006481481481481481,-0.35,1,0,0,5.040828299999703,colour4,0.42314814814814816,-0.3472222222222222,1,0,0,5.52416689999518,number4,True,True,True,45,5,2019_Nov_21_1704,MA_Theta_Exp,3.0.7,60.17947927599999,
video/Experiment/zh_sp07_Ad_Gr_4_NVocInAudio_NoVideo.avi,vocoded,noVideo,sp07,Ad,Gr,4,1,2,flow/blocks/NVocInAudio_NoVideo_B.csv,,,,,,,,,0,1,1,1,0,24,24,7,,,,,,,,,-0.3976851851851852,0.3347222222222222,1,0,0,4.191026199987391,call1,0.016203703703703703,0.1,1,0,0,4.648745599988615,colour2,0.43842592592592594,-0.3611111111111111,1,0,0,5.189466700016055,number4,True,True,True,45,5,2019_Nov_21_1704,MA_Theta_Exp,3.0.7,60.17947927599999,
video/Experiment/zh_sp01_Ti_We_1_NVocInAudio_NoVideo.avi,vocoded,noVideo,sp01,Ti,We,1,1,2,flow/blocks/NVocInAudio_NoVideo_B.csv,,,,,,,,,0,1,1,1,0,25,25,12,,,,,,,,,-0.3976851851851852,-0.09583333333333334,1,0,0,5.018967600015458,call3,0.06898148148148148,-0.31666666666666665,1,0,0,6.173698800004786,colour4,0.42314814814814816,0.33055555555555555,1,0,0,6.98750519999885,number1,True,True,True,45,5,2019_Nov_21_1704,MA_Theta_Exp,3.0.7,60.17947927599999,
video/Experiment/zh_sp07_Dr_Ro_1_NVocInAudio_NoVideo.avi,vocoded,noVideo,sp07,Dr,Ro,1,1,2,flow/blocks/NVocInAudio_NoVideo_B.csv,,,,,,,,,0,1,1,1,0,26,26,24,,,,,,,,,-0.4546296296296296,0.11527777777777778,1,0,0,4.414254500006791,call2,-0.05740740740740741,-0.0875,1,0,0,4.914110499987146,colour3,0.4050925925925926,0.30833333333333335,1,0,0,5.417852399987169,number1,True,True,True,45,5,2019_Nov_21_1704,MA_Theta_Exp,3.0.7,60.17947927599999,
video/Experiment/zh_sp07_Ti_We_2_NVocInAudio_NoVideo.avi,vocoded,noVideo,sp07,Ti,We,2,1,2,flow/blocks/NVocInAudio_NoVideo_B.csv,,,,,,,,,0,1,1,1,0,27,27,29,,,,,,,,,-0.4060185185185185,-0.08194444444444444,1,0,0,4.901320000004489,call3,0.009259259259259259,-0.3277777777777778,1,0,0,5.4837563000037335,colour4,0.387037037037037,0.14166666666666666,1,0,0,5.997116999991704,number2,True,True,True,45,5,2019_Nov_21_1704,MA_Theta_Exp,3.0.7,60.17947927599999,
video/Experiment/zh_sp07_Un_Ro_2_NVocInAudio_NoVideo.avi,vocoded,noVideo,sp07,Un,Ro,2,1,2,flow/blocks/NVocInAudio_NoVideo_B.csv,,,,,,,,,0,1,1,1,0,28,28,9,,,,,,,,,-0.3976851851851852,-0.33287037037037037,1,0,0,4.84708049998153,call4,0.006481481481481481,-0.07731481481481481,1,0,0,5.688461099984124,colour3,0.4064814814814815,0.13796296296296295,1,0,0,6.291024500009371,number2,True,True,True,45,5,2019_Nov_21_1704,MA_Theta_Exp,3.0.7,60.17947927599999,
video/Experiment/zh_sp01_Un_Gr_3_NVocInAudio_NoVideo.avi,vocoded,noVideo,sp01,Un,Gr,3,1,2,flow/blocks/NVocInAudio_NoVideo_B.csv,,,,,,,,,0,1,1,1,0,29,29,6,,,,,,,,,-0.43657407407407406,-0.2759259259259259,1,0,0,5.030477299995255,call4,-0.000462962962962963,0.14212962962962963,1,0,0,5.682144599995809,colour2,0.449537037037037,-0.1175925925925926,1,0,0,6.368432399991434,number3,True,True,True,45,5,2019_Nov_21_1704,MA_Theta_Exp,3.0.7,60.17947927599999,
video/Experiment/zh_sp07_Dr_Ro_3_NVocInAudio_NoVideo.avi,vocoded,noVideo,sp07,Dr,Ro,3,1,2,flow/blocks/NVocInAudio_NoVideo_B.csv,,,,,,,,,0,1,1,1,0,30,30,26,,,,,,,,,-0.39490740740740743,0.07546296296296297,1,0,0,5.150969199981773,call2,-0.0032407407407407406,-0.14537037037037037,1,0,0,5.673779299977468,colour3,0.4078703703703704,-0.1398148148148148,1,0,0,6.118089399999008,number3,True,True,True,45,5,2019_Nov_21_1704,MA_Theta_Exp,3.0.7,60.17947927599999,
video/Experiment/zh_sp07_Ad_Ge_3_NVocInAudio_NoVideo.avi,vocoded,noVideo,sp07,Ad,Ge,3,1,2,flow/blocks/NVocInAudio_NoVideo_B.csv,,,,,,,,,0,1,1,1,0,31,31,18,,,,,,,,,-0.42685185185185187,0.2861111111111111,1,0,0,4.523884900001576,call1,0.052314814814814814,0.3111111111111111,1,0,0,4.932068299996899,colour1,0.4148148148148148,-0.1361111111111111,1,0,0,5.50098050001543,number3,True,True,True,45,5,2019_Nov_21_1704,MA_Theta_Exp,3.0.7,60.17947927599999,
video/Experiment/zh_sp07_Un_Ge_3_NoThetaInAudio_GlobalThetaInVideo.avi,noTheta,plusVideo,sp07,Un,Ge,3,2,3,flow/blocks/NoThetaInAudio_GlobalThetaInVideo_A.csv,,,,,,,,,0,2,2,2,0,0,0,2,,,,,,,,,-0.40879629629629627,-0.30833333333333335,1,0,0,4.766014699998777,call4,0.020370370370370372,0.30277777777777776,1,0,0,5.636541200015927,colour1,0.44814814814814813,-0.15555555555555556,1,0,0,6.598224200017285,number3,True,True,True,45,5,2019_Nov_21_1704,MA_Theta_Exp,3.0.7,60.17947927599999,
video/Experiment/zh_sp07_Ti_Ro_3_NoThetaInAudio_GlobalThetaInVideo.avi,noTheta,plusVideo,sp07,Ti,Ro,3,2,3,flow/blocks/NoThetaInAudio_GlobalThetaInVideo_A.csv,,,,,,,,,0,2,2,2,0,1,1,10,,,,,,,,,-0.4185185185185185,-0.10555555555555556,1,0,0,4.610583100002259,call3,0.04259259259259259,-0.14444444444444443,1,0,0,5.964494100015145,colour3,0.5092592592592593,-0.14305555555555555,1,0,0,6.433323899982497,number3,True,True,True,45,5,2019_Nov_21_1704,MA_Theta_Exp,3.0.7,60.17947927599999,
video/Experiment/zh_sp01_Ti_Ge_4_NoThetaInAudio_GlobalThetaInVideo.avi,noTheta,plusVideo,sp01,Ti,Ge,4,2,3,flow/blocks/NoThetaInAudio_GlobalThetaInVideo_A.csv,,,,,,,,,0,2,2,2,0,2,2,3,,,,,,,,,-0.45185185185185184,-0.10555555555555556,1,0,0,5.008615099999588,call3,0.00787037037037037,0.3263888888888889,1,0,0,6.042527400015388,colour1,0.38564814814814813,-0.31805555555555554,1,0,0,6.785379800014198,number4,True,True,True,45,5,2019_Nov_21_1704,MA_Theta_Exp,3.0.7,60.17947927599999,
video/Experiment/zh_sp07_Dr_Ge_1_NoThetaInAudio_GlobalThetaInVideo.avi,noTheta,plusVideo,sp07,Dr,Ge,1,2,3,flow/blocks/NoThetaInAudio_GlobalThetaInVideo_A.csv,,,,,,,,,0,2,2,2,0,3,3,0,,,,,,,,,-0.40324074074074073,0.3402777777777778,1,0,0,4.805297800019616,call1,-0.022685185185185187,0.2847222222222222,1,0,0,5.2613092999963555,colour1,0.47175925925925927,0.25972222222222224,1,0,0,5.813392299984116,number1,False,True,True,45,5,2019_Nov_21_1704,MA_Theta_Exp,3.0.7,60.17947927599999,
video/Experiment/zh_sp01_Dr_Gr_3_NoThetaInAudio_GlobalThetaInVideo.avi,noTheta,plusVideo,sp01,Dr,Gr,3,2,3,flow/blocks/NoThetaInAudio_GlobalThetaInVideo_A.csv,,,,,,,,,0,2,2,2,0,4,4,6,,,,,,,,,-0.40879629629629627,-0.3458333333333333,1,0,0,5.016853700013598,call4,0.02175925925925926,0.1125,1,0,0,5.633362900000066,colour2,0.3675925925925926,-0.10277777777777777,1,0,0,6.154656600003364,number3,False,True,True,45,5,2019_Nov_21_1704,MA_Theta_Exp,3.0.7,60.17947927599999,
video/Experiment/zh_sp07_Dr_Gr_4_NoThetaInAudio_GlobalThetaInVideo.avi,noTheta,plusVideo,sp07,Dr,Gr,4,2,3,flow/blocks/NoThetaInAudio_GlobalThetaInVideo_A.csv,,,,,,,,,0,2,2,2,0,5,5,23,,,,,,,,,-0.38796296296296295,0.325,1,0,0,4.379065300017828,call1,0.038425925925925926,0.07222222222222222,1,0,0,4.87446390002151,colour2,0.42314814814814816,-0.18055555555555555,1,0,0,5.340070100006415,number3,False,True,False,45,5,2019_Nov_21_1704,MA_Theta_Exp,3.0.7,60.17947927599999,
video/Experiment/zh_sp01_Ad_Ro_1_NoThetaInAudio_GlobalThetaInVideo.avi,noTheta,plusVideo,sp01,Ad,Ro,1,2,3,flow/blocks/NoThetaInAudio_GlobalThetaInVideo_A.csv,,,,,,,,,0,2,2,2,0,6,6,8,,,,,,,,,-0.39490740740740743,0.3375,1,0,0,5.2308663000003435,call1,-0.014351851851851852,-0.10972222222222222,1,0,0,5.881361400010064,colour3,0.38842592592592595,0.33611111111111114,1,0,0,6.807457600021735,number1,True,True,True,45,5,2019_Nov_21_1704,MA_Theta_Exp,3.0.7,60.17947927599999,
video/Experiment/zh_sp01_Ad_Gr_2_NoThetaInAudio_GlobalThetaInVideo.avi,noTheta,plusVideo,sp01,Ad,Gr,2,2,3,flow/blocks/NoThetaInAudio_GlobalThetaInVideo_A.csv,,,,,,,,,0,2,2,2,0,7,7,21,,,,,,,,,-0.3976851851851852,0.3277777777777778,1,0,0,5.674864799977513,call1,0.03564814814814815,0.07222222222222222,1,0,0,6.211834399990039,colour2,0.3925925925925926,0.08194444444444444,1,0,0,6.6900968000118155,number2,True,True,True,45,5,2019_Nov_21_1704,MA_Theta_Exp,3.0.7,60.17947927599999,
video/Experiment/zh_sp07_Dr_We_2_NoThetaInAudio_GlobalThetaInVideo.avi,noTheta,plusVideo,sp07,Dr,We,2,2,3,flow/blocks/NoThetaInAudio_GlobalThetaInVideo_A.csv,,,,,,,,,0,2,2,2,0,8,8,13,,,,,,,,,-0.3365740740740741,-0.3625,1,0,0,5.316065799997887,call4,0.04675925925925926,-0.30694444444444446,1,0,0,6.094017399998847,colour4,0.4273148148148148,0.3388888888888889,1,0,0,6.7690906999923754,number1,False,True,False,45,5,2019_Nov_21_1704,MA_Theta_Exp,3.0.7,60.17947927599999,
video/Experiment/zh_sp07_Dr_Ro_2_NoThetaInAudio_GlobalThetaInVideo.avi,noTheta,plusVideo,sp07,Dr,Ro,2,2,3,flow/blocks/NoThetaInAudio_GlobalThetaInVideo_A.csv,,,,,,,,,0,2,2,2,0,9,9,9,,,,,,,,,-0.38796296296296295,0.30277777777777776,1,0,0,4.481809200020507,call1,-0.011574074074074073,-0.14444444444444443,1,0,0,5.032179100002395,colour3,0.37453703703703706,0.06666666666666667,1,0,0,5.599456600000849,number2,False,True,True,45,5,2019_Nov_21_1704,MA_Theta_Exp,3.0.7,60.17947927599999,
video/Experiment/zh_sp01_Ti_Ro_2_NoThetaInAudio_GlobalThetaInVideo.avi,noTheta,plusVideo,sp01,Ti,Ro,2,2,3,flow/blocks/NoThetaInAudio_GlobalThetaInVideo_A.csv,,,,,,,,,0,2,2,2,0,10,10,25,,,,,,,,,-0.36712962962962964,-0.09166666666666666,1,0,0,5.180548100004671,call3,-0.022685185185185187,-0.11527777777777778,1,0,0,5.681254800001625,colour3,0.4981481481481482,0.10694444444444444,1,0,0,6.21768480000901,number2,True,True,True,45,5,2019_Nov_21_1704,MA_Theta_Exp,3.0.7,60.17947927599999,
video/Experiment/zh_sp01_Un_We_1_NoThetaInAudio_GlobalThetaInVideo.avi,noTheta,plusVideo,sp01,Un,We,1,2,3,flow/blocks/NoThetaInAudio_GlobalThetaInVideo_A.csv,,,,,,,,,0,2,2,2,0,11,11,28,,,,,,,,,-0.44074074074074077,-0.3263888888888889,1,0,0,5.3503477000049315,call4,-0.001851851851851852,-0.31805555555555554,1,0,0,6.081584500003373,colour4,0.4023148148148148,0.28194444444444444,1,0,0,7.050607000011951,number1,True,True,True,45,5,2019_Nov_21_1704,MA_Theta_Exp,3.0.7,60.17947927599999,
video/Experiment/zh_sp07_Un_Ge_2_NoThetaInAudio_GlobalThetaInVideo.avi,noTheta,plusVideo,sp07,Un,Ge,2,2,3,flow/blocks/NoThetaInAudio_GlobalThetaInVideo_A.csv,,,,,,,,,0,2,2,2,0,12,12,17,,,,,,,,,-0.39490740740740743,-0.3736111111111111,1,0,0,4.429766399989603,call4,0.06620370370370371,-0.30416666666666664,1,0,0,4.943311399983941,colour4,0.04398148148148148,0.11805555555555555,1,0,0,6.565887000004295,number2,True,False,True,45,5,2019_Nov_21_1704,MA_Theta_Exp,3.0.7,60.17947927599999,
video/Experiment/zh_sp01_Dr_Ge_4_NoThetaInAudio_GlobalThetaInVideo.avi,noTheta,plusVideo,sp01,Dr,Ge,4,2,3,flow/blocks/NoThetaInAudio_GlobalThetaInVideo_A.csv,,,,,,,,,0,2,2,2,0,13,13,19,,,,,,,,,-0.412962962962963,-0.30416666666666664,1,0,0,4.925649800017709,call4,-0.012962962962962963,0.35694444444444445,1,0,0,5.656933799997205,colour1,0.41064814814814815,-0.3333333333333333,1,0,0,6.537678399996366,number4,False,True,True,45,5,2019_Nov_21_1704,MA_Theta_Exp,3.0.7,60.17947927599999,
video/Experiment/zh_sp07_Ad_Gr_1_NoThetaInAudio_GlobalThetaInVideo.avi,noTheta,plusVideo,sp07,Ad,Gr,1,2,3,flow/blocks/NoThetaInAudio_GlobalThetaInVideo_A.csv,,,,,,,,,0,2,2,2,0,14,14,4,,,,,,,,,-0.40879629629629627,0.325,1,0,0,4.4934996999800205,call1,-0.010185185185185186,0.1125,1,0,0,5.020440899999812,colour2,0.42453703703703705,0.2972222222222222,1,0,0,5.5575254000141285,number1,True,True,True,45,5,2019_Nov_21_1704,MA_Theta_Exp,3.0.7,60.17947927599999,
video/Experiment/zh_sp07_Ti_Gr_4_NoThetaInAudio_GlobalThetaInVideo.avi,noTheta,plusVideo,sp07,Ti,Gr,4,2,3,flow/blocks/NoThetaInAudio_GlobalThetaInVideo_A.csv,,,,,,,,,0,2,2,2,0,15,15,7,,,,,,,,,-0.38101851851851853,-0.1111111111111111,1,0,0,4.576440299977548,call3,-0.04212962962962963,0.1375,1,0,0,5.065017499990063,colour2,0.3800925925925926,-0.32916666666666666,1,0,0,5.665167500003008,number4,True,True,True,45,5,2019_Nov_21_1704,MA_Theta_Exp,3.0.7,60.17947927599999,
video/Experiment/zh_sp01_Ad_Gr_3_NoThetaInAudio_GlobalThetaInVideo.avi,noTheta,plusVideo,sp01,Ad,Gr,3,2,3,flow/blocks/NoThetaInAudio_GlobalThetaInVideo_A.csv,,,,,,,,,0,2,2,2,0,16,16,22,,,,,,,,,-0.42407407407407405,0.30972222222222223,1,0,0,5.237565800023731,call1,-0.033796296296296297,0.09166666666666666,1,0,0,5.744832299998961,colour2,0.44537037037037036,-0.15416666666666667,1,0,0,6.253924899996491,number3,True,True,True,45,5,2019_Nov_21_1704,MA_Theta_Exp,3.0.7,60.17947927599999,
video/Experiment/zh_sp01_Ti_Ge_1_NoThetaInAudio_GlobalThetaInVideo.avi,noTheta,plusVideo,sp01,Ti,Ge,1,2,3,flow/blocks/NoThetaInAudio_GlobalThetaInVideo_A.csv,,,,,,,,,0,2,2,2,0,17,17,16,,,,,,,,,-0.41712962962962963,-0.10833333333333334,1,0,0,5.380385199998273,call3,0.027314814814814816,0.3402777777777778,1,0,0,5.99609679999412,colour1,0.32314814814814813,0.32222222222222224,1,0,0,6.494444699987071,number1,True,True,True,45,5,2019_Nov_21_1704,MA_Theta_Exp,3.0.7,60.17947927599999,
video/Experiment/zh_sp01_Ad_We_2_NoThetaInAudio_GlobalThetaInVideo.avi,noTheta,plusVideo,sp01,Ad,We,2,2,3,flow/blocks/NoThetaInAudio_GlobalThetaInVideo_A.csv,,,,,,,,,0,2,2,2,0,18,18,29,,,,,,,,,-0.40185185185185185,0.31805555555555554,1,0,0,5.047497799998382,call1,0.014814814814814815,-0.32916666666666666,1,0,0,5.913889000017662,colour4,0.3578703703703704,0.09166666666666666,1,0,0,6.5476072000165,number2,True,True,True,45,5,2019_Nov_21_1704,MA_Theta_Exp,3.0.7,60.17947927599999,
video/Experiment/zh_sp01_Un_Gr_1_NoThetaInAudio_GlobalThetaInVideo.avi,noTheta,plusVideo,sp01,Un,Gr,1,2,3,flow/blocks/NoThetaInAudio_GlobalThetaInVideo_A.csv,,,,,,,,,0,2,2,2,0,19,19,20,,,,,,,,,-0.3824074074074074,-0.29305555555555557,1,0,0,4.979034399992088,call4,-0.04490740740740741,0.0763888888888889,1,0,0,5.548614500003168,colour2,0.39814814814814814,0.3,1,0,0,6.0911638000106905,number1,True,True,True,45,5,2019_Nov_21_1704,MA_Theta_Exp,3.0.7,60.17947927599999,
video/Experiment/zh_sp07_Ti_Ge_2_NoThetaInAudio_GlobalThetaInVideo.avi,noTheta,plusVideo,sp07,Ti,Ge,2,2,3,flow/blocks/NoThetaInAudio_GlobalThetaInVideo_A.csv,,,,,,,,,0,2,2,2,0,20,20,1,,,,,,,,,-0.3824074074074074,-0.10416666666666667,1,0,0,4.670745599985821,call3,0.013425925925925926,0.2791666666666667,1,0,0,5.286554799997248,colour1,0.39675925925925926,0.059722222222222225,1,0,0,5.800439100014046,number2,True,True,True,45,5,2019_Nov_21_1704,MA_Theta_Exp,3.0.7,60.17947927599999,
video/Experiment/zh_sp07_Dr_Gr_2_NoThetaInAudio_GlobalThetaInVideo.avi,noTheta,plusVideo,sp07,Dr,Gr,2,2,3,flow/blocks/NoThetaInAudio_GlobalThetaInVideo_A.csv,,,,,,,,,0,2,2,2,0,21,21,5,,,,,,,,,-0.4074074074074074,0.059722222222222225,1,0,0,5.446739700011676,call2,-0.001851851851851852,0.14305555555555555,1,0,0,5.995350699988194,colour2,0.35648148148148145,0.08472222222222223,1,0,0,6.428292600001441,number2,True,True,True,45,5,2019_Nov_21_1704,MA_Theta_Exp,3.0.7,60.17947927599999,
video/Experiment/zh_sp07_Ti_Ge_3_NoThetaInAudio_GlobalThetaInVideo.avi,noTheta,plusVideo,sp07,Ti,Ge,3,2,3,flow/blocks/NoThetaInAudio_GlobalThetaInVideo_A.csv,,,,,,,,,0,2,2,2,0,22,22,18,,,,,,,,,-0.3990740740740741,-0.09444444444444444,1,0,0,4.3197824000089895,call3,-0.018518518518518517,0.2847222222222222,1,0,0,4.914666700002272,colour1,0.4300925925925926,-0.11388888888888889,1,0,0,5.713146900001448,number3,True,True,True,45,5,2019_Nov_21_1704,MA_Theta_Exp,3.0.7,60.17947927599999,
video/Experiment/zh_sp01_Un_Ro_3_NoThetaInAudio_GlobalThetaInVideo.avi,noTheta,plusVideo,sp01,Un,Ro,3,2,3,flow/blocks/NoThetaInAudio_GlobalThetaInVideo_A.csv,,,,,,,,,0,2,2,2,0,23,23,26,,,,,,,,,-0.3907407407407407,0.07083333333333333,1,0,0,5.091723899997305,call2,-0.046296296296296294,-0.10833333333333334,1,0,0,5.59090829998604,colour3,0.4689814814814815,-0.14305555555555555,1,0,0,6.2243526999955066,number3,False,True,True,45,5,2019_Nov_21_1704,MA_Theta_Exp,3.0.7,60.17947927599999,
video/Experiment/zh_sp07_Un_We_3_NoThetaInAudio_GlobalThetaInVideo.avi,noTheta,plusVideo,sp07,Un,We,3,2,3,flow/blocks/NoThetaInAudio_GlobalThetaInVideo_A.csv,,,,,,,,,0,2,2,2,0,24,24,14,,,,,,,,,-0.37962962962962965,-0.31805555555555554,1,0,0,4.150712900009239,call4,-0.07824074074074074,-0.31805555555555554,1,0,0,4.565712500014342,colour4,0.4009259259259259,-0.13333333333333333,1,0,0,5.199783899995964,number3,True,True,True,45,5,2019_Nov_21_1704,MA_Theta_Exp,3.0.7,60.17947927599999,
video/Experiment/zh_sp01_Un_Ro_1_NoThetaInAudio_GlobalThetaInVideo.avi,noTheta,plusVideo,sp01,Un,Ro,1,2,3,flow/blocks/NoThetaInAudio_GlobalThetaInVideo_A.csv,,,,,,,,,0,2,2,2,0,25,25,24,,,,,,,,,-0.425462962962963,-0.30694444444444446,1,0,0,5.107266799983336,call4,0.0023148148148148147,-0.10972222222222222,1,0,0,5.7057824000075925,colour3,0.4023148148148148,0.31527777777777777,1,0,0,6.320983800018439,number1,True,True,True,45,5,2019_Nov_21_1704,MA_Theta_Exp,3.0.7,60.17947927599999,
video/Experiment/zh_sp07_Ti_We_4_NoThetaInAudio_GlobalThetaInVideo.avi,noTheta,plusVideo,sp07,Ti,We,4,2,3,flow/blocks/NoThetaInAudio_GlobalThetaInVideo_A.csv,,,,,,,,,0,2,2,2,0,26,26,31,,,,,,,,,-0.4115740740740741,-0.12222222222222222,1,0,0,4.422205800015945,call3,0.020370370370370372,-0.32916666666666666,1,0,0,5.000874500023201,colour4,0.4356481481481482,-0.3611111111111111,1,0,0,5.488162299996475,number4,True,True,True,45,5,2019_Nov_21_1704,MA_Theta_Exp,3.0.7,60.17947927599999,
video/Experiment/zh_sp01_Ad_Ro_4_NoThetaInAudio_GlobalThetaInVideo.avi,noTheta,plusVideo,sp01,Ad,Ro,4,2,3,flow/blocks/NoThetaInAudio_GlobalThetaInVideo_A.csv,,,,,,,,,0,2,2,2,0,27,27,11,,,,,,,,,-0.350462962962963,0.2875,1,0,0,5.226746200001799,call1,-0.007407407407407408,-0.14722222222222223,1,0,0,5.805841199995484,colour3,0.4148148148148148,-0.2875,1,0,0,6.307527899974957,number4,True,True,True,45,5,2019_Nov_21_1704,MA_Theta_Exp,3.0.7,60.17947927599999,
video/Experiment/zh_sp07_Un_We_4_NoThetaInAudio_GlobalThetaInVideo.avi,noTheta,plusVideo,sp07,Un,We,4,2,3,flow/blocks/NoThetaInAudio_GlobalThetaInVideo_A.csv,,,,,,,,,0,2,2,2,0,28,28,15,,,,,,,,,-0.3976851851851852,-0.2875,1,0,0,4.278446999989683,call4,-0.022685185185185187,-0.2972222222222222,1,0,0,4.80482070002472,colour4,0.46064814814814814,-0.3388888888888889,1,0,0,5.257745999988401,number4,True,True,True,45,5,2019_Nov_21_1704,MA_Theta_Exp,3.0.7,60.17947927599999,
video/Experiment/zh_sp01_Dr_Ro_4_NoThetaInAudio_GlobalThetaInVideo.avi,noTheta,plusVideo,sp01,Dr,Ro,4,2,3,flow/blocks/NoThetaInAudio_GlobalThetaInVideo_A.csv,,,,,,,,,0,2,2,2,0,29,29,27,,,,,,,,,-0.41712962962962963,0.09027777777777778,1,0,0,5.0812087999947835,call2,0.05092592592592592,-0.14722222222222223,1,0,0,5.6482437000086065,colour3,0.4356481481481482,-0.30277777777777776,1,0,0,6.220160800003214,number4,True,True,True,45,5,2019_Nov_21_1704,MA_Theta_Exp,3.0.7,60.17947927599999,
video/Experiment/zh_sp01_Ad_We_1_NoThetaInAudio_GlobalThetaInVideo.avi,noTheta,plusVideo,sp01,Ad,We,1,2,3,flow/blocks/NoThetaInAudio_GlobalThetaInVideo_A.csv,,,,,,,,,0,2,2,2,0,30,30,12,,,,,,,,,-0.41435185185185186,0.3013888888888889,1,0,0,4.970461700024316,call1,-0.011574074074074073,-0.3347222222222222,1,0,0,5.6038627000234555,colour4,0.3592592592592593,0.35138888888888886,1,0,0,6.223847599991132,number1,True,True,True,45,5,2019_Nov_21_1704,MA_Theta_Exp,3.0.7,60.17947927599999,
video/Experiment/zh_sp07_Ad_We_3_NoThetaInAudio_GlobalThetaInVideo.avi,noTheta,plusVideo,sp07,Ad,We,3,2,3,flow/blocks/NoThetaInAudio_GlobalThetaInVideo_A.csv,,,,,,,,,0,2,2,2,0,31,31,30,,,,,,,,,-0.44074074074074077,0.3,1,0,0,4.732774900010554,call1,0.005092592592592593,-0.30694444444444446,1,0,0,5.865896200004499,colour4,0.36898148148148147,-0.10277777777777777,1,0,0,6.376325900026131,number3,True,True,True,45,5,2019_Nov_21_1704,MA_Theta_Exp,3.0.7,60.17947927599999,
video/Experiment/zh_sp07_Dr_Ro_3_GlobalTheta_NoVideo.avi,globalTheta,noVideo,sp07,Dr,Ro,3,3,5,flow/blocks/GlobalTheta_NoVideo_B.csv,,,,,,,,,0,3,3,3,0,0,0,26,,,,,,,,,-0.35324074074074074,0.30694444444444446,1,0,0,5.684269800025504,call1,0.03287037037037037,-0.06111111111111111,1,0,0,6.730045600008452,colour3,0.44675925925925924,-0.075,1,0,0,7.277421399980085,number3,False,True,True,45,5,2019_Nov_21_1704,MA_Theta_Exp,3.0.7,60.17947927599999,
video/Experiment/zh_sp07_Dr_We_3_GlobalTheta_NoVideo.avi,globalTheta,noVideo,sp07,Dr,We,3,3,5,flow/blocks/GlobalTheta_NoVideo_B.csv,,,,,,,,,0,3,3,3,0,1,1,14,,,,,,,,,-0.42407407407407405,-0.09722222222222222,1,0,0,4.644606399990153,call3,0.012037037037037037,-0.33194444444444443,1,0,0,5.2694994999910705,colour4,0.44537037037037036,-0.3277777777777778,1,0,0,6.553394999995362,number4,False,True,False,45,5,2019_Nov_21_1704,MA_Theta_Exp,3.0.7,60.17947927599999,
video/Experiment/zh_sp01_Ad_Ge_4_GlobalTheta_NoVideo.avi,globalTheta,noVideo,sp01,Ad,Ge,4,3,5,flow/blocks/GlobalTheta_NoVideo_B.csv,,,,,,,,,0,3,3,3,0,2,2,3,,,,,,,,,-0.4212962962962963,0.3472222222222222,1,0,0,4.832522999990033,call1,-0.02824074074074074,0.3277777777777778,1,0,0,5.303469100006623,colour1,0.42592592592592593,-0.0625,1,0,0,5.953620199987199,number3,True,True,False,45,5,2019_Nov_21_1704,MA_Theta_Exp,3.0.7,60.17947927599999,
video/Experiment/zh_sp01_Un_Ge_1_GlobalTheta_NoVideo.avi,globalTheta,noVideo,sp01,Un,Ge,1,3,5,flow/blocks/GlobalTheta_NoVideo_B.csv,,,,,,,,,0,3,3,3,0,3,3,0,,,,,,,,,-0.38796296296296295,-0.3236111111111111,1,0,0,4.98492640000768,call4,-0.01990740740740741,0.3597222222222222,1,0,0,5.638730600010604,colour1,0.43148148148148147,0.3527777777777778,1,0,0,6.127739100018516,number1,True,True,True,45,5,2019_Nov_21_1704,MA_Theta_Exp,3.0.7,60.17947927599999,
video/Experiment/zh_sp01_Ti_We_1_GlobalTheta_NoVideo.avi,globalTheta,noVideo,sp01,Ti,We,1,3,5,flow/blocks/GlobalTheta_NoVideo_B.csv,,,,,,,,,0,3,3,3,0,4,4,12,,,,,,,,,-0.38657407407407407,-0.07083333333333333,1,0,0,5.002827399992384,call3,-0.01574074074074074,-0.3236111111111111,1,0,0,5.646826599986525,colour4,0.4675925925925926,0.3263888888888889,1,0,0,6.200068000005558,number1,True,True,True,45,5,2019_Nov_21_1704,MA_Theta_Exp,3.0.7,60.17947927599999,
video/Experiment/zh_sp01_Un_Gr_4_GlobalTheta_NoVideo.avi,globalTheta,noVideo,sp01,Un,Gr,4,3,5,flow/blocks/GlobalTheta_NoVideo_B.csv,,,,,,,,,0,3,3,3,0,5,5,23,,,,,,,,,-0.42777777777777776,-0.08055555555555556,1,0,0,4.7676854000019375,call3,-0.02638888888888889,0.11388888888888889,1,0,0,5.262626200012164,colour2,0.48194444444444445,-0.3611111111111111,1,0,0,5.84983029999421,number4,False,True,True,45,5,2019_Nov_21_1704,MA_Theta_Exp,3.0.7,60.17947927599999,
video/Experiment/zh_sp07_Ti_Ro_1_GlobalTheta_NoVideo.avi,globalTheta,noVideo,sp07,Ti,Ro,1,3,5,flow/blocks/GlobalTheta_NoVideo_B.csv,,,,,,,,,0,3,3,3,0,6,6,8,,,,,,,,,-0.4027777777777778,-0.14027777777777778,1,0,0,4.5657273000106215,call3,-0.027777777777777776,0.1375,1,0,0,5.215462199994363,colour2,0.43472222222222223,0.30416666666666664,1,0,0,5.682859699998517,number1,True,False,True,45,5,2019_Nov_21_1704,MA_Theta_Exp,3.0.7,60.17947927599999,
video/Experiment/zh_sp07_Ti_Gr_3_GlobalTheta_NoVideo.avi,globalTheta,noVideo,sp07,Ti,Gr,3,3,5,flow/blocks/GlobalTheta_NoVideo_B.csv,,,,,,,,,0,3,3,3,0,7,7,22,,,,,,,,,-0.41388888888888886,-0.12361111111111112,1,0,0,4.303002500004368,call3,-0.041666666666666664,0.14166666666666666,1,0,0,4.7864611000113655,colour2,0.4597222222222222,-0.14027777777777778,1,0,0,5.322034299984807,number3,True,True,True,45,5,2019_Nov_21_1704,MA_Theta_Exp,3.0.7,60.17947927599999,
video/Experiment/zh_sp01_Un_Gr_3_GlobalTheta_NoVideo.avi,globalTheta,noVideo,sp01,Un,Gr,3,3,5,flow/blocks/GlobalTheta_NoVideo_B.csv,,,,,,,,,0,3,3,3,0,8,8,6,,,,,,,,,-0.4444444444444444,-0.3236111111111111,1,0,0,4.944885400007479,call4,-0.022222222222222223,0.16111111111111112,1,0,0,5.555309099989245,colour2,0.4597222222222222,-0.11388888888888889,1,0,0,6.122385299997404,number3,True,True,True,45,5,2019_Nov_21_1704,MA_Theta_Exp,3.0.7,60.17947927599999,
video/Experiment/zh_sp07_Dr_Ge_3_GlobalTheta_NoVideo.avi,globalTheta,noVideo,sp07,Dr,Ge,3,3,5,flow/blocks/GlobalTheta_NoVideo_B.csv,,,,,,,,,0,3,3,3,0,9,9,2,,,,,,,,,-0.3861111111111111,-0.3263888888888889,1,0,0,5.056618900009198,call4,-0.001388888888888889,-0.3055555555555556,1,0,0,5.969697799999267,colour4,0.35833333333333334,-0.10277777777777777,1,0,0,6.533801300014602,number3,False,False,True,45,5,2019_Nov_21_1704,MA_Theta_Exp,3.0.7,60.17947927599999,
video/Experiment/zh_sp01_Dr_We_1_GlobalTheta_NoVideo.avi,globalTheta,noVideo,sp01,Dr,We,1,3,5,flow/blocks/GlobalTheta_NoVideo_B.csv,,,,,,,,,0,3,3,3,0,10,10,28,,,,,,,,,-0.3819444444444444,-0.09027777777777778,1,0,0,4.976339299988467,call3,-0.004166666666666667,-0.33611111111111114,1,0,0,5.536695299990242,colour4,0.39305555555555555,0.3402777777777778,1,0,0,6.221652399981394,number1,False,True,True,45,5,2019_Nov_21_1704,MA_Theta_Exp,3.0.7,60.17947927599999,
video/Experiment/zh_sp07_Ad_Ge_2_GlobalTheta_NoVideo.avi,globalTheta,noVideo,sp07,Ad,Ge,2,3,5,flow/blocks/GlobalTheta_NoVideo_B.csv,,,,,,,,,0,3,3,3,0,11,11,1,,,,,,,,,-0.4097222222222222,0.29444444444444445,1,0,0,4.1237938000122085,call1,-0.006944444444444444,0.12361111111111112,1,0,0,4.572871600015787,colour2,0.4013888888888889,0.29305555555555557,1,0,0,5.0208287999848835,number1,True,False,False,45,5,2019_Nov_21_1704,MA_Theta_Exp,3.0.7,60.17947927599999,
video/Experiment/zh_sp07_Dr_Ro_1_GlobalTheta_NoVideo.avi,globalTheta,noVideo,sp07,Dr,Ro,1,3,5,flow/blocks/GlobalTheta_NoVideo_B.csv,,,,,,,,,0,3,3,3,0,12,12,24,,,,,,,,,-0.37222222222222223,0.2791666666666667,1,0,0,5.8460711000079755,call1,-0.016666666666666666,0.10138888888888889,1,0,0,6.379542200011201,colour2,0.43472222222222223,0.2722222222222222,1,0,0,6.841739299998153,number1,False,False,True,45,5,2019_Nov_21_1704,MA_Theta_Exp,3.0.7,60.17947927599999,
video/Experiment/zh_sp07_Ad_Ro_2_GlobalTheta_NoVideo.avi,globalTheta,noVideo,sp07,Ad,Ro,2,3,5,flow/blocks/GlobalTheta_NoVideo_B.csv,,,,,,,,,0,3,3,3,0,13,13,25,,,,,,,,,-0.3486111111111111,0.3,1,0,0,4.190090499992948,call1,0.06944444444444445,-0.09583333333333334,1,0,0,4.823880699987058,colour3,0.3972222222222222,0.1375,1,0,0,5.307734800007893,number2,True,True,True,45,5,2019_Nov_21_1704,MA_Theta_Exp,3.0.7,60.17947927599999,
video/Experiment/zh_sp01_Un_Ro_2_GlobalTheta_NoVideo.avi,globalTheta,noVideo,sp01,Un,Ro,2,3,5,flow/blocks/GlobalTheta_NoVideo_B.csv,,,,,,,,,0,3,3,3,0,14,14,9,,,,,,,,,-0.41388888888888886,0.32083333333333336,1,0,0,6.19436449999921,call1,0.0375,-0.11527777777777778,1,0,0,6.807243099989137,colour3,0.37916666666666665,0.10416666666666667,1,0,0,7.240978699992411,number2,False,True,True,45,5,2019_Nov_21_1704,MA_Theta_Exp,3.0.7,60.17947927599999,
video/Experiment/zh_sp01_Un_We_2_GlobalTheta_NoVideo.avi,globalTheta,noVideo,sp01,Un,We,2,3,5,flow/blocks/GlobalTheta_NoVideo_B.csv,,,,,,,,,0,3,3,3,0,15,15,13,,,,,,,,,-0.4236111111111111,-0.31342592592592594,1,0,0,4.8038981999852695,call4,0.059722222222222225,-0.30787037037037035,1,0,0,5.387561100011226,colour4,0.3597222222222222,0.12268518518518519,1,0,0,5.901509999996051,number2,True,True,True,45,5,2019_Nov_21_1704,MA_Theta_Exp,3.0.7,60.17947927599999,
video/Experiment/zh_sp01_Ad_Ro_3_GlobalTheta_NoVideo.avi,globalTheta,noVideo,sp01,Ad,Ro,3,3,5,flow/blocks/GlobalTheta_NoVideo_B.csv,,,,,,,,,0,3,3,3,0,16,16,10,,,,,,,,,-0.4236111111111111,0.30185185185185187,1,0,0,4.90307150001172,call1,0.015277777777777777,-0.1439814814814815,1,0,0,5.839339799975278,colour3,0.4083333333333333,-0.10925925925925926,1,0,0,6.352118000009796,number3,True,True,True,45,5,2019_Nov_21_1704,MA_Theta_Exp,3.0.7,60.17947927599999,
video/Experiment/zh_sp01_Ad_We_4_GlobalTheta_NoVideo.avi,globalTheta,noVideo,sp01,Ad,We,4,3,5,flow/blocks/GlobalTheta_NoVideo_B.csv,,,,,,,,,0,3,3,3,0,17,17,31,,,,,,,,,-0.37083333333333335,0.3060185185185185,1,0,0,4.813995399978012,call1,0.041666666666666664,-0.33425925925925926,1,0,0,5.675299800001085,colour4,0.4125,-0.33287037037037037,1,0,0,6.2099046999937855,number4,True,True,True,45,5,2019_Nov_21_1704,MA_Theta_Exp,3.0.7,60.17947927599999,
video/Experiment/zh_sp07_Dr_Ge_2_GlobalTheta_NoVideo.avi,globalTheta,noVideo,sp07,Dr,Ge,2,3,5,flow/blocks/GlobalTheta_NoVideo_B.csv,,,,,,,,,0,3,3,3,0,18,18,17,,,,,,,,,-0.41944444444444445,-0.3162037037037037,1,0,0,4.697333499992965,call4,-0.029166666666666667,0.3587962962962963,1,0,0,5.343637899990426,colour1,0.38333333333333336,0.31296296296296294,1,0,0,6.01243030000478,number1,False,True,False,45,5,2019_Nov_21_1704,MA_Theta_Exp,3.0.7,60.17947927599999,
video/Experiment/zh_sp01_Ad_Gr_4_GlobalTheta_NoVideo.avi,globalTheta,noVideo,sp01,Ad,Gr,4,3,5,flow/blocks/GlobalTheta_NoVideo_B.csv,,,,,,,,,0,3,3,3,0,19,19,7,,,,,,,,,-0.39861111111111114,0.287962962962963,1,0,0,4.8258362999768,call1,0.019444444444444445,0.0824074074074074,1,0,0,5.297717999987071,colour2,0.40555555555555556,-0.33425925925925926,1,0,0,5.8508598000044,number4,True,True,True,45,5,2019_Nov_21_1704,MA_Theta_Exp,3.0.7,60.17947927599999,
video/Experiment/zh_sp01_Dr_Gr_1_GlobalTheta_NoVideo.avi,globalTheta,noVideo,sp01,Dr,Gr,1,3,5,flow/blocks/GlobalTheta_NoVideo_B.csv,,,,,,,,,0,3,3,3,0,20,20,20,,,,,,,,,-0.44166666666666665,-0.11064814814814815,1,0,0,5.286094699986279,call3,0.004166666666666667,0.10324074074074074,1,0,0,5.8440455999807455,colour2,0.3861111111111111,0.29907407407407405,1,0,0,6.391243899997789,number1,False,True,True,45,5,2019_Nov_21_1704,MA_Theta_Exp,3.0.7,60.17947927599999,
video/Experiment/zh_sp01_Un_Ro_4_GlobalTheta_NoVideo.avi,globalTheta,noVideo,sp01,Un,Ro,4,3,5,flow/blocks/GlobalTheta_NoVideo_B.csv,,,,,,,,,0,3,3,3,0,21,21,27,,,,,,,,,-0.4,-0.33287037037037037,1,0,0,5.030755800020415,call4,0.005555555555555556,0.1087962962962963,1,0,0,5.75070340000093,colour2,0.4013888888888889,-0.337037037037037,1,0,0,6.462115600006655,number4,True,False,True,45,5,2019_Nov_21_1704,MA_Theta_Exp,3.0.7,60.17947927599999,
video/Experiment/zh_sp07_Ti_We_2_GlobalTheta_NoVideo.avi,globalTheta,noVideo,sp07,Ti,We,2,3,5,flow/blocks/GlobalTheta_NoVideo_B.csv,,,,,,,,,0,3,3,3,0,22,22,29,,,,,,,,,-0.3611111111111111,-0.08287037037037037,1,0,0,4.399512700008927,call3,0.0125,-0.3648148148148148,1,0,0,4.994269999995595,colour4,0.3902777777777778,0.2949074074074074,1,0,0,5.7694625000003725,number1,True,True,False,45,5,2019_Nov_21_1704,MA_Theta_Exp,3.0.7,60.17947927599999,
video/Experiment/zh_sp07_Ti_Gr_1_GlobalTheta_NoVideo.avi,globalTheta,noVideo,sp07,Ti,Gr,1,3,5,flow/blocks/GlobalTheta_NoVideo_B.csv,,,,,,,,,0,3,3,3,0,23,23,4,,,,,,,,,-0.38333333333333336,0.31574074074074077,1,0,0,5.280105100013316,call1,0.019444444444444445,0.13518518518518519,1,0,0,5.796281799994176,colour2,0.4444444444444444,0.06296296296296296,1,0,0,6.531883599993307,number2,False,True,False,45,5,2019_Nov_21_1704,MA_Theta_Exp,3.0.7,60.17947927599999,
video/Experiment/zh_sp07_Dr_We_4_GlobalTheta_NoVideo.avi,globalTheta,noVideo,sp07,Dr,We,4,3,5,flow/blocks/GlobalTheta_NoVideo_B.csv,,,,,,,,,0,3,3,3,0,24,24,15,,,,,,,,,-0.3680555555555556,-0.09398148148148149,1,0,0,4.51635210000677,call3,0.04027777777777778,-0.27870370370370373,1,0,0,5.945807100011734,colour4,0.4,-0.08425925925925926,1,0,0,6.608377900003688,number3,False,True,False,45,5,2019_Nov_21_1704,MA_Theta_Exp,3.0.7,60.17947927599999,
video/Experiment/zh_sp01_Ad_Ge_3_GlobalTheta_NoVideo.avi,globalTheta,noVideo,sp01,Ad,Ge,3,3,5,flow/blocks/GlobalTheta_NoVideo_B.csv,,,,,,,,,0,3,3,3,0,25,25,18,,,,,,,,,-0.39861111111111114,0.30277777777777776,1,0,0,4.738051699998323,call1,-0.008333333333333333,0.30416666666666664,1,0,0,5.247656699997606,colour1,0.38472222222222224,-0.15833333333333333,1,0,0,5.8614354000019375,number3,True,True,True,45,5,2019_Nov_21_1704,MA_Theta_Exp,3.0.7,60.17947927599999,
video/Experiment/zh_sp07_Un_Gr_2_GlobalTheta_NoVideo.avi,globalTheta,noVideo,sp07,Un,Gr,2,3,5,flow/blocks/GlobalTheta_NoVideo_B.csv,,,,,,,,,0,3,3,3,0,26,26,5,,,,,,,,,-0.43472222222222223,-0.31805555555555554,1,0,0,4.43199640000239,call4,-0.018055555555555554,-0.2916666666666667,1,0,0,4.994215900020208,colour4,0.39861111111111114,0.3458333333333333,1,0,0,5.742021699988982,number1,True,False,False,45,5,2019_Nov_21_1704,MA_Theta_Exp,3.0.7,60.17947927599999,
video/Experiment/zh_sp07_Ti_Ro_4_GlobalTheta_NoVideo.avi,globalTheta,noVideo,sp07,Ti,Ro,4,3,5,flow/blocks/GlobalTheta_NoVideo_B.csv,,,,,,,,,0,3,3,3,0,27,27,11,,,,,,,,,-0.3888888888888889,-0.08703703703703704,1,0,0,4.274464400019497,call3,-0.03333333333333333,-0.10648148148148148,1,0,0,4.735321500018472,colour3,0.32222222222222224,-0.1412037037037037,1,0,0,5.126819800003432,number3,True,True,False,45,5,2019_Nov_21_1704,MA_Theta_Exp,3.0.7,60.17947927599999,
video/Experiment/zh_sp01_Ad_Ge_1_GlobalTheta_NoVideo.avi,globalTheta,noVideo,sp01,Ad,Ge,1,3,5,flow/blocks/GlobalTheta_NoVideo_B.csv,,,,,,,,,0,3,3,3,0,28,28,16,,,,,,,,,-0.49583333333333335,0.3143518518518518,1,0,0,5.117636999988463,call1,0.005555555555555556,0.2824074074074074,1,0,0,6.247904899995774,colour1,0.3736111111111111,0.25462962962962965,1,0,0,6.747039299982134,number1,True,True,True,45,5,2019_Nov_21_1704,MA_Theta_Exp,3.0.7,60.17947927599999,
video/Experiment/zh_sp07_Un_Ge_4_GlobalTheta_NoVideo.avi,globalTheta,noVideo,sp07,Un,Ge,4,3,5,flow/blocks/GlobalTheta_NoVideo_B.csv,,,,,,,,,0,3,3,3,0,29,29,19,,,,,,,,,-0.3888888888888889,-0.274537037037037,1,0,0,4.294834299973445,call4,-0.019444444444444445,-0.2967592592592593,1,0,0,4.8607010999985505,colour4,0.43194444444444446,-0.1287037037037037,1,0,0,5.498658500000602,number3,True,False,False,45,5,2019_Nov_21_1704,MA_Theta_Exp,3.0.7,60.17947927599999,
video/Experiment/zh_sp07_Ti_We_3_GlobalTheta_NoVideo.avi,globalTheta,noVideo,sp07,Ti,We,3,3,5,flow/blocks/GlobalTheta_NoVideo_B.csv,,,,,,,,,0,3,3,3,0,30,30,30,,,,,,,,,-0.44305555555555554,-0.11342592592592593,1,0,0,4.285033399995882,call3,0.004166666666666667,-0.38564814814814813,1,0,0,4.870189200009918,colour4,0.44722222222222224,-0.13842592592592592,1,0,0,5.384844599990174,number3,True,True,True,45,5,2019_Nov_21_1704,MA_Theta_Exp,3.0.7,60.17947927599999,
video/Experiment/zh_sp01_Ti_Gr_2_GlobalTheta_NoVideo.avi,globalTheta,noVideo,sp01,Ti,Gr,2,3,5,flow/blocks/GlobalTheta_NoVideo_B.csv,,,,,,,,,0,3,3,3,0,31,31,21,,,,,,,,,-0.37916666666666665,-0.09398148148148149,1,0,0,5.0136413000000175,call3,0.02361111111111111,0.11851851851851852,1,0,0,5.559798700007377,colour2,0.41388888888888886,0.3087962962962963,1,0,0,6.08627840000554,number1,True,True,False,45,5,2019_Nov_21_1704,MA_Theta_Exp,3.0.7,60.17947927599999,
video/Experiment/zh_sp01_Ad_We_3_NVocInAudio_GlobalThetaInVideo.avi,vocoded,plusVideo,sp01,Ad,We,3,4,1,flow/blocks/NVocInAudio_GlobalThetaInVideo_A.csv,,,,,,,,,0,4,4,4,0,0,0,30,,,,,,,,,-0.4041666666666667,0.31157407407407406,1,0,0,5.181540899997344,call1,-0.029166666666666667,-0.38564814814814813,1,0,0,5.864262900024187,colour4,0.4444444444444444,-0.1412037037037037,1,0,0,6.465936499997042,number3,True,True,True,45,5,2019_Nov_21_1704,MA_Theta_Exp,3.0.7,60.17947927599999,
video/Experiment/zh_sp07_Dr_Ge_4_NVocInAudio_GlobalThetaInVideo.avi,vocoded,plusVideo,sp07,Dr,Ge,4,4,1,flow/blocks/NVocInAudio_GlobalThetaInVideo_A.csv,,,,,,,,,0,4,4,4,0,1,1,19,,,,,,,,,-0.3763888888888889,0.07962962962962963,1,0,0,4.5945819999906234,call2,0.03194444444444444,0.30462962962962964,1,0,0,5.140121099975659,colour1,0.42777777777777776,-0.3106481481481482,1,0,0,5.857901999988826,number4,True,True,True,45,5,2019_Nov_21_1704,MA_Theta_Exp,3.0.7,60.17947927599999,
video/Experiment/zh_sp07_Dr_Ro_4_NVocInAudio_GlobalThetaInVideo.avi,vocoded,plusVideo,sp07,Dr,Ro,4,4,1,flow/blocks/NVocInAudio_GlobalThetaInVideo_A.csv,,,,,,,,,0,4,4,4,0,2,2,27,,,,,,,,,-0.3819444444444444,0.10046296296296296,1,0,0,4.562903899990488,call2,0.06111111111111111,-0.09814814814814815,1,0,0,5.193671199987875,colour3,0.45416666666666666,-0.36342592592592593,1,0,0,5.998489399993559,number4,True,True,True,45,5,2019_Nov_21_1704,MA_Theta_Exp,3.0.7,60.17947927599999,
video/Experiment/zh_sp01_Ti_Ge_2_NVocInAudio_GlobalThetaInVideo.avi,vocoded,plusVideo,sp01,Ti,Ge,2,4,1,flow/blocks/NVocInAudio_GlobalThetaInVideo_A.csv,,,,,,,,,0,4,4,4,0,3,3,1,,,,,,,,,-0.37222222222222223,-0.09814814814814815,1,0,0,5.221030100015923,call3,-0.018055555555555554,0.31712962962962965,1,0,0,5.837296300014714,colour1,0.44722222222222224,0.09768518518518518,1,0,0,6.524352399981581,number2,True,True,True,45,5,2019_Nov_21_1704,MA_Theta_Exp,3.0.7,60.17947927599999,
video/Experiment/zh_sp01_Un_Gr_1_NVocInAudio_GlobalThetaInVideo.avi,vocoded,plusVideo,sp01,Un,Gr,1,4,1,flow/blocks/NVocInAudio_GlobalThetaInVideo_A.csv,,,,,,,,,0,4,4,4,0,4,4,20,,,,,,,,,-0.4444444444444444,-0.2898148148148148,1,0,0,5.0833608000248205,call4,-0.027777777777777776,0.12407407407407407,1,0,0,5.732184099993901,colour2,0.4041666666666667,0.2865740740740741,1,0,0,6.537769599992316,number1,True,True,True,45,5,2019_Nov_21_1704,MA_Theta_Exp,3.0.7,60.17947927599999,
video/Experiment/zh_sp01_Un_We_3_NVocInAudio_GlobalThetaInVideo.avi,vocoded,plusVideo,sp01,Un,We,3,4,1,flow/blocks/NVocInAudio_GlobalThetaInVideo_A.csv,,,,,,,,,0,4,4,4,0,5,5,14,,,,,,,,,-0.3763888888888889,-0.29259259259259257,1,0,0,4.814180299988948,call4,0.008333333333333333,-0.31342592592592594,1,0,0,5.277559000009205,colour4,0.4083333333333333,-0.09675925925925925,1,0,0,6.22878020000644,number3,True,True,True,45,5,2019_Nov_21_1704,MA_Theta_Exp,3.0.7,60.17947927599999,
video/Experiment/zh_sp07_Ad_Ro_4_NVocInAudio_GlobalThetaInVideo.avi,vocoded,plusVideo,sp07,Ad,Ro,4,4,1,flow/blocks/NVocInAudio_GlobalThetaInVideo_A.csv,,,,,,,,,0,4,4,4,0,6,6,11,,,,,,,,,-0.38472222222222224,0.27546296296296297,1,0,0,4.503831599984551,call1,-0.07916666666666666,-0.09537037037037037,1,0,0,5.055397399992216,colour3,0.41388888888888886,-0.3050925925925926,1,0,0,5.575806000008015,number4,True,True,True,45,5,2019_Nov_21_1704,MA_Theta_Exp,3.0.7,60.17947927599999,
video/Experiment/zh_sp07_Dr_Gr_3_NVocInAudio_GlobalThetaInVideo.avi,vocoded,plusVideo,sp07,Dr,Gr,3,4,1,flow/blocks/NVocInAudio_GlobalThetaInVideo_A.csv,,,,,,,,,0,4,4,4,0,7,7,6,,,,,,,,,-0.37222222222222223,0.12407407407407407,1,0,0,4.503534100018442,call2,-0.044444444444444446,0.10324074074074074,1,0,0,4.971432199992705,colour2,0.4722222222222222,-0.1398148148148148,1,0,0,5.4367655999958515,number3,True,True,True,45,5,2019_Nov_21_1704,MA_Theta_Exp,3.0.7,60.17947927599999,
video/Experiment/zh_sp01_Ad_Ro_1_NVocInAudio_GlobalThetaInVideo.avi,vocoded,plusVideo,sp01,Ad,Ro,1,4,1,flow/blocks/NVocInAudio_GlobalThetaInVideo_A.csv,,,,,,,,,0,4,4,4,0,8,8,8,,,,,,,,,-0.44305555555555554,0.2740740740740741,1,0,0,5.413543500006199,call1,0.013888888888888888,-0.14537037037037037,1,0,0,6.0808680999907665,colour3,0.37083333333333335,0.2962962962962963,1,0,0,6.596772400022019,number1,True,True,True,45,5,2019_Nov_21_1704,MA_Theta_Exp,3.0.7,60.17947927599999,
video/Experiment/zh_sp07_Un_We_1_NVocInAudio_GlobalThetaInVideo.avi,vocoded,plusVideo,sp07,Un,We,1,4,1,flow/blocks/NVocInAudio_GlobalThetaInVideo_A.csv,,,,,,,,,0,4,4,4,0,9,9,28,,,,,,,,,-0.3680555555555556,0.0824074074074074,1,0,0,5.409445900004357,call2,0.041666666666666664,-0.30648148148148147,1,0,0,6.527114399999846,colour4,0.4083333333333333,0.36712962962962964,1,0,0,7.263845599984052,number1,False,True,True,45,5,2019_Nov_21_1704,MA_Theta_Exp,3.0.7,60.17947927599999,
video/Experiment/zh_sp01_Ad_Gr_3_NVocInAudio_GlobalThetaInVideo.avi,vocoded,plusVideo,sp01,Ad,Gr,3,4,1,flow/blocks/NVocInAudio_GlobalThetaInVideo_A.csv,,,,,,,,,0,4,4,4,0,10,10,22,,,,,,,,,-0.46805555555555556,0.2986111111111111,1,0,0,5.234836399991764,call1,-0.016666666666666666,0.10416666666666667,1,0,0,5.732108099997276,colour2,0.41944444444444445,-0.08194444444444444,1,0,0,6.144506100012222,number3,True,True,True,45,5,2019_Nov_21_1704,MA_Theta_Exp,3.0.7,60.17947927599999,
video/Experiment/zh_sp07_Ad_We_2_NVocInAudio_GlobalThetaInVideo.avi,vocoded,plusVideo,sp07,Ad,We,2,4,1,flow/blocks/NVocInAudio_GlobalThetaInVideo_A.csv,,,,,,,,,0,4,4,4,0,11,11,29,,,,,,,,,-0.4263888888888889,0.3375,1,0,0,4.388563999993494,call1,0.08055555555555556,-0.35138888888888886,1,0,0,5.190182699996512,colour4,0.35138888888888886,0.11805555555555555,1,0,0,5.821271199994953,number2,True,True,True,45,5,2019_Nov_21_1704,MA_Theta_Exp,3.0.7,60.17947927599999,
video/Experiment/zh_sp07_Dr_Gr_2_NVocInAudio_GlobalThetaInVideo.avi,vocoded,plusVideo,sp07,Dr,Gr,2,4,1,flow/blocks/NVocInAudio_GlobalThetaInVideo_A.csv,,,,,,,,,0,4,4,4,0,12,12,5,,,,,,,,,-0.4152777777777778,0.0625,1,0,0,4.943959800002631,call2,0.043055555555555555,0.09444444444444444,1,0,0,5.7224630000127945,colour2,0.45555555555555555,0.10833333333333334,1,0,0,6.2099231999891344,number2,True,True,True,45,5,2019_Nov_21_1704,MA_Theta_Exp,3.0.7,60.17947927599999,
video/Experiment/zh_sp07_Ad_Gr_1_NVocInAudio_GlobalThetaInVideo.avi,vocoded,plusVideo,sp07,Ad,Gr,1,4,1,flow/blocks/NVocInAudio_GlobalThetaInVideo_A.csv,,,,,,,,,0,4,4,4,0,13,13,4,,,,,,,,,-0.3972222222222222,0.325,1,0,0,4.41859950000071,call1,0.044444444444444446,0.11805555555555555,1,0,0,4.9143412000266835,colour2,0.4111111111111111,0.3388888888888889,1,0,0,5.347444999992149,number1,True,True,True,45,5,2019_Nov_21_1704,MA_Theta_Exp,3.0.7,60.17947927599999,
video/Experiment/zh_sp01_Dr_Ro_2_NVocInAudio_GlobalThetaInVideo.avi,vocoded,plusVideo,sp01,Dr,Ro,2,4,1,flow/blocks/NVocInAudio_GlobalThetaInVideo_A.csv,,,,,,,,,0,4,4,4,0,14,14,9,,,,,,,,,-0.41805555555555557,0.125,1,0,0,5.221194100013236,call2,0.03888888888888889,-0.17222222222222222,1,0,0,5.83277179999277,colour3,0.4986111111111111,0.1638888888888889,1,0,0,6.361604100005934,number2,True,True,True,45,5,2019_Nov_21_1704,MA_Theta_Exp,3.0.7,60.17947927599999,
video/Experiment/zh_sp01_Ti_Gr_4_NVocInAudio_GlobalThetaInVideo.avi,vocoded,plusVideo,sp01,Ti,Gr,4,4,1,flow/blocks/NVocInAudio_GlobalThetaInVideo_A.csv,,,,,,,,,0,4,4,4,0,15,15,7,,,,,,,,,-0.4305555555555556,-0.08703703703703704,1,0,0,5.775191099994117,call3,-0.0125,0.09074074074074075,1,0,0,6.409567299997434,colour2,0.44722222222222224,-0.3675925925925926,1,0,0,7.038554099999601,number4,True,True,True,45,5,2019_Nov_21_1704,MA_Theta_Exp,3.0.7,60.17947927599999,
video/Experiment/zh_sp01_Ad_We_1_NVocInAudio_GlobalThetaInVideo.avi,vocoded,plusVideo,sp01,Ad,We,1,4,1,flow/blocks/NVocInAudio_GlobalThetaInVideo_A.csv,,,,,,,,,0,4,4,4,0,16,16,12,,,,,,,,,-0.4652777777777778,0.2513888888888889,1,0,0,5.088454999990063,call1,0.018055555555555554,-0.31805555555555554,1,0,0,5.7956679000053555,colour4,0.4236111111111111,0.33055555555555555,1,0,0,6.416418600012548,number1,True,True,True,45,5,2019_Nov_21_1704,MA_Theta_Exp,3.0.7,60.17947927599999,
video/Experiment/zh_sp01_Ti_Ro_2_NVocInAudio_GlobalThetaInVideo.avi,vocoded,plusVideo,sp01,Ti,Ro,2,4,1,flow/blocks/NVocInAudio_GlobalThetaInVideo_A.csv,,,,,,,,,0,4,4,4,0,17,17,25,,,,,,,,,-0.3902777777777778,-0.09722222222222222,1,0,0,6.50866560000577,call3,0.02361111111111111,-0.17777777777777778,1,0,0,7.176025999971898,colour3,0.41944444444444445,0.15138888888888888,1,0,0,7.667859399982262,number2,True,True,True,45,5,2019_Nov_21_1704,MA_Theta_Exp,3.0.7,60.17947927599999,
video/Experiment/zh_sp07_Ti_Ge_3_NVocInAudio_GlobalThetaInVideo.avi,vocoded,plusVideo,sp07,Ti,Ge,3,4,1,flow/blocks/NVocInAudio_GlobalThetaInVideo_A.csv,,,,,,,,,0,4,4,4,0,18,18,18,,,,,,,,,-0.42777777777777776,-0.13472222222222222,1,0,0,4.370203100028448,call3,-0.011111111111111112,0.3375,1,0,0,5.016319400019711,colour1,0.4305555555555556,-0.09583333333333334,1,0,0,5.68022429998382,number3,True,True,True,45,5,2019_Nov_21_1704,MA_Theta_Exp,3.0.7,60.17947927599999,
video/Experiment/zh_sp07_Un_Ge_2_NVocInAudio_GlobalThetaInVideo.avi,vocoded,plusVideo,sp07,Un,Ge,2,4,1,flow/blocks/NVocInAudio_GlobalThetaInVideo_A.csv,,,,,,,,,0,4,4,4,0,19,19,17,,,,,,,,,-0.39861111111111114,-0.3263888888888889,1,0,0,4.379808800003957,call4,-0.027777777777777776,0.29305555555555557,1,0,0,5.275305599992862,colour1,0.3972222222222222,0.07777777777777778,1,0,0,5.941967400023714,number2,True,True,True,45,5,2019_Nov_21_1704,MA_Theta_Exp,3.0.7,60.17947927599999,
video/Experiment/zh_sp07_Dr_Ge_1_NVocInAudio_GlobalThetaInVideo.avi,vocoded,plusVideo,sp07,Dr,Ge,1,4,1,flow/blocks/NVocInAudio_GlobalThetaInVideo_A.csv,,,,,,,,,0,4,4,4,0,20,20,0,,,,,,,,,-0.39444444444444443,0.11805555555555555,1,0,0,4.329299300006824,call2,0.05,0.2902777777777778,1,0,0,5.009625100006815,colour1,0.3763888888888889,0.2986111111111111,1,0,0,5.450894000008702,number1,True,True,True,45,5,2019_Nov_21_1704,MA_Theta_Exp,3.0.7,60.17947927599999,
video/Experiment/zh_sp01_Ti_Ro_3_NVocInAudio_GlobalThetaInVideo.avi,vocoded,plusVideo,sp01,Ti,Ro,3,4,1,flow/blocks/NVocInAudio_GlobalThetaInVideo_A.csv,,,,,,,,,0,4,4,4,0,21,21,10,,,,,,,,,-0.35694444444444445,-0.07777777777777778,1,0,0,4.888947700004792,call3,0.02361111111111111,-0.10972222222222222,1,0,0,5.3928596999903675,colour3,0.4388888888888889,-0.06111111111111111,1,0,0,6.023530300008133,number3,True,True,True,45,5,2019_Nov_21_1704,MA_Theta_Exp,3.0.7,60.17947927599999,
video/Experiment/zh_sp01_Un_We_4_NVocInAudio_GlobalThetaInVideo.avi,vocoded,plusVideo,sp01,Un,We,4,4,1,flow/blocks/NVocInAudio_GlobalThetaInVideo_A.csv,,,,,,,,,0,4,4,4,0,22,22,15,,,,,,,,,-0.4513888888888889,0.09444444444444444,1,0,0,5.427355699997861,call2,-0.4222222222222222,-0.325,1,0,0,6.588388300006045,colour4,0.30277777777777776,-0.3055555555555556,1,0,0,8.339404500002274,number4,False,True,True,45,5,2019_Nov_21_1704,MA_Theta_Exp,3.0.7,60.17947927599999,
video/Experiment/zh_sp07_Dr_Gr_4_NVocInAudio_GlobalThetaInVideo.avi,vocoded,plusVideo,sp07,Dr,Gr,4,4,1,flow/blocks/NVocInAudio_GlobalThetaInVideo_A.csv,,,,,,,,,0,4,4,4,0,23,23,23,,,,,,,,,-0.3888888888888889,0.06111111111111111,1,0,0,4.59863259998383,call2,0.002777777777777778,0.1111111111111111,1,0,0,5.133130599977449,colour2,0.44166666666666665,-0.32083333333333336,1,0,0,5.77406249998603,number4,True,True,True,45,5,2019_Nov_21_1704,MA_Theta_Exp,3.0.7,60.17947927599999,
video/Experiment/zh_sp01_Un_Ro_3_NVocInAudio_GlobalThetaInVideo.avi,vocoded,plusVideo,sp01,Un,Ro,3,4,1,flow/blocks/NVocInAudio_GlobalThetaInVideo_A.csv,,,,,,,,,0,4,4,4,0,24,24,26,,,,,,,,,-0.37083333333333335,-0.30416666666666664,1,0,0,5.004495299974224,call4,0.0125,-0.08472222222222223,1,0,0,5.5192008999874815,colour3,0.4513888888888889,-0.075,1,0,0,6.088476300006732,number3,True,True,True,45,5,2019_Nov_21_1704,MA_Theta_Exp,3.0.7,60.17947927599999,
video/Experiment/zh_sp07_Ti_Ge_4_NVocInAudio_GlobalThetaInVideo.avi,vocoded,plusVideo,sp07,Ti,Ge,4,4,1,flow/blocks/NVocInAudio_GlobalThetaInVideo_A.csv,,,,,,,,,0,4,4,4,0,25,25,3,,,,,,,,,-0.3875,-0.14166666666666666,1,0,0,4.427663499984192,call3,0.041666666666666664,0.28888888888888886,1,0,0,5.124161199986702,colour1,0.46111111111111114,-0.3111111111111111,1,0,0,6.105976199993165,number4,True,True,True,45,5,2019_Nov_21_1704,MA_Theta_Exp,3.0.7,60.17947927599999,
video/Experiment/zh_sp01_Un_Ro_1_NVocInAudio_GlobalThetaInVideo.avi,vocoded,plusVideo,sp01,Un,Ro,1,4,1,flow/blocks/NVocInAudio_GlobalThetaInVideo_A.csv,,,,,,,,,0,4,4,4,0,26,26,24,,,,,,,,,-0.35138888888888886,-0.2972222222222222,1,0,0,5.038050200004363,call4,0.002777777777777778,-0.09305555555555556,1,0,0,5.557120000012219,colour3,0.4013888888888889,0.3638888888888889,1,0,0,6.177452700008871,number1,True,True,True,45,5,2019_Nov_21_1704,MA_Theta_Exp,3.0.7,60.17947927599999,
video/Experiment/zh_sp07_Ti_Ge_1_NVocInAudio_GlobalThetaInVideo.avi,vocoded,plusVideo,sp07,Ti,Ge,1,4,1,flow/blocks/NVocInAudio_GlobalThetaInVideo_A.csv,,,,,,,,,0,4,4,4,0,27,27,16,,,,,,,,,-0.33611111111111114,-0.12083333333333333,1,0,0,4.393409100011922,call3,0.005555555555555556,0.32916666666666666,1,0,0,4.92686780000804,colour1,0.3638888888888889,0.3194444444444444,1,0,0,5.361925800010795,number1,True,True,True,45,5,2019_Nov_21_1704,MA_Theta_Exp,3.0.7,60.17947927599999,
video/Experiment/zh_sp01_Dr_We_2_NVocInAudio_GlobalThetaInVideo.avi,vocoded,plusVideo,sp01,Dr,We,2,4,1,flow/blocks/NVocInAudio_GlobalThetaInVideo_A.csv,,,,,,,,,0,4,4,4,0,28,28,13,,,,,,,,,-0.4097222222222222,0.12546296296296297,1,0,0,5.353543600009289,call2,0.005555555555555556,-0.30925925925925923,1,0,0,6.153057400020771,colour4,0.4083333333333333,0.09907407407407408,1,0,0,6.873651399975643,number2,True,True,True,45,5,2019_Nov_21_1704,MA_Theta_Exp,3.0.7,60.17947927599999,
video/Experiment/zh_sp07_Ti_We_4_NVocInAudio_GlobalThetaInVideo.avi,vocoded,plusVideo,sp07,Ti,We,4,4,1,flow/blocks/NVocInAudio_GlobalThetaInVideo_A.csv,,,,,,,,,0,4,4,4,0,29,29,31,,,,,,,,,-0.4027777777777778,-0.1050925925925926,1,0,0,4.499267000006512,call3,-0.0125,-0.3300925925925926,1,0,0,5.052553799992893,colour4,0.4986111111111111,-0.34120370370370373,1,0,0,5.565131600014865,number4,True,True,True,45,5,2019_Nov_21_1704,MA_Theta_Exp,3.0.7,60.17947927599999,
video/Experiment/zh_sp07_Un_Ge_3_NVocInAudio_GlobalThetaInVideo.avi,vocoded,plusVideo,sp07,Un,Ge,3,4,1,flow/blocks/NVocInAudio_GlobalThetaInVideo_A.csv,,,,,,,,,0,4,4,4,0,30,30,2,,,,,,,,,-0.3888888888888889,-0.3384259259259259,1,0,0,4.412924400006887,call4,0.03333333333333333,0.3226851851851852,1,0,0,5.15514020001865,colour1,0.43333333333333335,-0.1050925925925926,1,0,0,5.818844399997033,number3,True,True,True,45,5,2019_Nov_21_1704,MA_Theta_Exp,3.0.7,60.17947927599999,
video/Experiment/zh_sp01_Ad_Gr_2_NVocInAudio_GlobalThetaInVideo.avi,vocoded,plusVideo,sp01,Ad,Gr,2,4,1,flow/blocks/NVocInAudio_GlobalThetaInVideo_A.csv,,,,,,,,,0,4,4,4,0,31,31,21,,,,,,,,,-0.375,0.2851851851851852,1,0,0,5.144566500006476,call1,0.06527777777777778,0.07824074074074074,1,0,0,5.623216999985743,colour2,0.36527777777777776,0.06018518518518518,1,0,0,6.022308100014925,number2,True,True,True,45,5,2019_Nov_21_1704,MA_Theta_Exp,3.0.7,60.17947927599999,
video/Experiment/zh_sp07_Ti_Gr_1_NoThetaInAudio_NoVideo.avi,noTheta,noVideo,sp07,Ti,Gr,1,0,4,flow/blocks/NoThetaInAudio_NoVideo_B.csv,,,,,,,,,,,,,,,,,0,0,0,0,0,0,0,4,-0.4652777777777778,-0.14675925925925926,1,0,0,4.733582500019111,call3,-0.044444444444444446,0.1337962962962963,1,0,0,5.218775100016501,colour2,0.4083333333333333,0.350462962962963,1,0,0,5.693828300019959,number1,True,True,True,45,5,2019_Nov_21_1704,MA_Theta_Exp,3.0.7,60.17947927599999,
video/Experiment/zh_sp07_Dr_Ro_3_NoThetaInAudio_NoVideo.avi,noTheta,noVideo,sp07,Dr,Ro,3,0,4,flow/blocks/NoThetaInAudio_NoVideo_B.csv,,,,,,,,,,,,,,,,,0,0,0,0,0,1,1,26,-0.425,0.32546296296296295,1,0,0,4.641753499978222,call1,-0.006944444444444444,-0.09398148148148149,1,0,0,5.35307029998512,colour3,0.42777777777777776,-0.1287037037037037,1,0,0,6.039614999986952,number3,False,True,True,45,5,2019_Nov_21_1704,MA_Theta_Exp,3.0.7,60.17947927599999,
video/Experiment/zh_sp07_Un_Ro_4_NoThetaInAudio_NoVideo.avi,noTheta,noVideo,sp07,Un,Ro,4,0,4,flow/blocks/NoThetaInAudio_NoVideo_B.csv,,,,,,,,,,,,,,,,,0,0,0,0,0,2,2,27,-0.4513888888888889,-0.32314814814814813,1,0,0,4.286301399988588,call4,-0.05555555555555555,-0.1287037037037037,1,0,0,4.734808199980762,colour3,0.43194444444444446,-0.3425925925925926,1,0,0,5.44489730001078,number4,True,True,True,45,5,2019_Nov_21_1704,MA_Theta_Exp,3.0.7,60.17947927599999,
video/Experiment/zh_sp01_Dr_Gr_1_NoThetaInAudio_NoVideo.avi,noTheta,noVideo,sp01,Dr,Gr,1,0,4,flow/blocks/NoThetaInAudio_NoVideo_B.csv,,,,,,,,,,,,,,,,,0,0,0,0,0,3,3,20,-0.44027777777777777,-0.13148148148148148,1,0,0,5.094327700004214,call3,-0.10138888888888889,0.07546296296296297,1,0,0,5.497784300008789,colour2,0.39305555555555555,0.33240740740740743,1,0,0,6.358235400024569,number1,False,True,True,45,5,2019_Nov_21_1704,MA_Theta_Exp,3.0.7,60.17947927599999,
video/Experiment/zh_sp07_Ti_Ro_4_NoThetaInAudio_NoVideo.avi,noTheta,noVideo,sp07,Ti,Ro,4,0,4,flow/blocks/NoThetaInAudio_NoVideo_B.csv,,,,,,,,,,,,,,,,,0,0,0,0,0,4,4,11,-0.4388888888888889,-0.1259259259259259,1,0,0,4.450800000020536,call3,-0.06666666666666667,-0.08287037037037037,1,0,0,4.899940700008301,colour3,0.45694444444444443,-0.2953703703703704,1,0,0,5.4166419999965,number4,True,True,True,45,5,2019_Nov_21_1704,MA_Theta_Exp,3.0.7,60.17947927599999,
video/Experiment/zh_sp01_Ti_We_1_NoThetaInAudio_NoVideo.avi,noTheta,noVideo,sp01,Ti,We,1,0,4,flow/blocks/NoThetaInAudio_NoVideo_B.csv,,,,,,,,,,,,,,,,,0,0,0,0,0,5,5,12,-0.3819444444444444,0.30324074074074076,1,0,0,6.411192100000335,call1,0.04861111111111111,-0.3800925925925926,1,0,0,7.164632300002268,colour4,0.3680555555555556,0.287962962962963,1,0,0,7.7734373999992386,number1,False,True,True,45,5,2019_Nov_21_1704,MA_Theta_Exp,3.0.7,60.17947927599999,
video/Experiment/zh_sp01_Un_We_2_NoThetaInAudio_NoVideo.avi,noTheta,noVideo,sp01,Un,We,2,0,4,flow/blocks/NoThetaInAudio_NoVideo_B.csv,,,,,,,,,,,,,,,,,0,0,0,0,0,6,6,13,-0.38055555555555554,-0.3037037037037037,1,0,0,4.862759099982213,call4,0.07916666666666666,-0.2814814814814815,1,0,0,5.259275799995521,colour4,0.41944444444444445,0.10462962962962963,1,0,0,6.030093300010776,number2,True,True,True,45,5,2019_Nov_21_1704,MA_Theta_Exp,3.0.7,60.17947927599999,
video/Experiment/zh_sp01_Ti_Ro_1_NoThetaInAudio_NoVideo.avi,noTheta,noVideo,sp01,Ti,Ro,1,0,4,flow/blocks/NoThetaInAudio_NoVideo_B.csv,,,,,,,,,,,,,,,,,0,0,0,0,0,7,7,8,-0.43194444444444446,-0.09259259259259259,1,0,0,5.121781900001224,call3,-0.06666666666666667,-0.08564814814814815,1,0,0,5.597390599985374,colour3,0.4236111111111111,0.3449074074074074,1,0,0,6.196974999998929,number1,True,True,True,45,5,2019_Nov_21_1704,MA_Theta_Exp,3.0.7,60.17947927599999,
video/Experiment/zh_sp07_Un_Ge_1_NoThetaInAudio_NoVideo.avi,noTheta,noVideo,sp07,Un,Ge,1,0,4,flow/blocks/NoThetaInAudio_NoVideo_B.csv,,,,,,,,,,,,,,,,,0,0,0,0,0,8,8,0,-0.4,-0.09537037037037037,1,0,0,4.564612000016496,call3,0.016666666666666666,-0.08842592592592592,1,0,0,6.345961800019722,colour3,0.4708333333333333,0.2851851851851852,1,0,0,7.431240699981572,number1,False,False,True,45,5,2019_Nov_21_1704,MA_Theta_Exp,3.0.7,60.17947927599999,
video/Experiment/zh_sp01_Ad_Ge_1_NoThetaInAudio_NoVideo.avi,noTheta,noVideo,sp01,Ad,Ge,1,0,4,flow/blocks/NoThetaInAudio_NoVideo_B.csv,,,,,,,,,,,,,,,,,0,0,0,0,0,9,9,16,-0.4152777777777778,0.3282407407407407,1,0,0,5.069841999997152,call1,-0.006944444444444444,0.31851851851851853,1,0,0,5.713509399996838,colour1,0.44305555555555554,0.2865740740740741,1,0,0,6.374299699993571,number1,True,True,True,45,5,2019_Nov_21_1704,MA_Theta_Exp,3.0.7,60.17947927599999,
video/Experiment/zh_sp01_Dr_Ge_3_NoThetaInAudio_NoVideo.avi,noTheta,noVideo,sp01,Dr,Ge,3,0,4,flow/blocks/NoThetaInAudio_NoVideo_B.csv,,,,,,,,,,,,,,,,,0,0,0,0,0,10,10,2,-0.4375,-0.13148148148148148,1,0,0,4.904472399997758,call3,0.020833333333333332,0.3060185185185185,1,0,0,5.816899400000693,colour1,0.4388888888888889,-0.11481481481481481,1,0,0,6.466945299995132,number3,False,True,True,45,5,2019_Nov_21_1704,MA_Theta_Exp,3.0.7,60.17947927599999,
video/Experiment/zh_sp07_Dr_We_4_NoThetaInAudio_NoVideo.avi,noTheta,noVideo,sp07,Dr,We,4,0,4,flow/blocks/NoThetaInAudio_NoVideo_B.csv,,,,,,,,,,,,,,,,,0,0,0,0,0,11,11,15,-0.3625,-0.30787037037037035,1,0,0,4.719654000014998,call4,-0.009722222222222222,-0.3148148148148148,1,0,0,5.1699052000185475,colour4,0.3597222222222222,-0.08981481481481482,1,0,0,5.642584599991096,number3,False,True,False,45,5,2019_Nov_21_1704,MA_Theta_Exp,3.0.7,60.17947927599999,
video/Experiment/zh_sp07_Dr_We_3_NoThetaInAudio_NoVideo.avi,noTheta,noVideo,sp07,Dr,We,3,0,4,flow/blocks/NoThetaInAudio_NoVideo_B.csv,,,,,,,,,,,,,,,,,0,0,0,0,0,12,12,14,-0.39166666666666666,-0.3037037037037037,1,0,0,4.391424600005848,call4,-0.075,-0.28564814814814815,1,0,0,4.803808600001503,colour4,0.4125,-0.0912037037037037,1,0,0,5.31792330002645,number3,False,True,True,45,5,2019_Nov_21_1704,MA_Theta_Exp,3.0.7,60.17947927599999,
video/Experiment/zh_sp01_Un_Gr_2_NoThetaInAudio_NoVideo.avi,noTheta,noVideo,sp01,Un,Gr,2,0,4,flow/blocks/NoThetaInAudio_NoVideo_B.csv,,,,,,,,,,,,,,,,,0,0,0,0,0,13,13,5,-0.3888888888888889,-0.30092592592592593,1,0,0,5.135363600013079,call4,-0.04861111111111111,0.07685185185185185,1,0,0,5.633634700003313,colour2,0.4166666666666667,0.10462962962962963,1,0,0,6.430187400022987,number2,True,True,True,45,5,2019_Nov_21_1704,MA_Theta_Exp,3.0.7,60.17947927599999,
video/Experiment/zh_sp07_Ti_Gr_2_NoThetaInAudio_NoVideo.avi,noTheta,noVideo,sp07,Ti,Gr,2,0,4,flow/blocks/NoThetaInAudio_NoVideo_B.csv,,,,,,,,,,,,,,,,,0,0,0,0,0,14,14,21,-0.45416666666666666,-0.12037037037037036,1,0,0,4.211062300018966,call3,-0.04583333333333333,0.07685185185185185,1,0,0,4.658093600010034,colour2,0.3458333333333333,0.09768518518518518,1,0,0,5.0555896000005305,number2,True,True,True,45,5,2019_Nov_21_1704,MA_Theta_Exp,3.0.7,60.17947927599999,
video/Experiment/zh_sp01_Un_Ge_4_NoThetaInAudio_NoVideo.avi,noTheta,noVideo,sp01,Un,Ge,4,0,4,flow/blocks/NoThetaInAudio_NoVideo_B.csv,,,,,,,,,,,,,,,,,0,0,0,0,0,15,15,19,-0.4152777777777778,-0.29259259259259257,1,0,0,4.915015599981416,call4,-0.02361111111111111,0.3587962962962963,1,0,0,5.477855000004638,colour1,0.37916666666666665,-0.29953703703703705,1,0,0,6.191711299994495,number4,True,True,True,45,5,2019_Nov_21_1704,MA_Theta_Exp,3.0.7,60.17947927599999,
video/Experiment/zh_sp07_Ad_Gr_4_NoThetaInAudio_NoVideo.avi,noTheta,noVideo,sp07,Ad,Gr,4,0,4,flow/blocks/NoThetaInAudio_NoVideo_B.csv,,,,,,,,,,,,,,,,,0,0,0,0,0,16,16,7,-0.4638888888888889,0.28194444444444444,1,0,0,4.353220299992245,call1,0.004166666666666667,0.1,1,0,0,4.849928200012073,colour2,0.35138888888888886,-0.275,1,0,0,5.34752790001221,number4,True,True,True,45,5,2019_Nov_21_1704,MA_Theta_Exp,3.0.7,60.17947927599999,
video/Experiment/zh_sp01_Ad_We_4_NoThetaInAudio_NoVideo.avi,noTheta,noVideo,sp01,Ad,We,4,0,4,flow/blocks/NoThetaInAudio_NoVideo_B.csv,,,,,,,,,,,,,,,,,0,0,0,0,0,17,17,31,-0.4166666666666667,0.27361111111111114,1,0,0,4.960252700024284,call1,-0.019444444444444445,-0.3194444444444444,1,0,0,5.558379200025229,colour4,0.3347222222222222,-0.3416666666666667,1,0,0,5.959061999979895,number4,True,True,True,45,5,2019_Nov_21_1704,MA_Theta_Exp,3.0.7,60.17947927599999,
video/Experiment/zh_sp01_Dr_Ro_1_NoThetaInAudio_NoVideo.avi,noTheta,noVideo,sp01,Dr,Ro,1,0,4,flow/blocks/NoThetaInAudio_NoVideo_B.csv,,,,,,,,,,,,,,,,,0,0,0,0,0,18,18,24,-0.4375,0.03611111111111111,1,0,0,5.315054999984568,call2,-0.05694444444444444,-0.11805555555555555,1,0,0,5.932296299986774,colour3,0.3819444444444444,0.31666666666666665,1,0,0,6.49771709999186,number1,True,True,True,45,5,2019_Nov_21_1704,MA_Theta_Exp,3.0.7,60.17947927599999,
video/Experiment/zh_sp01_Dr_We_1_NoThetaInAudio_NoVideo.avi,noTheta,noVideo,sp01,Dr,We,1,0,4,flow/blocks/NoThetaInAudio_NoVideo_B.csv,,,,,,,,,,,,,,,,,0,0,0,0,0,19,19,28,-0.3680555555555556,-0.1,1,0,0,5.682239999994636,call3,0.034722222222222224,-0.37777777777777777,1,0,0,6.615200000000186,colour4,0.3736111111111111,0.30972222222222223,1,0,0,7.18708480001078,number1,False,True,True,45,5,2019_Nov_21_1704,MA_Theta_Exp,3.0.7,60.17947927599999,
video/Experiment/zh_sp01_Un_Gr_4_NoThetaInAudio_NoVideo.avi,noTheta,noVideo,sp01,Un,Gr,4,0,4,flow/blocks/NoThetaInAudio_NoVideo_B.csv,,,,,,,,,,,,,,,,,0,0,0,0,0,20,20,23,-0.38055555555555554,-0.3023148148148148,1,0,0,5.755731600016588,call4,-0.05,0.10601851851851851,1,0,0,6.234347200021148,colour2,0.3888888888888889,-0.37175925925925923,1,0,0,6.950641299976269,number4,True,True,True,45,5,2019_Nov_21_1704,MA_Theta_Exp,3.0.7,60.17947927599999,
video/Experiment/zh_sp01_Ti_Gr_3_NoThetaInAudio_NoVideo.avi,noTheta,noVideo,sp01,Ti,Gr,3,0,4,flow/blocks/NoThetaInAudio_NoVideo_B.csv,,,,,,,,,,,,,,,,,0,0,0,0,0,21,21,22,-0.4111111111111111,-0.1175925925925926,1,0,0,5.269659900019178,call3,-0.03611111111111111,0.0962962962962963,1,0,0,5.7258791999774985,colour2,0.38472222222222224,-0.07314814814814814,1,0,0,6.247773799987044,number3,True,True,True,45,5,2019_Nov_21_1704,MA_Theta_Exp,3.0.7,60.17947927599999,
video/Experiment/zh_sp01_Ad_Ge_2_NoThetaInAudio_NoVideo.avi,noTheta,noVideo,sp01,Ad,Ge,2,0,4,flow/blocks/NoThetaInAudio_NoVideo_B.csv,,,,,,,,,,,,,,,,,0,0,0,0,0,22,22,1,-0.40694444444444444,0.3263888888888889,1,0,0,5.034320400009165,call1,0.020833333333333332,0.09305555555555556,1,0,0,6.83747709999443,colour2,0.42083333333333334,0.08611111111111111,1,0,0,7.29613280002377,number2,True,False,True,45,5,2019_Nov_21_1704,MA_Theta_Exp,3.0.7,60.17947927599999,
video/Experiment/zh_sp07_Ad_Ge_4_NoThetaInAudio_NoVideo.avi,noTheta,noVideo,sp07,Ad,Ge,4,0,4,flow/blocks/NoThetaInAudio_NoVideo_B.csv,,,,,,,,,,,,,,,,,0,0,0,0,0,23,23,3,-0.36666666666666664,0.30416666666666664,1,0,0,4.469326099992031,call1,0.018055555555555554,0.3125,1,0,0,4.89880950000952,colour1,0.4513888888888889,-0.30972222222222223,1,0,0,5.560346500016749,number4,True,True,True,45,5,2019_Nov_21_1704,MA_Theta_Exp,3.0.7,60.17947927599999,
video/Experiment/zh_sp07_Ti_We_3_NoThetaInAudio_NoVideo.avi,noTheta,noVideo,sp07,Ti,We,3,0,4,flow/blocks/NoThetaInAudio_NoVideo_B.csv,,,,,,,,,,,,,,,,,0,0,0,0,0,24,24,30,-0.35833333333333334,-0.04861111111111111,1,0,0,5.254548500000965,call3,-0.03333333333333333,-0.28055555555555556,1,0,0,5.8357167999784,colour4,0.475,-0.12916666666666668,1,0,0,6.380663599993568,number3,True,True,True,45,5,2019_Nov_21_1704,MA_Theta_Exp,3.0.7,60.17947927599999,
video/Experiment/zh_sp07_Ti_We_2_NoThetaInAudio_NoVideo.avi,noTheta,noVideo,sp07,Ti,We,2,0,4,flow/blocks/NoThetaInAudio_NoVideo_B.csv,,,,,,,,,,,,,,,,,0,0,0,0,0,25,25,29,-0.42083333333333334,-0.11064814814814815,1,0,0,4.474021100002574,call3,-0.025,-0.324537037037037,1,0,0,4.9583430999773555,colour4,0.4305555555555556,0.14907407407407408,1,0,0,5.542474399990169,number2,True,True,True,45,5,2019_Nov_21_1704,MA_Theta_Exp,3.0.7,60.17947927599999,
video/Experiment/zh_sp01_Dr_Ge_2_NoThetaInAudio_NoVideo.avi,noTheta,noVideo,sp01,Dr,Ge,2,0,4,flow/blocks/NoThetaInAudio_NoVideo_B.csv,,,,,,,,,,,,,,,,,0,0,0,0,0,26,26,17,-0.4263888888888889,0.3449074074074074,1,0,0,5.3019032000156585,call1,0.09166666666666666,0.26990740740740743,1,0,0,5.813179600023432,colour1,0.44583333333333336,0.0699074074074074,1,0,0,6.68003819999285,number2,False,True,True,45,5,2019_Nov_21_1704,MA_Theta_Exp,3.0.7,60.17947927599999,
video/Experiment/zh_sp07_Un_Gr_3_NoThetaInAudio_NoVideo.avi,noTheta,noVideo,sp07,Un,Gr,3,0,4,flow/blocks/NoThetaInAudio_NoVideo_B.csv,,,,,,,,,,,,,,,,,0,0,0,0,0,27,27,6,-0.37222222222222223,0.08935185185185185,1,0,0,4.2230191999988165,call2,0.011111111111111112,0.10601851851851851,1,0,0,4.6226054999860935,colour2,0.46805555555555556,-0.11064814814814815,1,0,0,5.352571900002658,number3,False,True,True,45,5,2019_Nov_21_1704,MA_Theta_Exp,3.0.7,60.17947927599999,
video/Experiment/zh_sp01_Ad_Ge_3_NoThetaInAudio_NoVideo.avi,noTheta,noVideo,sp01,Ad,Ge,3,0,4,flow/blocks/NoThetaInAudio_NoVideo_B.csv,,,,,,,,,,,,,,,,,0,0,0,0,0,28,28,18,-0.44305555555555554,0.287962962962963,1,0,0,4.763017599994782,call1,0.08888888888888889,0.31157407407407406,1,0,0,5.3459240999945905,colour1,0.42916666666666664,-0.11342592592592593,1,0,0,5.947971799992956,number3,True,True,True,45,5,2019_Nov_21_1704,MA_Theta_Exp,3.0.7,60.17947927599999,
video/Experiment/zh_sp07_Un_Ro_2_NoThetaInAudio_NoVideo.avi,noTheta,noVideo,sp07,Un,Ro,2,0,4,flow/blocks/NoThetaInAudio_NoVideo_B.csv,,,,,,,,,,,,,,,,,0,0,0,0,0,29,29,9,-0.4111111111111111,-0.3175925925925926,1,0,0,4.539543499995489,call4,-0.011111111111111112,-0.11898148148148148,1,0,0,5.105971199984197,colour3,0.38055555555555554,0.15046296296296297,1,0,0,5.607295699999668,number2,True,True,True,45,5,2019_Nov_21_1704,MA_Theta_Exp,3.0.7,60.17947927599999,
video/Experiment/zh_sp07_Ad_Ro_2_NoThetaInAudio_NoVideo.avi,noTheta,noVideo,sp07,Ad,Ro,2,0,4,flow/blocks/NoThetaInAudio_NoVideo_B.csv,,,,,,,,,,,,,,,,,0,0,0,0,0,30,30,25,-0.3861111111111111,0.33101851851851855,1,0,0,4.239893699996173,call1,-0.022222222222222223,-0.062037037037037036,1,0,0,4.759582099999534,colour3,0.4041666666666667,0.08935185185185185,1,0,0,5.2712613999901805,number2,True,True,True,45,5,2019_Nov_21_1704,MA_Theta_Exp,3.0.7,60.17947927599999,
video/Experiment/zh_sp07_Ad_Ro_3_NoThetaInAudio_NoVideo.avi,noTheta,noVideo,sp07,Ad,Ro,3,0,4,flow/blocks/NoThetaInAudio_NoVideo_B.csv,,,,,,,,,,,,,,,,,0,0,0,0,0,31,31,10,-0.40694444444444444,0.32546296296296295,1,0,0,4.284201100002974,call1,0.041666666666666664,-0.11898148148148148,1,0,0,4.868205400009174,colour3,0.4152777777777778,-0.12175925925925926,1,0,0,5.390586599998642,number3,True,True,True,45,5,2019_Nov_21_1704,MA_Theta_Exp,3.0.7,60.17947927599999,
video/Experiment/zh_sp01_Un_We_3_GlobalTheta_NoVideo.avi,globalTheta,noVideo,sp01,Un,We,3,1,5,flow/blocks/GlobalTheta_NoVideo_A.csv,,,,,,,,,,,,,,,,,0,1,1,1,0,0,0,14,-0.3819444444444444,-0.2564814814814815,1,0,0,5.07618440000806,call4,-0.03194444444444444,-0.2953703703703704,1,0,0,5.588086400006432,colour4,0.3861111111111111,-0.08287037037037037,1,0,0,6.075182100001257,number3,True,True,True,45,5,2019_Nov_21_1704,MA_Theta_Exp,3.0.7,60.17947927599999,
video/Experiment/zh_sp01_Ad_We_2_GlobalTheta_NoVideo.avi,globalTheta,noVideo,sp01,Ad,We,2,1,5,flow/blocks/GlobalTheta_NoVideo_A.csv,,,,,,,,,,,,,,,,,0,1,1,1,0,1,1,29,-0.4111111111111111,0.32546296296296295,1,0,0,4.989808100013761,call1,0.02638888888888889,-0.34953703703703703,1,0,0,5.670255900011398,colour4,0.35833333333333334,0.14907407407407408,1,0,0,6.271864699985599,number2,True,True,True,45,5,2019_Nov_21_1704,MA_Theta_Exp,3.0.7,60.17947927599999,
video/Experiment/zh_sp07_Ad_Ro_1_GlobalTheta_NoVideo.avi,globalTheta,noVideo,sp07,Ad,Ro,1,1,5,flow/blocks/GlobalTheta_NoVideo_A.csv,,,,,,,,,,,,,,,,,0,1,1,1,0,2,2,8,-0.4486111111111111,0.36018518518518516,1,0,0,4.16097080000327,call1,-0.03888888888888889,-0.09814814814814815,1,0,0,4.689700300019467,colour3,0.44166666666666665,0.36435185185185187,1,0,0,5.243988900008844,number1,True,True,True,45,5,2019_Nov_21_1704,MA_Theta_Exp,3.0.7,60.17947927599999,
video/Experiment/zh_sp07_Ad_Gr_3_GlobalTheta_NoVideo.avi,globalTheta,noVideo,sp07,Ad,Gr,3,1,5,flow/blocks/GlobalTheta_NoVideo_A.csv,,,,,,,,,,,,,,,,,0,1,1,1,0,3,3,22,-0.42777777777777776,0.34074074074074073,1,0,0,4.432844299997669,call1,0.025,0.12407407407407407,1,0,0,4.879869900003541,colour2,0.49166666666666664,-0.11203703703703703,1,0,0,5.475992799998494,number3,True,True,True,45,5,2019_Nov_21_1704,MA_Theta_Exp,3.0.7,60.17947927599999,
video/Experiment/zh_sp07_Un_We_4_GlobalTheta_NoVideo.avi,globalTheta,noVideo,sp07,Un,We,4,1,5,flow/blocks/GlobalTheta_NoVideo_A.csv,,,,,,,,,,,,,,,,,0,1,1,1,0,4,4,15,-0.3819444444444444,-0.29814814814814816,1,0,0,4.257067500002449,call4,-0.0125,-0.2800925925925926,1,0,0,4.845409199973801,colour4,0.40694444444444444,-0.055092592592592596,1,0,0,5.827012599998852,number3,True,True,False,45,5,2019_Nov_21_1704,MA_Theta_Exp,3.0.7,60.17947927599999,
video/Experiment/zh_sp07_Ti_We_4_GlobalTheta_NoVideo.avi,globalTheta,noVideo,sp07,Ti,We,4,1,5,flow/blocks/GlobalTheta_NoVideo_A.csv,,,,,,,,,,,,,,,,,0,1,1,1,0,5,5,31,-0.3875,-0.10231481481481482,1,0,0,4.397806299995864,call3,0.018055555555555554,-0.3023148148148148,1,0,0,5.717584300000453,colour4,0.3958333333333333,-0.09259259259259259,1,0,0,6.815169100009371,number3,True,True,False,45,5,2019_Nov_21_1704,MA_Theta_Exp,3.0.7,60.17947927599999,
video/Experiment/zh_sp07_Ad_Gr_1_GlobalTheta_NoVideo.avi,globalTheta,noVideo,sp07,Ad,Gr,1,1,5,flow/blocks/GlobalTheta_NoVideo_A.csv,,,,,,,,,,,,,,,,,0,1,1,1,0,6,6,4,-0.38055555555555554,0.3199074074074074,1,0,0,4.332489599997643,call1,-0.025,0.11574074074074074,1,0,0,4.738550799986115,colour2,0.36527777777777776,0.25462962962962965,1,0,0,5.126238099997863,number1,True,True,True,45,5,2019_Nov_21_1704,MA_Theta_Exp,3.0.7,60.17947927599999,
video/Experiment/zh_sp01_Ad_We_3_GlobalTheta_NoVideo.avi,globalTheta,noVideo,sp01,Ad,We,3,1,5,flow/blocks/GlobalTheta_NoVideo_A.csv,,,,,,,,,,,,,,,,,0,1,1,1,0,7,7,30,-0.35694444444444445,0.29768518518518516,1,0,0,4.897757300001103,call1,-0.0125,-0.37037037037037035,1,0,0,5.52722280001035,colour4,0.4361111111111111,-0.12314814814814815,1,0,0,6.010098900005687,number3,True,True,True,45,5,2019_Nov_21_1704,MA_Theta_Exp,3.0.7,60.17947927599999,
video/Experiment/zh_sp01_Dr_Ge_4_GlobalTheta_NoVideo.avi,globalTheta,noVideo,sp01,Dr,Ge,4,1,5,flow/blocks/GlobalTheta_NoVideo_A.csv,,,,,,,,,,,,,,,,,0,1,1,1,0,8,8,19,-0.39305555555555555,-0.11203703703703703,1,0,0,4.718370900023729,call3,-0.030555555555555555,0.3074074074074074,1,0,0,5.266039799986174,colour1,0.475,-0.37037037037037035,1,0,0,6.2556407999945804,number4,False,True,True,45,5,2019_Nov_21_1704,MA_Theta_Exp,3.0.7,60.17947927599999,
video/Experiment/zh_sp01_Ad_Ro_4_GlobalTheta_NoVideo.avi,globalTheta,noVideo,sp01,Ad,Ro,4,1,5,flow/blocks/GlobalTheta_NoVideo_A.csv,,,,,,,,,,,,,,,,,0,1,1,1,0,9,9,11,-0.43472222222222223,0.31851851851851853,1,0,0,5.091788299992913,call1,0.03888888888888889,-0.09259259259259259,1,0,0,5.620248000021093,colour3,0.41388888888888886,-0.3384259259259259,1,0,0,6.44954480000888,number4,True,True,True,45,5,2019_Nov_21_1704,MA_Theta_Exp,3.0.7,60.17947927599999,
video/Experiment/zh_sp07_Ti_Ro_2_GlobalTheta_NoVideo.avi,globalTheta,noVideo,sp07,Ti,Ro,2,1,5,flow/blocks/GlobalTheta_NoVideo_A.csv,,,,,,,,,,,,,,,,,0,1,1,1,0,10,10,25,-0.3972222222222222,-0.32592592592592595,1,0,0,4.450776300014695,call4,0.0,-0.08981481481481482,1,0,0,6.501113800011808,colour3,0.3958333333333333,0.3143518518518518,1,0,0,7.10478160000639,number1,False,True,False,45,5,2019_Nov_21_1704,MA_Theta_Exp,3.0.7,60.17947927599999,
video/Experiment/zh_sp07_Un_Gr_1_GlobalTheta_NoVideo.avi,globalTheta,noVideo,sp07,Un,Gr,1,1,5,flow/blocks/GlobalTheta_NoVideo_A.csv,,,,,,,,,,,,,,,,,0,1,1,1,0,11,11,20,-0.375,-0.2912037037037037,1,0,0,5.31468589999713,call4,-0.025,0.11712962962962963,1,0,0,6.529231900000013,colour2,0.4152777777777778,0.362962962962963,1,0,0,7.032155600027181,number1,True,True,True,45,5,2019_Nov_21_1704,MA_Theta_Exp,3.0.7,60.17947927599999,
video/Experiment/zh_sp07_Dr_Ro_2_GlobalTheta_NoVideo.avi,globalTheta,noVideo,sp07,Dr,Ro,2,1,5,flow/blocks/GlobalTheta_NoVideo_A.csv,,,,,,,,,,,,,,,,,0,1,1,1,0,12,12,9,-0.38333333333333336,0.14907407407407408,1,0,0,4.489901900000405,call2,0.015277777777777777,-0.05925925925925926,1,0,0,5.737834500003373,colour3,0.37083333333333335,0.2657407407407407,1,0,0,6.372072900005151,number1,True,True,False,45,5,2019_Nov_21_1704,MA_Theta_Exp,3.0.7,60.17947927599999,
video/Experiment/zh_sp01_Ti_Ge_1_GlobalTheta_NoVideo.avi,globalTheta,noVideo,sp01,Ti,Ge,1,1,5,flow/blocks/GlobalTheta_NoVideo_A.csv,,,,,,,,,,,,,,,,,0,1,1,1,0,13,13,16,-0.40694444444444444,-0.11203703703703703,1,0,0,5.404274700005772,call3,-0.004166666666666667,0.2935185185185185,1,0,0,5.960282599990023,colour1,0.3472222222222222,0.30185185185185187,1,0,0,6.437178399995901,number1,True,True,True,45,5,2019_Nov_21_1704,MA_Theta_Exp,3.0.7,60.17947927599999,
