videoFile,condition,video,speaker,callSign,colour,number,seq,id,block,exp.thisRepN,exp.thisTrialN,exp.thisN,exp.thisIndex,training.thisRepN,training.thisTrialN,training.thisN,training.thisIndex,firstHalf.thisRepN,firstHalf.thisTrialN,firstHalf.thisN,firstHalf.thisIndex,blocksA.thisRepN,blocksA.thisTrialN,blocksA.thisN,blocksA.thisIndex,secondHalf.thisRepN,secondHalf.thisTrialN,secondHalf.thisN,secondHalf.thisIndex,blocksB.thisRepN,blocksB.thisTrialN,blocksB.thisN,blocksB.thisIndex,mouseClickOnCall.x,mouseClickOnCall.y,mouseClickOnCall.leftButton,mouseClickOnCall.midButton,mouseClickOnCall.rightButton,mouseClickOnCall.time,mouseClickOnCall.clicked_name,mouseClickOnColour.x,mouseClickOnColour.y,mouseClickOnColour.leftButton,mouseClickOnColour.midButton,mouseClickOnColour.rightButton,mouseClickOnColour.time,mouseClickOnColour.clicked_name,mouseClickOnNumber.x,mouseClickOnNumber.y,mouseClickOnNumber.leftButton,mouseClickOnNumber.midButton,mouseClickOnNumber.rightButton,mouseClickOnNumber.time,mouseClickOnNumber.clicked_name,callSignCorrect,colourCorrect,numberCorrect,participant,order,date,expName,psychopyVersion,frameRate,
video/Training/zh_sp01_Ad_We_4_NVocInAudio_NoVideo.avi,vocoded,noVideo,sp01,Ad,We,4,,,,,,,,0,0,0,0,,,,,,,,,,,,,,,,,-0.3458333333333333,0.34444444444444444,1,0,0,6.360807299999578,call1,0.05,0.29583333333333334,1,0,0,8.4101870999948,colour1,0.39444444444444443,-0.30277777777777776,1,0,0,9.576326000002155,number4,True,False,True,6,1,2019_Nov_11_1157,MA_Theta_Exp,3.0.7,60.14607074811815,
video/Training/zh_sp07_Ad_Ge_3_NVocInAudio_NoVideo.avi,vocoded,noVideo,sp07,Ad,Ge,3,,,,,,,,0,1,1,1,,,,,,,,,,,,,,,,,-0.38333333333333336,0.3333333333333333,1,0,0,6.762210699998832,call1,0.0125,0.28194444444444444,1,0,0,7.697698800002399,colour1,0.3680555555555556,-0.06527777777777778,1,0,0,8.528531899995869,number3,True,True,True,6,1,2019_Nov_11_1157,MA_Theta_Exp,3.0.7,60.14607074811815,
video/Training/zh_sp01_Dr_Ro_3_NVocInAudio_GlobalThetaInVideo.avi,vocoded,plusVideo,sp01,Dr,Ro,3,,,,,,,,0,2,2,2,,,,,,,,,,,,,,,,,-0.44305555555555554,0.0763888888888889,1,0,0,5.996608800000104,call2,0.044444444444444446,-0.1125,1,0,0,6.781053900005645,colour3,0.3902777777777778,-0.09166666666666666,1,0,0,7.7635309000033885,number3,True,True,True,6,1,2019_Nov_11_1157,MA_Theta_Exp,3.0.7,60.14607074811815,
video/Training/zh_sp07_Dr_Gr_4_NVocInAudio_GlobalThetaInVideo.avi,vocoded,plusVideo,sp07,Dr,Gr,4,,,,,,,,0,3,3,3,,,,,,,,,,,,,,,,,-0.37916666666666665,0.08888888888888889,1,0,0,4.869831700001669,call2,-0.058333333333333334,0.07222222222222222,1,0,0,5.60226110000076,colour2,0.3638888888888889,-0.325,1,0,0,6.502573500001745,number4,True,True,True,6,1,2019_Nov_11_1157,MA_Theta_Exp,3.0.7,60.14607074811815,
video/Training/zh_sp01_Ti_Gr_2_NoThetaInAudio_NoVideo.avi,noTheta,noVideo,sp01,Ti,Gr,2,,,,,,,,0,4,4,4,,,,,,,,,,,,,,,,,-0.45694444444444443,0.3055555555555556,1,0,0,7.306403100003081,call1,-0.10277777777777777,0.2986111111111111,1,0,0,7.840739200000826,colour1,0.41944444444444445,-0.35555555555555557,1,0,0,9.17466240000067,number4,False,False,False,6,1,2019_Nov_11_1157,MA_Theta_Exp,3.0.7,60.14607074811815,
video/Training/zh_sp07_Ti_Ro_1_NoThetaInAudio_NoVideo.avi,noTheta,noVideo,sp07,Ti,Ro,1,,,,,,,,0,5,5,5,,,,,,,,,,,,,,,,,-0.4097222222222222,0.2861111111111111,1,0,0,8.520359300004202,call1,0.020833333333333332,0.07361111111111111,1,0,0,10.73690809999971,colour2,0.4083333333333333,-0.3,1,0,0,12.136429000005592,number4,False,False,False,6,1,2019_Nov_11_1157,MA_Theta_Exp,3.0.7,60.14607074811815,
video/Training/zh_sp01_Un_Ge_1_NoThetaInAudio_GlobalThetaInVideo.avi,noTheta,plusVideo,sp01,Un,Ge,1,,,,,,,,0,6,6,6,,,,,,,,,,,,,,,,,-0.43472222222222223,0.3458333333333333,1,0,0,5.852663800003938,call1,-0.006944444444444444,0.30277777777777776,1,0,0,6.585747599994647,colour1,0.3375,0.28888888888888886,1,0,0,7.385803600001964,number1,False,True,True,6,1,2019_Nov_11_1157,MA_Theta_Exp,3.0.7,60.14607074811815,
video/Training/zh_sp07_Un_We_2_NoThetaInAudio_GlobalThetaInVideo.avi,noTheta,plusVideo,sp07,Un,We,2,,,,,,,,0,7,7,7,,,,,,,,,,,,,,,,,-0.44166666666666665,0.24722222222222223,1,0,0,5.054220300000452,call1,-0.05,-0.3,1,0,0,6.1040847999975085,colour4,0.4013888888888889,0.1,1,0,0,6.804213700001128,number2,False,True,True,6,1,2019_Nov_11_1157,MA_Theta_Exp,3.0.7,60.14607074811815,
video/Training/zh_sp01_Ad_Ge_1_GlobalTheta_NoVideo.avi,globalTheta,noVideo,sp01,Ad,Ge,1,,,,,,,,0,8,8,8,,,,,,,,,,,,,,,,,-0.36666666666666664,0.2833333333333333,1,0,0,6.376715400001558,call1,0.018055555555555554,-0.10416666666666667,1,0,0,7.209933099999034,colour3,0.41944444444444445,0.125,1,0,0,8.409711599997536,number2,True,False,False,6,1,2019_Nov_11_1157,MA_Theta_Exp,3.0.7,60.14607074811815,
video/Training/zh_sp07_Ad_Ro_3_GlobalTheta_NoVideo.avi,globalTheta,noVideo,sp07,Ad,Ro,3,,,,,,,,0,9,9,9,,,,,,,,,,,,,,,,,-0.4097222222222222,0.3458333333333333,1,0,0,5.839093400005368,call1,0.0,0.07222222222222222,1,0,0,8.472055800004455,colour2,0.35694444444444445,0.0763888888888889,1,0,0,8.971861500001978,number2,True,False,False,6,1,2019_Nov_11_1157,MA_Theta_Exp,3.0.7,60.14607074811815,
video/Experiment/zh_sp01_Ad_We_2_NVocInAudio_NoVideo.avi,vocoded,noVideo,sp01,Ad,We,2,0,2,flow/blocks/NVocInAudio_NoVideo_A.csv,,,,,,,,,0,0,0,0,0,0,0,13,,,,,,,,,-0.40694444444444444,0.3263888888888889,1,0,0,5.278500400003395,call1,0.019444444444444445,-0.34444444444444444,1,0,0,6.360932400006277,colour4,0.42777777777777776,0.1,1,0,0,7.244149700003618,number2,True,True,True,6,1,2019_Nov_11_1157,MA_Theta_Exp,3.0.7,60.14607074811815,
video/Experiment/zh_sp07_Dr_Ge_2_NVocInAudio_NoVideo.avi,vocoded,noVideo,sp07,Dr,Ge,2,0,2,flow/blocks/NVocInAudio_NoVideo_A.csv,,,,,,,,,0,0,0,0,0,1,1,17,,,,,,,,,-0.38333333333333336,0.06666666666666667,1,0,0,4.975949399995443,call2,0.016666666666666666,0.2833333333333333,1,0,0,6.007933999993838,colour1,0.41944444444444445,0.08472222222222223,1,0,0,6.674411799998779,number2,True,True,True,6,1,2019_Nov_11_1157,MA_Theta_Exp,3.0.7,60.14607074811815,
video/Experiment/zh_sp07_Ad_Ro_4_NVocInAudio_NoVideo.avi,vocoded,noVideo,sp07,Ad,Ro,4,0,2,flow/blocks/NVocInAudio_NoVideo_A.csv,,,,,,,,,0,0,0,0,0,2,2,11,,,,,,,,,-0.36666666666666664,0.10416666666666667,1,0,0,5.3650081000014325,call2,0.0375,-0.08194444444444444,1,0,0,6.198180500003218,colour3,0.36944444444444446,-0.3111111111111111,1,0,0,6.848512900003698,number4,False,True,True,6,1,2019_Nov_11_1157,MA_Theta_Exp,3.0.7,60.14607074811815,
video/Experiment/zh_sp07_Ad_Ge_4_NVocInAudio_NoVideo.avi,vocoded,noVideo,sp07,Ad,Ge,4,0,2,flow/blocks/NVocInAudio_NoVideo_A.csv,,,,,,,,,0,0,0,0,0,3,3,3,,,,,,,,,-0.4041666666666667,0.2638888888888889,1,0,0,4.676201299997047,call1,0.005555555555555556,0.26944444444444443,1,0,0,5.492176499996276,colour1,0.4361111111111111,-0.3347222222222222,1,0,0,6.792274500003259,number4,True,True,True,6,1,2019_Nov_11_1157,MA_Theta_Exp,3.0.7,60.14607074811815,
video/Experiment/zh_sp01_Dr_Ro_4_NVocInAudio_NoVideo.avi,vocoded,noVideo,sp01,Dr,Ro,4,0,2,flow/blocks/NVocInAudio_NoVideo_A.csv,,,,,,,,,0,0,0,0,0,4,4,27,,,,,,,,,-0.45,0.11666666666666667,1,0,0,5.516631800004689,call2,0.043055555555555555,-0.08888888888888889,1,0,0,6.316997900001297,colour3,0.4236111111111111,-0.3333333333333333,1,0,0,7.949757400005183,number4,True,True,True,6,1,2019_Nov_11_1157,MA_Theta_Exp,3.0.7,60.14607074811815,
video/Experiment/zh_sp01_Ad_Ro_3_NVocInAudio_NoVideo.avi,vocoded,noVideo,sp01,Ad,Ro,3,0,2,flow/blocks/NVocInAudio_NoVideo_A.csv,,,,,,,,,0,0,0,0,0,5,5,10,,,,,,,,,-0.4013888888888889,0.3138888888888889,1,0,0,5.103195299998333,call1,-0.001388888888888889,-0.11527777777777778,1,0,0,5.869063800004369,colour3,0.3958333333333333,-0.1,1,0,0,6.585797600004298,number3,True,True,True,6,1,2019_Nov_11_1157,MA_Theta_Exp,3.0.7,60.14607074811815,
video/Experiment/zh_sp01_Dr_Ro_3_NVocInAudio_NoVideo.avi,vocoded,noVideo,sp01,Dr,Ro,3,0,2,flow/blocks/NVocInAudio_NoVideo_A.csv,,,,,,,,,0,0,0,0,0,6,6,26,,,,,,,,,-0.37777777777777777,0.08472222222222223,1,0,0,5.427748199996131,call2,-0.04583333333333333,-0.09444444444444444,1,0,0,6.144010899995919,colour3,0.45416666666666666,-0.09444444444444444,1,0,0,7.027650600000925,number3,True,True,True,6,1,2019_Nov_11_1157,MA_Theta_Exp,3.0.7,60.14607074811815,
video/Experiment/zh_sp01_Dr_Ro_1_NVocInAudio_NoVideo.avi,vocoded,noVideo,sp01,Dr,Ro,1,0,2,flow/blocks/NVocInAudio_NoVideo_A.csv,,,,,,,,,0,0,0,0,0,7,7,24,,,,,,,,,-0.3861111111111111,0.11388888888888889,1,0,0,5.432376899996598,call2,0.08472222222222223,-0.08194444444444444,1,0,0,6.21605339999951,colour3,0.4486111111111111,0.2638888888888889,1,0,0,7.132363099997747,number1,True,True,True,6,1,2019_Nov_11_1157,MA_Theta_Exp,3.0.7,60.14607074811815,
video/Experiment/zh_sp07_Dr_Gr_1_NVocInAudio_NoVideo.avi,vocoded,noVideo,sp07,Dr,Gr,1,0,2,flow/blocks/NVocInAudio_NoVideo_A.csv,,,,,,,,,0,0,0,0,0,8,8,20,,,,,,,,,-0.37916666666666665,0.07083333333333333,1,0,0,4.849142000006395,call2,0.06111111111111111,0.10555555555555556,1,0,0,5.432375099997444,colour2,0.39444444444444443,0.26805555555555555,1,0,0,6.0821117000014056,number1,True,True,True,6,1,2019_Nov_11_1157,MA_Theta_Exp,3.0.7,60.14607074811815,
video/Experiment/zh_sp07_Dr_We_2_NVocInAudio_NoVideo.avi,vocoded,noVideo,sp07,Dr,We,2,0,2,flow/blocks/NVocInAudio_NoVideo_A.csv,,,,,,,,,0,0,0,0,0,9,9,29,,,,,,,,,-0.4388888888888889,0.14166666666666666,1,0,0,4.524717699998291,call2,-0.05,-0.32222222222222224,1,0,0,5.540924100001575,colour4,0.36666666666666664,0.11944444444444445,1,0,0,6.4247380000015255,number2,True,True,True,6,1,2019_Nov_11_1157,MA_Theta_Exp,3.0.7,60.14607074811815,
video/Experiment/zh_sp01_Dr_Ge_1_NVocInAudio_NoVideo.avi,vocoded,noVideo,sp01,Dr,Ge,1,0,2,flow/blocks/NVocInAudio_NoVideo_A.csv,,,,,,,,,0,0,0,0,0,10,10,16,,,,,,,,,-0.35694444444444445,0.08055555555555556,1,0,0,5.31972439999663,call2,0.03194444444444444,0.3375,1,0,0,6.319244099999196,colour1,0.45416666666666666,0.2625,1,0,0,6.986154300000635,number1,True,True,True,6,1,2019_Nov_11_1157,MA_Theta_Exp,3.0.7,60.14607074811815,
video/Experiment/zh_sp01_Ad_Ge_2_NVocInAudio_NoVideo.avi,vocoded,noVideo,sp01,Ad,Ge,2,0,2,flow/blocks/NVocInAudio_NoVideo_A.csv,,,,,,,,,0,0,0,0,0,11,11,1,,,,,,,,,-0.3888888888888889,0.15555555555555556,1,0,0,5.414083399999072,call2,-0.0875,0.26805555555555555,1,0,0,5.948028699996939,colour1,0.38472222222222224,0.10138888888888889,1,0,0,6.580607600000803,number2,False,True,True,6,1,2019_Nov_11_1157,MA_Theta_Exp,3.0.7,60.14607074811815,
video/Experiment/zh_sp01_Ad_We_3_NVocInAudio_NoVideo.avi,vocoded,noVideo,sp01,Ad,We,3,0,2,flow/blocks/NVocInAudio_NoVideo_A.csv,,,,,,,,,0,0,0,0,0,12,12,14,,,,,,,,,-0.2972222222222222,0.12638888888888888,1,0,0,5.584897900000215,call2,-0.001388888888888889,-0.2902777777777778,1,0,0,6.767359400000714,colour4,0.3597222222222222,-0.12777777777777777,1,0,0,8.134023200000229,number3,False,True,True,6,1,2019_Nov_11_1157,MA_Theta_Exp,3.0.7,60.14607074811815,
video/Experiment/zh_sp01_Dr_We_3_NVocInAudio_NoVideo.avi,vocoded,noVideo,sp01,Dr,We,3,0,2,flow/blocks/NVocInAudio_NoVideo_A.csv,,,,,,,,,0,0,0,0,0,13,13,30,,,,,,,,,-0.44583333333333336,0.11666666666666667,1,0,0,5.281123500004469,call2,-0.008333333333333333,-0.2875,1,0,0,6.396394399998826,colour4,0.33055555555555555,-0.05694444444444444,1,0,0,7.0466694999995525,number3,True,True,True,6,1,2019_Nov_11_1157,MA_Theta_Exp,3.0.7,60.14607074811815,
video/Experiment/zh_sp01_Ad_We_4_NVocInAudio_NoVideo.avi,vocoded,noVideo,sp01,Ad,We,4,0,2,flow/blocks/NVocInAudio_NoVideo_A.csv,,,,,,,,,0,0,0,0,0,14,14,15,,,,,,,,,-0.36944444444444446,0.29444444444444445,1,0,0,5.349404299995513,call1,-0.044444444444444446,-0.2847222222222222,1,0,0,6.31453280000278,colour4,0.3972222222222222,-0.3194444444444444,1,0,0,7.1814752999998746,number4,True,True,True,6,1,2019_Nov_11_1157,MA_Theta_Exp,3.0.7,60.14607074811815,
video/Experiment/zh_sp07_Ad_Ge_1_NVocInAudio_NoVideo.avi,vocoded,noVideo,sp07,Ad,Ge,1,0,2,flow/blocks/NVocInAudio_NoVideo_A.csv,,,,,,,,,0,0,0,0,0,15,15,0,,,,,,,,,-0.4,0.32222222222222224,1,0,0,5.009155100000498,call1,0.05,0.2833333333333333,1,0,0,5.975268300004245,colour1,0.37222222222222223,0.3055555555555556,1,0,0,6.641717700003937,number1,True,True,True,6,1,2019_Nov_11_1157,MA_Theta_Exp,3.0.7,60.14607074811815,
video/Experiment/zh_sp01_Ad_Ge_3_NVocInAudio_NoVideo.avi,vocoded,noVideo,sp01,Ad,Ge,3,0,2,flow/blocks/NVocInAudio_NoVideo_A.csv,,,,,,,,,0,0,0,0,0,16,16,2,,,,,,,,,-0.3347222222222222,0.31527777777777777,1,0,0,5.166847399996186,call1,0.011111111111111112,0.2833333333333333,1,0,0,5.916667700003018,colour1,0.35833333333333334,-0.1111111111111111,1,0,0,6.633717600001546,number3,True,True,True,6,1,2019_Nov_11_1157,MA_Theta_Exp,3.0.7,60.14607074811815,
video/Experiment/zh_sp07_Dr_Gr_3_NVocInAudio_NoVideo.avi,vocoded,noVideo,sp07,Dr,Gr,3,0,2,flow/blocks/NVocInAudio_NoVideo_A.csv,,,,,,,,,0,0,0,0,0,17,17,22,,,,,,,,,-0.425,0.10694444444444444,1,0,0,7.1181596000024,call2,-0.019444444444444445,0.2902777777777778,1,0,0,7.901609699998517,colour1,0.37222222222222223,-0.07361111111111111,1,0,0,8.86826039999869,number3,True,False,True,6,1,2019_Nov_11_1157,MA_Theta_Exp,3.0.7,60.14607074811815,
video/Experiment/zh_sp07_Dr_Ro_2_NVocInAudio_NoVideo.avi,vocoded,noVideo,sp07,Dr,Ro,2,0,2,flow/blocks/NVocInAudio_NoVideo_A.csv,,,,,,,,,0,0,0,0,0,18,18,25,,,,,,,,,-0.43472222222222223,0.11666666666666667,1,0,0,4.987158699994325,call2,0.0375,-0.08888888888888889,1,0,0,5.837186500000826,colour3,0.4236111111111111,0.06666666666666667,1,0,0,6.586804200000188,number2,True,True,True,6,1,2019_Nov_11_1157,MA_Theta_Exp,3.0.7,60.14607074811815,
video/Experiment/zh_sp07_Dr_Ge_4_NVocInAudio_NoVideo.avi,vocoded,noVideo,sp07,Dr,Ge,4,0,2,flow/blocks/NVocInAudio_NoVideo_A.csv,,,,,,,,,0,0,0,0,0,19,19,19,,,,,,,,,-0.42916666666666664,0.12083333333333333,1,0,0,4.407094599999255,call2,-0.029166666666666667,0.34444444444444444,1,0,0,5.040560000001278,colour1,0.3875,-0.31527777777777777,1,0,0,5.923243600002024,number4,True,True,True,6,1,2019_Nov_11_1157,MA_Theta_Exp,3.0.7,60.14607074811815,
video/Experiment/zh_sp07_Dr_We_1_NVocInAudio_NoVideo.avi,vocoded,noVideo,sp07,Dr,We,1,0,2,flow/blocks/NVocInAudio_NoVideo_A.csv,,,,,,,,,0,0,0,0,0,20,20,28,,,,,,,,,-0.4722222222222222,0.11944444444444445,1,0,0,5.65491099999781,call2,-0.043055555555555555,-0.3263888888888889,1,0,0,6.405038600001717,colour4,0.39444444444444443,0.31527777777777777,1,0,0,7.172277399993618,number1,True,True,True,6,1,2019_Nov_11_1157,MA_Theta_Exp,3.0.7,60.14607074811815,
video/Experiment/zh_sp01_Ad_Gr_2_NVocInAudio_NoVideo.avi,vocoded,noVideo,sp01,Ad,Gr,2,0,2,flow/blocks/NVocInAudio_NoVideo_A.csv,,,,,,,,,0,0,0,0,0,21,21,5,,,,,,,,,-0.37222222222222223,0.2708333333333333,1,0,0,5.067754299998342,call1,-0.02361111111111111,0.1125,1,0,0,5.713130600001023,colour2,0.4625,0.09722222222222222,1,0,0,6.329526200002874,number2,True,True,True,6,1,2019_Nov_11_1157,MA_Theta_Exp,3.0.7,60.14607074811815,
video/Experiment/zh_sp01_Ad_Gr_3_NVocInAudio_NoVideo.avi,vocoded,noVideo,sp01,Ad,Gr,3,0,2,flow/blocks/NVocInAudio_NoVideo_A.csv,,,,,,,,,0,0,0,0,0,22,22,6,,,,,,,,,-0.41944444444444445,0.2861111111111111,1,0,0,5.456159499997739,call1,0.059722222222222225,0.13333333333333333,1,0,0,6.289506400004029,colour2,0.38333333333333336,-0.10416666666666667,1,0,0,6.905801499997324,number3,True,True,True,6,1,2019_Nov_11_1157,MA_Theta_Exp,3.0.7,60.14607074811815,
video/Experiment/zh_sp07_Ad_Ro_1_NVocInAudio_NoVideo.avi,vocoded,noVideo,sp07,Ad,Ro,1,0,2,flow/blocks/NVocInAudio_NoVideo_A.csv,,,,,,,,,0,0,0,0,0,23,23,8,,,,,,,,,-0.40555555555555556,0.31805555555555554,1,0,0,4.2887335999985225,call1,-0.019444444444444445,-0.08888888888888889,1,0,0,4.988397500004794,colour3,0.39305555555555555,0.3458333333333333,1,0,0,5.605062899994664,number1,True,True,True,6,1,2019_Nov_11_1157,MA_Theta_Exp,3.0.7,60.14607074811815,
video/Experiment/zh_sp07_Ad_Gr_1_NVocInAudio_NoVideo.avi,vocoded,noVideo,sp07,Ad,Gr,1,0,2,flow/blocks/NVocInAudio_NoVideo_A.csv,,,,,,,,,0,0,0,0,0,24,24,4,,,,,,,,,-0.4,0.3277777777777778,1,0,0,4.772899099996721,call1,-0.07916666666666666,0.1388888888888889,1,0,0,5.272582399993553,colour2,0.5194444444444445,0.2625,1,0,0,5.85535720000189,number1,True,True,True,6,1,2019_Nov_11_1157,MA_Theta_Exp,3.0.7,60.14607074811815,
video/Experiment/zh_sp01_Dr_We_4_NVocInAudio_NoVideo.avi,vocoded,noVideo,sp01,Dr,We,4,0,2,flow/blocks/NVocInAudio_NoVideo_A.csv,,,,,,,,,0,0,0,0,0,25,25,31,,,,,,,,,-0.4125,0.04583333333333333,1,0,0,5.568221599998651,call2,0.001388888888888889,-0.3111111111111111,1,0,0,7.018235099996673,colour4,0.34305555555555556,-0.25,1,0,0,7.752001100001507,number4,True,True,True,6,1,2019_Nov_11_1157,MA_Theta_Exp,3.0.7,60.14607074811815,
video/Experiment/zh_sp01_Dr_Gr_4_NVocInAudio_NoVideo.avi,vocoded,noVideo,sp01,Dr,Gr,4,0,2,flow/blocks/NVocInAudio_NoVideo_A.csv,,,,,,,,,0,0,0,0,0,26,26,23,,,,,,,,,-0.4166666666666667,0.10833333333333334,1,0,0,5.558112499995332,call2,-0.004166666666666667,0.10277777777777777,1,0,0,6.2582571000020835,colour2,0.3458333333333333,-0.275,1,0,0,6.991224299999885,number4,True,True,True,6,1,2019_Nov_11_1157,MA_Theta_Exp,3.0.7,60.14607074811815,
video/Experiment/zh_sp01_Ad_Gr_4_NVocInAudio_NoVideo.avi,vocoded,noVideo,sp01,Ad,Gr,4,0,2,flow/blocks/NVocInAudio_NoVideo_A.csv,,,,,,,,,0,0,0,0,0,27,27,7,,,,,,,,,-0.43194444444444446,0.34444444444444444,1,0,0,5.313459000004514,call1,-0.059722222222222225,0.12916666666666668,1,0,0,5.963478899997426,colour2,0.34305555555555556,-0.29583333333333334,1,0,0,6.663329300004989,number4,True,True,True,6,1,2019_Nov_11_1157,MA_Theta_Exp,3.0.7,60.14607074811815,
video/Experiment/zh_sp07_Ad_Ro_2_NVocInAudio_NoVideo.avi,vocoded,noVideo,sp07,Ad,Ro,2,0,2,flow/blocks/NVocInAudio_NoVideo_A.csv,,,,,,,,,0,0,0,0,0,28,28,9,,,,,,,,,-0.3902777777777778,0.29305555555555557,1,0,0,4.697346200002357,call1,-0.008333333333333333,-0.06944444444444445,1,0,0,5.380421699999715,colour3,0.4166666666666667,0.11666666666666667,1,0,0,6.3325683000002755,number2,True,True,True,6,1,2019_Nov_11_1157,MA_Theta_Exp,3.0.7,60.14607074811815,
video/Experiment/zh_sp07_Ad_We_1_NVocInAudio_NoVideo.avi,vocoded,noVideo,sp07,Ad,We,1,0,2,flow/blocks/NVocInAudio_NoVideo_A.csv,,,,,,,,,0,0,0,0,0,29,29,12,,,,,,,,,-0.4861111111111111,0.2861111111111111,1,0,0,4.408762200000638,call1,-0.022222222222222223,-0.26666666666666666,1,0,0,5.225602400001662,colour4,0.3680555555555556,0.2986111111111111,1,0,0,5.991927100003522,number1,True,True,True,6,1,2019_Nov_11_1157,MA_Theta_Exp,3.0.7,60.14607074811815,
video/Experiment/zh_sp07_Dr_Gr_2_NVocInAudio_NoVideo.avi,vocoded,noVideo,sp07,Dr,Gr,2,0,2,flow/blocks/NVocInAudio_NoVideo_A.csv,,,,,,,,,0,0,0,0,0,30,30,21,,,,,,,,,-0.3958333333333333,0.0625,1,0,0,5.637415400000464,call2,-0.008333333333333333,0.11527777777777778,1,0,0,6.154280300004757,colour2,0.37222222222222223,0.11944444444444445,1,0,0,6.620958699997573,number2,True,True,True,6,1,2019_Nov_11_1157,MA_Theta_Exp,3.0.7,60.14607074811815,
video/Experiment/zh_sp07_Dr_Ge_3_NVocInAudio_NoVideo.avi,vocoded,noVideo,sp07,Dr,Ge,3,0,2,flow/blocks/NVocInAudio_NoVideo_A.csv,,,,,,,,,0,0,0,0,0,31,31,18,,,,,,,,,-0.37222222222222223,0.11805555555555555,1,0,0,4.3868468000000576,call2,-0.002777777777777778,0.3875,1,0,0,5.01968769999803,colour1,0.3458333333333333,-0.11666666666666667,1,0,0,5.719764299996314,number3,True,True,True,6,1,2019_Nov_11_1157,MA_Theta_Exp,3.0.7,60.14607074811815,
video/Experiment/zh_sp07_Ad_Ge_2_NoThetaInAudio_GlobalThetaInVideo.avi,noTheta,plusVideo,sp07,Ad,Ge,2,1,3,flow/blocks/NoThetaInAudio_GlobalThetaInVideo_A.csv,,,,,,,,,0,1,1,1,0,0,0,1,,,,,,,,,-0.4013888888888889,0.12638888888888888,1,0,0,6.868678999999247,call2,-0.002777777777777778,0.0875,1,0,0,8.268427099996188,colour2,0.4125,0.10138888888888889,1,0,0,8.751435499994841,number2,False,False,True,6,1,2019_Nov_11_1157,MA_Theta_Exp,3.0.7,60.14607074811815,
video/Experiment/zh_sp07_Dr_We_1_NoThetaInAudio_GlobalThetaInVideo.avi,noTheta,plusVideo,sp07,Dr,We,1,1,3,flow/blocks/NoThetaInAudio_GlobalThetaInVideo_A.csv,,,,,,,,,0,1,1,1,0,1,1,28,,,,,,,,,0.36527777777777776,0.10833333333333334,1,0,0,5.0140967999977875,call1,0.004166666666666667,-0.2513888888888889,1,0,0,7.396542100002989,colour4,0.40555555555555556,0.0763888888888889,1,0,0,7.996208099997602,number2,False,True,False,6,1,2019_Nov_11_1157,MA_Theta_Exp,3.0.7,60.14607074811815,
video/Experiment/zh_sp01_Dr_Ge_2_NoThetaInAudio_GlobalThetaInVideo.avi,noTheta,plusVideo,sp01,Dr,Ge,2,1,3,flow/blocks/NoThetaInAudio_GlobalThetaInVideo_A.csv,,,,,,,,,0,1,1,1,0,2,2,17,,,,,,,,,-0.36944444444444446,0.33194444444444443,1,0,0,6.446681000001263,call1,-0.08055555555555556,0.29583333333333334,1,0,0,6.897438599997258,colour1,0.3638888888888889,0.1388888888888889,1,0,0,7.629594500001986,number2,False,True,True,6,1,2019_Nov_11_1157,MA_Theta_Exp,3.0.7,60.14607074811815,
video/Experiment/zh_sp07_Dr_Ge_1_NoThetaInAudio_GlobalThetaInVideo.avi,noTheta,plusVideo,sp07,Dr,Ge,1,1,3,flow/blocks/NoThetaInAudio_GlobalThetaInVideo_A.csv,,,,,,,,,0,1,1,1,0,3,3,16,,,,,,,,,-0.3638888888888889,0.1361111111111111,1,0,0,5.46743879999849,call2,-0.008333333333333333,0.29583333333333334,1,0,0,6.350333399997908,colour1,0.37916666666666665,0.1111111111111111,1,0,0,7.083464199997252,number2,True,True,False,6,1,2019_Nov_11_1157,MA_Theta_Exp,3.0.7,60.14607074811815,
video/Experiment/zh_sp07_Dr_Ro_4_NoThetaInAudio_GlobalThetaInVideo.avi,noTheta,plusVideo,sp07,Dr,Ro,4,1,3,flow/blocks/NoThetaInAudio_GlobalThetaInVideo_A.csv,,,,,,,,,0,1,1,1,0,4,4,27,,,,,,,,,-0.44722222222222224,0.34444444444444444,1,0,0,5.463428800001566,call1,0.03888888888888889,-0.0763888888888889,1,0,0,6.363498500002606,colour3,0.4236111111111111,-0.2861111111111111,1,0,0,7.363201299995126,number4,False,True,True,6,1,2019_Nov_11_1157,MA_Theta_Exp,3.0.7,60.14607074811815,
video/Experiment/zh_sp01_Dr_Gr_3_NoThetaInAudio_GlobalThetaInVideo.avi,noTheta,plusVideo,sp01,Dr,Gr,3,1,3,flow/blocks/NoThetaInAudio_GlobalThetaInVideo_A.csv,,,,,,,,,0,1,1,1,0,5,5,22,,,,,,,,,-0.3680555555555556,0.32222222222222224,1,0,0,6.547835999997915,call1,-0.043055555555555555,0.3277777777777778,1,0,0,6.964208800003689,colour1,0.41944444444444445,-0.09583333333333334,1,0,0,7.797256300000299,number3,False,False,True,6,1,2019_Nov_11_1157,MA_Theta_Exp,3.0.7,60.14607074811815,
video/Experiment/zh_sp07_Ad_Ro_1_NoThetaInAudio_GlobalThetaInVideo.avi,noTheta,plusVideo,sp07,Ad,Ro,1,1,3,flow/blocks/NoThetaInAudio_GlobalThetaInVideo_A.csv,,,,,,,,,0,1,1,1,0,6,6,8,,,,,,,,,-0.4513888888888889,0.09722222222222222,1,0,0,4.189077999995789,call2,0.05555555555555555,-0.13333333333333333,1,0,0,5.088133299999754,colour3,0.4222222222222222,0.11805555555555555,1,0,0,5.804677799998899,number2,False,True,False,6,1,2019_Nov_11_1157,MA_Theta_Exp,3.0.7,60.14607074811815,
video/Experiment/zh_sp07_Dr_Ro_1_NoThetaInAudio_GlobalThetaInVideo.avi,noTheta,plusVideo,sp07,Dr,Ro,1,1,3,flow/blocks/NoThetaInAudio_GlobalThetaInVideo_A.csv,,,,,,,,,0,1,1,1,0,7,7,24,,,,,,,,,-0.41944444444444445,0.18888888888888888,1,0,0,4.574589500000002,call2,0.004166666666666667,0.09583333333333334,1,0,0,5.457070399999793,colour2,0.43333333333333335,0.1375,1,0,0,5.990421400005289,number2,True,False,False,6,1,2019_Nov_11_1157,MA_Theta_Exp,3.0.7,60.14607074811815,
video/Experiment/zh_sp01_Dr_Ro_2_NoThetaInAudio_GlobalThetaInVideo.avi,noTheta,plusVideo,sp01,Dr,Ro,2,1,3,flow/blocks/NoThetaInAudio_GlobalThetaInVideo_A.csv,,,,,,,,,0,1,1,1,0,8,8,25,,,,,,,,,-0.4388888888888889,0.3111111111111111,1,0,0,5.568476499996905,call1,-0.008333333333333333,0.08333333333333333,1,0,0,6.184792000000016,colour2,0.41388888888888886,0.08194444444444444,1,0,0,7.118124699998589,number2,False,False,True,6,1,2019_Nov_11_1157,MA_Theta_Exp,3.0.7,60.14607074811815,
video/Experiment/zh_sp01_Dr_Gr_2_NoThetaInAudio_GlobalThetaInVideo.avi,noTheta,plusVideo,sp01,Dr,Gr,2,1,3,flow/blocks/NoThetaInAudio_GlobalThetaInVideo_A.csv,,,,,,,,,0,1,1,1,0,9,9,21,,,,,,,,,-0.45,0.28055555555555556,1,0,0,5.738054299996293,call1,-0.029166666666666667,-0.1,1,0,0,6.454750199998671,colour3,0.39444444444444443,0.10833333333333334,1,0,0,6.954986700002337,number2,False,False,True,6,1,2019_Nov_11_1157,MA_Theta_Exp,3.0.7,60.14607074811815,
video/Experiment/zh_sp07_Ad_We_3_NoThetaInAudio_GlobalThetaInVideo.avi,noTheta,plusVideo,sp07,Ad,We,3,1,3,flow/blocks/NoThetaInAudio_GlobalThetaInVideo_A.csv,,,,,,,,,0,1,1,1,0,10,10,14,,,,,,,,,-0.42083333333333334,0.06666666666666667,1,0,0,5.064225900001475,call2,-0.03194444444444444,0.06111111111111111,1,0,0,6.8307814999934635,colour2,0.44305555555555554,-0.28194444444444444,1,0,0,7.663974100003543,number4,False,False,False,6,1,2019_Nov_11_1157,MA_Theta_Exp,3.0.7,60.14607074811815,
video/Experiment/zh_sp01_Ad_Gr_2_NoThetaInAudio_GlobalThetaInVideo.avi,noTheta,plusVideo,sp01,Ad,Gr,2,1,3,flow/blocks/NoThetaInAudio_GlobalThetaInVideo_A.csv,,,,,,,,,0,1,1,1,0,11,11,5,,,,,,,,,-0.425,0.12222222222222222,1,0,0,5.23120850000123,call2,-0.02361111111111111,0.11805555555555555,1,0,0,5.764520900003845,colour2,0.4666666666666667,0.07916666666666666,1,0,0,6.219239099998958,number2,False,True,True,6,1,2019_Nov_11_1157,MA_Theta_Exp,3.0.7,60.14607074811815,
video/Experiment/zh_sp07_Dr_Ro_3_NoThetaInAudio_GlobalThetaInVideo.avi,noTheta,plusVideo,sp07,Dr,Ro,3,1,3,flow/blocks/NoThetaInAudio_GlobalThetaInVideo_A.csv,,,,,,,,,0,1,1,1,0,12,12,26,,,,,,,,,-0.42083333333333334,0.2972222222222222,1,0,0,4.615538899997773,call1,0.03611111111111111,0.27361111111111114,1,0,0,5.89815219999582,colour1,0.44166666666666665,-0.30833333333333335,1,0,0,6.76551450000261,number4,False,False,False,6,1,2019_Nov_11_1157,MA_Theta_Exp,3.0.7,60.14607074811815,
video/Experiment/zh_sp01_Ad_Ro_3_NoThetaInAudio_GlobalThetaInVideo.avi,noTheta,plusVideo,sp01,Ad,Ro,3,1,3,flow/blocks/NoThetaInAudio_GlobalThetaInVideo_A.csv,,,,,,,,,0,1,1,1,0,13,13,10,,,,,,,,,-0.35555555555555557,0.075,1,0,0,5.629867499999818,call2,0.015277777777777777,0.3,1,0,0,7.531122399996093,colour1,0.45416666666666666,-0.1361111111111111,1,0,0,8.364986400003545,number3,False,False,True,6,1,2019_Nov_11_1157,MA_Theta_Exp,3.0.7,60.14607074811815,
video/Experiment/zh_sp01_Ad_Gr_3_NoThetaInAudio_GlobalThetaInVideo.avi,noTheta,plusVideo,sp01,Ad,Gr,3,1,3,flow/blocks/NoThetaInAudio_GlobalThetaInVideo_A.csv,,,,,,,,,0,1,1,1,0,14,14,6,,,,,,,,,-0.3972222222222222,0.12222222222222222,1,0,0,5.5495553000000655,call2,-0.043055555555555555,0.2777777777777778,1,0,0,6.116606499999762,colour1,0.3763888888888889,-0.10416666666666667,1,0,0,6.833897399999842,number3,False,False,True,6,1,2019_Nov_11_1157,MA_Theta_Exp,3.0.7,60.14607074811815,
video/Experiment/zh_sp01_Ad_Ge_3_NoThetaInAudio_GlobalThetaInVideo.avi,noTheta,plusVideo,sp01,Ad,Ge,3,1,3,flow/blocks/NoThetaInAudio_GlobalThetaInVideo_A.csv,,,,,,,,,0,1,1,1,0,15,15,2,,,,,,,,,-0.4013888888888889,0.08333333333333333,1,0,0,4.761801199994807,call2,0.013888888888888888,0.28888888888888886,1,0,0,5.329264100000728,colour1,0.35694444444444445,-0.07361111111111111,1,0,0,5.844968100005644,number3,False,True,True,6,1,2019_Nov_11_1157,MA_Theta_Exp,3.0.7,60.14607074811815,
video/Experiment/zh_sp01_Dr_Ge_3_NoThetaInAudio_GlobalThetaInVideo.avi,noTheta,plusVideo,sp01,Dr,Ge,3,1,3,flow/blocks/NoThetaInAudio_GlobalThetaInVideo_A.csv,,,,,,,,,0,1,1,1,0,16,16,18,,,,,,,,,-0.4013888888888889,0.08333333333333333,1,0,0,4.998818299995037,call2,0.043055555555555555,0.35138888888888886,1,0,0,5.598669300001347,colour1,0.44166666666666665,-0.12222222222222222,1,0,0,6.432124400002067,number3,True,True,True,6,1,2019_Nov_11_1157,MA_Theta_Exp,3.0.7,60.14607074811815,
video/Experiment/zh_sp07_Dr_Gr_4_NoThetaInAudio_GlobalThetaInVideo.avi,noTheta,plusVideo,sp07,Dr,Gr,4,1,3,flow/blocks/NoThetaInAudio_GlobalThetaInVideo_A.csv,,,,,,,,,0,1,1,1,0,17,17,23,,,,,,,,,-0.36527777777777776,0.0763888888888889,1,0,0,5.0891843999997946,call2,0.02361111111111111,0.04722222222222222,1,0,0,6.255461699998705,colour2,0.44583333333333336,-0.10555555555555556,1,0,0,6.872120100000757,number3,True,True,False,6,1,2019_Nov_11_1157,MA_Theta_Exp,3.0.7,60.14607074811815,
video/Experiment/zh_sp01_Dr_We_3_NoThetaInAudio_GlobalThetaInVideo.avi,noTheta,plusVideo,sp01,Dr,We,3,1,3,flow/blocks/NoThetaInAudio_GlobalThetaInVideo_A.csv,,,,,,,,,0,1,1,1,0,18,18,30,,,,,,,,,-0.4,0.08472222222222223,1,0,0,5.419261600000027,call2,0.022222222222222223,0.06944444444444445,1,0,0,6.186068199996953,colour2,0.47638888888888886,-0.0763888888888889,1,0,0,7.086012200001278,number3,True,False,True,6,1,2019_Nov_11_1157,MA_Theta_Exp,3.0.7,60.14607074811815,
video/Experiment/zh_sp01_Dr_We_4_NoThetaInAudio_GlobalThetaInVideo.avi,noTheta,plusVideo,sp01,Dr,We,4,1,3,flow/blocks/NoThetaInAudio_GlobalThetaInVideo_A.csv,,,,,,,,,0,1,1,1,0,19,19,31,,,,,,,,,-0.3875,0.09444444444444444,1,0,0,4.898340399995504,call2,0.05,-0.08055555555555556,1,0,0,5.5477785999974,colour3,0.5125,-0.09166666666666666,1,0,0,5.966355200005637,number3,True,False,False,6,1,2019_Nov_11_1157,MA_Theta_Exp,3.0.7,60.14607074811815,
video/Experiment/zh_sp07_Dr_Gr_1_NoThetaInAudio_GlobalThetaInVideo.avi,noTheta,plusVideo,sp07,Dr,Gr,1,1,3,flow/blocks/NoThetaInAudio_GlobalThetaInVideo_A.csv,,,,,,,,,0,1,1,1,0,20,20,20,,,,,,,,,-0.3861111111111111,0.08611111111111111,1,0,0,4.42135650000273,call2,-0.009722222222222222,0.08333333333333333,1,0,0,4.870065600000089,colour2,0.3597222222222222,-0.08611111111111111,1,0,0,5.569698399995104,number3,True,True,False,6,1,2019_Nov_11_1157,MA_Theta_Exp,3.0.7,60.14607074811815,
video/Experiment/zh_sp01_Ad_Ro_4_NoThetaInAudio_GlobalThetaInVideo.avi,noTheta,plusVideo,sp01,Ad,Ro,4,1,3,flow/blocks/NoThetaInAudio_GlobalThetaInVideo_A.csv,,,,,,,,,0,1,1,1,0,21,21,11,,,,,,,,,-0.45416666666666666,0.13194444444444445,1,0,0,4.984223499996006,call2,0.10694444444444444,0.0875,1,0,0,5.747416300000623,colour2,0.35694444444444445,-0.31666666666666665,1,0,0,6.581650799998897,number4,False,False,True,6,1,2019_Nov_11_1157,MA_Theta_Exp,3.0.7,60.14607074811815,
video/Experiment/zh_sp07_Ad_We_2_NoThetaInAudio_GlobalThetaInVideo.avi,noTheta,plusVideo,sp07,Ad,We,2,1,3,flow/blocks/NoThetaInAudio_GlobalThetaInVideo_A.csv,,,,,,,,,0,1,1,1,0,22,22,13,,,,,,,,,-0.42777777777777776,0.10694444444444444,1,0,0,4.7074202000003424,call2,0.005555555555555556,0.07777777777777778,1,0,0,5.207609500001126,colour2,0.37777777777777777,0.0763888888888889,1,0,0,5.640544800000498,number2,False,False,True,6,1,2019_Nov_11_1157,MA_Theta_Exp,3.0.7,60.14607074811815,
video/Experiment/zh_sp07_Ad_Gr_4_NoThetaInAudio_GlobalThetaInVideo.avi,noTheta,plusVideo,sp07,Ad,Gr,4,1,3,flow/blocks/NoThetaInAudio_GlobalThetaInVideo_A.csv,,,,,,,,,0,1,1,1,0,23,23,7,,,,,,,,,-0.37777777777777777,0.12916666666666668,1,0,0,4.483927400004177,call2,0.019444444444444445,0.08055555555555556,1,0,0,4.883809200000542,colour2,0.3458333333333333,-0.2833333333333333,1,0,0,5.3836246999999275,number4,False,True,True,6,1,2019_Nov_11_1157,MA_Theta_Exp,3.0.7,60.14607074811815,
video/Experiment/zh_sp01_Ad_Ge_4_NoThetaInAudio_GlobalThetaInVideo.avi,noTheta,plusVideo,sp01,Ad,Ge,4,1,3,flow/blocks/NoThetaInAudio_GlobalThetaInVideo_A.csv,,,,,,,,,0,1,1,1,0,24,24,3,,,,,,,,,-0.3458333333333333,0.12361111111111112,1,0,0,5.183719199994812,call2,-0.0763888888888889,0.3263888888888889,1,0,0,5.6826510000028065,colour1,0.3958333333333333,-0.2861111111111111,1,0,0,6.432684899999003,number4,False,True,True,6,1,2019_Nov_11_1157,MA_Theta_Exp,3.0.7,60.14607074811815,
video/Experiment/zh_sp07_Ad_Ge_1_NoThetaInAudio_GlobalThetaInVideo.avi,noTheta,plusVideo,sp07,Ad,Ge,1,1,3,flow/blocks/NoThetaInAudio_GlobalThetaInVideo_A.csv,,,,,,,,,0,1,1,1,0,25,25,0,,,,,,,,,-0.39166666666666666,0.1111111111111111,1,0,0,4.9872933000006014,call2,0.05138888888888889,-0.09861111111111111,1,0,0,6.754631400006474,colour3,0.36944444444444446,0.07083333333333333,1,0,0,7.253355399996508,number2,False,False,False,6,1,2019_Nov_11_1157,MA_Theta_Exp,3.0.7,60.14607074811815,
video/Experiment/zh_sp07_Dr_We_2_NoThetaInAudio_GlobalThetaInVideo.avi,noTheta,plusVideo,sp07,Dr,We,2,1,3,flow/blocks/NoThetaInAudio_GlobalThetaInVideo_A.csv,,,,,,,,,0,1,1,1,0,26,26,29,,,,,,,,,-0.34444444444444444,0.12916666666666668,1,0,0,4.812207700000727,call2,0.029166666666666667,-0.37222222222222223,1,0,0,5.56234879999829,colour4,0.44166666666666665,0.125,1,0,0,6.1119773000027635,number2,True,True,True,6,1,2019_Nov_11_1157,MA_Theta_Exp,3.0.7,60.14607074811815,
video/Experiment/zh_sp01_Ad_Ro_2_NoThetaInAudio_GlobalThetaInVideo.avi,noTheta,plusVideo,sp01,Ad,Ro,2,1,3,flow/blocks/NoThetaInAudio_GlobalThetaInVideo_A.csv,,,,,,,,,0,1,1,1,0,27,27,9,,,,,,,,,-0.40555555555555556,0.0875,1,0,0,5.217206300003454,call2,0.02361111111111111,0.31527777777777777,1,0,0,6.599643699999433,colour1,0.4638888888888889,0.09583333333333334,1,0,0,7.087097299998277,number2,False,False,True,6,1,2019_Nov_11_1157,MA_Theta_Exp,3.0.7,60.14607074811815,
video/Experiment/zh_sp07_Ad_We_1_NoThetaInAudio_GlobalThetaInVideo.avi,noTheta,plusVideo,sp07,Ad,We,1,1,3,flow/blocks/NoThetaInAudio_GlobalThetaInVideo_A.csv,,,,,,,,,0,1,1,1,0,28,28,12,,,,,,,,,-0.38472222222222224,0.08333333333333333,1,0,0,4.603121000000101,call2,0.06527777777777778,-0.2125,1,0,0,5.202586200000951,colour3,0.3347222222222222,0.2833333333333333,1,0,0,6.204309699998703,number1,False,False,True,6,1,2019_Nov_11_1157,MA_Theta_Exp,3.0.7,60.14607074811815,
video/Experiment/zh_sp01_Dr_Ge_4_NoThetaInAudio_GlobalThetaInVideo.avi,noTheta,plusVideo,sp01,Dr,Ge,4,1,3,flow/blocks/NoThetaInAudio_GlobalThetaInVideo_A.csv,,,,,,,,,0,1,1,1,0,29,29,19,,,,,,,,,-0.3819444444444444,0.11527777777777778,1,0,0,4.869793800004118,call2,0.04027777777777778,0.3138888888888889,1,0,0,5.4836123999994015,colour1,0.4263888888888889,-0.29444444444444445,1,0,0,6.283508699998492,number4,True,True,True,6,1,2019_Nov_11_1157,MA_Theta_Exp,3.0.7,60.14607074811815,
video/Experiment/zh_sp07_Ad_We_4_NoThetaInAudio_GlobalThetaInVideo.avi,noTheta,plusVideo,sp07,Ad,We,4,1,3,flow/blocks/NoThetaInAudio_GlobalThetaInVideo_A.csv,,,,,,,,,0,1,1,1,0,30,30,15,,,,,,,,,-0.37916666666666665,0.125,1,0,0,4.5529308000041055,call2,0.011111111111111112,0.3277777777777778,1,0,0,5.053097500000149,colour1,0.3888888888888889,-0.2875,1,0,0,5.802881100004015,number4,False,False,True,6,1,2019_Nov_11_1157,MA_Theta_Exp,3.0.7,60.14607074811815,
video/Experiment/zh_sp01_Ad_Gr_1_NoThetaInAudio_GlobalThetaInVideo.avi,noTheta,plusVideo,sp01,Ad,Gr,1,1,3,flow/blocks/NoThetaInAudio_GlobalThetaInVideo_A.csv,,,,,,,,,0,1,1,1,0,31,31,4,,,,,,,,,-0.4513888888888889,0.11527777777777778,1,0,0,6.903309400004218,call2,0.0,0.35833333333333334,1,0,0,8.736400699999649,colour1,0.3958333333333333,0.12222222222222222,1,0,0,9.236346099998627,number2,False,False,False,6,1,2019_Nov_11_1157,MA_Theta_Exp,3.0.7,60.14607074811815,
video/Experiment/zh_sp01_Dr_Ro_3_GlobalTheta_NoVideo.avi,globalTheta,noVideo,sp01,Dr,Ro,3,2,5,flow/blocks/GlobalTheta_NoVideo_A.csv,,,,,,,,,0,2,2,2,0,0,0,26,,,,,,,,,-0.4027777777777778,0.125,1,0,0,4.999769099995319,call2,-0.018055555555555554,0.2916666666666667,1,0,0,5.532994300003338,colour1,0.4097222222222222,-0.08888888888888889,1,0,0,6.2661365999956615,number3,True,False,True,6,1,2019_Nov_11_1157,MA_Theta_Exp,3.0.7,60.14607074811815,
video/Experiment/zh_sp01_Dr_We_1_GlobalTheta_NoVideo.avi,globalTheta,noVideo,sp01,Dr,We,1,2,5,flow/blocks/GlobalTheta_NoVideo_A.csv,,,,,,,,,0,2,2,2,0,1,1,28,,,,,,,,,-0.4263888888888889,0.059722222222222225,1,0,0,5.065614500002994,call2,0.018055555555555554,-0.04722222222222222,1,0,0,5.615410900005372,colour3,0.4486111111111111,0.08055555555555556,1,0,0,6.23181409999961,number2,True,False,False,6,1,2019_Nov_11_1157,MA_Theta_Exp,3.0.7,60.14607074811815,
video/Experiment/zh_sp01_Dr_Ro_1_GlobalTheta_NoVideo.avi,globalTheta,noVideo,sp01,Dr,Ro,1,2,5,flow/blocks/GlobalTheta_NoVideo_A.csv,,,,,,,,,0,2,2,2,0,2,2,24,,,,,,,,,-0.4652777777777778,0.08611111111111111,1,0,0,5.106824900001811,call2,0.022222222222222223,0.30694444444444446,1,0,0,5.706178499996895,colour1,0.37916666666666665,0.125,1,0,0,6.139267799997469,number2,True,False,False,6,1,2019_Nov_11_1157,MA_Theta_Exp,3.0.7,60.14607074811815,
video/Experiment/zh_sp07_Dr_Ge_4_GlobalTheta_NoVideo.avi,globalTheta,noVideo,sp07,Dr,Ge,4,2,5,flow/blocks/GlobalTheta_NoVideo_A.csv,,,,,,,,,0,2,2,2,0,3,3,19,,,,,,,,,-0.4027777777777778,0.11944444444444445,1,0,0,4.267851700002211,call2,0.02638888888888889,0.12083333333333333,1,0,0,4.765010099996289,colour2,0.44722222222222224,-0.3486111111111111,1,0,0,5.431454700003087,number4,True,False,True,6,1,2019_Nov_11_1157,MA_Theta_Exp,3.0.7,60.14607074811815,
video/Experiment/zh_sp07_Dr_We_3_GlobalTheta_NoVideo.avi,globalTheta,noVideo,sp07,Dr,We,3,2,5,flow/blocks/GlobalTheta_NoVideo_A.csv,,,,,,,,,0,2,2,2,0,4,4,30,,,,,,,,,-0.4125,0.07361111111111111,1,0,0,4.254316200000176,call2,0.043055555555555555,-0.275,1,0,0,4.986923999997089,colour4,0.44305555555555554,-0.0875,1,0,0,5.539014900001348,number3,True,True,True,6,1,2019_Nov_11_1157,MA_Theta_Exp,3.0.7,60.14607074811815,
video/Experiment/zh_sp07_Dr_Ro_4_GlobalTheta_NoVideo.avi,globalTheta,noVideo,sp07,Dr,Ro,4,2,5,flow/blocks/GlobalTheta_NoVideo_A.csv,,,,,,,,,0,2,2,2,0,5,5,27,,,,,,,,,-0.36666666666666664,0.06944444444444445,1,0,0,4.572294700003113,call2,0.016666666666666666,0.05555555555555555,1,0,0,5.072138299998187,colour2,0.3680555555555556,-0.07222222222222222,1,0,0,5.555145800004539,number3,True,False,False,6,1,2019_Nov_11_1157,MA_Theta_Exp,3.0.7,60.14607074811815,
video/Experiment/zh_sp01_Dr_Gr_2_GlobalTheta_NoVideo.avi,globalTheta,noVideo,sp01,Dr,Gr,2,2,5,flow/blocks/GlobalTheta_NoVideo_A.csv,,,,,,,,,0,2,2,2,0,6,6,21,,,,,,,,,-0.3138888888888889,0.09861111111111111,1,0,0,5.117372699998668,call2,-0.002777777777777778,0.35138888888888886,1,0,0,5.651130999998713,colour1,0.375,0.12777777777777777,1,0,0,6.133906300005037,number2,True,False,True,6,1,2019_Nov_11_1157,MA_Theta_Exp,3.0.7,60.14607074811815,
video/Experiment/zh_sp07_Dr_Ge_1_GlobalTheta_NoVideo.avi,globalTheta,noVideo,sp07,Dr,Ge,1,2,5,flow/blocks/GlobalTheta_NoVideo_A.csv,,,,,,,,,0,2,2,2,0,7,7,16,,,,,,,,,-0.3861111111111111,0.11944444444444445,1,0,0,4.471017600000778,call2,-0.059722222222222225,0.3013888888888889,1,0,0,4.971657999994932,colour1,0.4263888888888889,0.2861111111111111,1,0,0,5.454122999995889,number1,True,True,True,6,1,2019_Nov_11_1157,MA_Theta_Exp,3.0.7,60.14607074811815,
video/Experiment/zh_sp01_Dr_Gr_3_GlobalTheta_NoVideo.avi,globalTheta,noVideo,sp01,Dr,Gr,3,2,5,flow/blocks/GlobalTheta_NoVideo_A.csv,,,,,,,,,0,2,2,2,0,8,8,22,,,,,,,,,-0.45555555555555555,0.10694444444444444,1,0,0,4.896382200000517,call2,-0.06944444444444445,-0.04583333333333333,1,0,0,5.346519699996861,colour3,0.44166666666666665,-0.11666666666666667,1,0,0,5.829758500003663,number3,True,False,True,6,1,2019_Nov_11_1157,MA_Theta_Exp,3.0.7,60.14607074811815,
video/Experiment/zh_sp07_Ad_Ro_1_GlobalTheta_NoVideo.avi,globalTheta,noVideo,sp07,Ad,Ro,1,2,5,flow/blocks/GlobalTheta_NoVideo_A.csv,,,,,,,,,0,2,2,2,0,9,9,8,,,,,,,,,-0.3333333333333333,0.07777777777777778,1,0,0,4.244889100002183,call2,0.09861111111111111,-0.0875,1,0,0,4.894718399998965,colour3,0.43333333333333335,0.075,1,0,0,6.1444441999992705,number2,False,True,False,6,1,2019_Nov_11_1157,MA_Theta_Exp,3.0.7,60.14607074811815,
video/Experiment/zh_sp07_Dr_We_4_GlobalTheta_NoVideo.avi,globalTheta,noVideo,sp07,Dr,We,4,2,5,flow/blocks/GlobalTheta_NoVideo_A.csv,,,,,,,,,0,2,2,2,0,10,10,31,,,,,,,,,-0.3902777777777778,0.10833333333333334,1,0,0,4.31609710000339,call2,-0.0375,0.11944444444444445,1,0,0,4.72895889999927,colour2,0.3888888888888889,-0.0875,1,0,0,5.245029400000931,number3,True,False,False,6,1,2019_Nov_11_1157,MA_Theta_Exp,3.0.7,60.14607074811815,
video/Experiment/zh_sp01_Ad_Ge_1_GlobalTheta_NoVideo.avi,globalTheta,noVideo,sp01,Ad,Ge,1,2,5,flow/blocks/GlobalTheta_NoVideo_A.csv,,,,,,,,,0,2,2,2,0,11,11,0,,,,,,,,,-0.37777777777777777,0.11388888888888889,1,0,0,4.971484500005317,call2,0.025,0.33055555555555555,1,0,0,5.5228383999929065,colour1,0.42083333333333334,0.30277777777777776,1,0,0,6.0547719999958645,number1,False,True,True,6,1,2019_Nov_11_1157,MA_Theta_Exp,3.0.7,60.14607074811815,
video/Experiment/zh_sp07_Ad_Ge_4_GlobalTheta_NoVideo.avi,globalTheta,noVideo,sp07,Ad,Ge,4,2,5,flow/blocks/GlobalTheta_NoVideo_A.csv,,,,,,,,,0,2,2,2,0,12,12,3,,,,,,,,,-0.4152777777777778,0.10694444444444444,1,0,0,4.465928900004656,call2,0.016666666666666666,0.2972222222222222,1,0,0,4.898575500003062,colour1,0.3597222222222222,-0.25,1,0,0,5.548844200005988,number4,False,True,True,6,1,2019_Nov_11_1157,MA_Theta_Exp,3.0.7,60.14607074811815,
video/Experiment/zh_sp01_Dr_Gr_1_GlobalTheta_NoVideo.avi,globalTheta,noVideo,sp01,Dr,Gr,1,2,5,flow/blocks/GlobalTheta_NoVideo_A.csv,,,,,,,,,0,2,2,2,0,13,13,20,,,,,,,,,-0.35138888888888886,0.10277777777777777,1,0,0,5.314855999997235,call2,-0.03888888888888889,0.10138888888888889,1,0,0,5.701083499996457,colour2,0.3888888888888889,0.30416666666666664,1,0,0,6.150100500002736,number1,True,True,True,6,1,2019_Nov_11_1157,MA_Theta_Exp,3.0.7,60.14607074811815,
video/Experiment/zh_sp01_Ad_We_2_GlobalTheta_NoVideo.avi,globalTheta,noVideo,sp01,Ad,We,2,2,5,flow/blocks/GlobalTheta_NoVideo_A.csv,,,,,,,,,0,2,2,2,0,14,14,13,,,,,,,,,-0.47638888888888886,0.1388888888888889,1,0,0,5.41107799999736,call2,0.002777777777777778,0.25416666666666665,1,0,0,6.277031599995098,colour1,0.4083333333333333,0.09444444444444444,1,0,0,7.044751300003554,number2,False,False,True,6,1,2019_Nov_11_1157,MA_Theta_Exp,3.0.7,60.14607074811815,
video/Experiment/zh_sp01_Ad_Ro_4_GlobalTheta_NoVideo.avi,globalTheta,noVideo,sp01,Ad,Ro,4,2,5,flow/blocks/GlobalTheta_NoVideo_A.csv,,,,,,,,,0,2,2,2,0,15,15,11,,,,,,,,,-0.45694444444444443,0.059722222222222225,1,0,0,5.384397800000443,call2,0.06805555555555555,0.2847222222222222,1,0,0,7.350549700000556,colour1,0.37916666666666665,-0.07083333333333333,1,0,0,7.9334092999997665,number3,False,False,False,6,1,2019_Nov_11_1157,MA_Theta_Exp,3.0.7,60.14607074811815,
video/Experiment/zh_sp07_Ad_Ro_2_GlobalTheta_NoVideo.avi,globalTheta,noVideo,sp07,Ad,Ro,2,2,5,flow/blocks/GlobalTheta_NoVideo_A.csv,,,,,,,,,0,2,2,2,0,16,16,9,,,,,,,,,-0.4305555555555556,0.1375,1,0,0,4.1720868999982486,call2,0.027777777777777776,0.3013888888888889,1,0,0,4.722013300000981,colour1,0.45416666666666666,0.0763888888888889,1,0,0,5.240676599998551,number2,False,False,True,6,1,2019_Nov_11_1157,MA_Theta_Exp,3.0.7,60.14607074811815,
video/Experiment/zh_sp07_Dr_Ge_2_GlobalTheta_NoVideo.avi,globalTheta,noVideo,sp07,Dr,Ge,2,2,5,flow/blocks/GlobalTheta_NoVideo_A.csv,,,,,,,,,0,2,2,2,0,17,17,17,,,,,,,,,-0.39444444444444443,0.12083333333333333,1,0,0,4.57077130000107,call2,-0.03194444444444444,0.2791666666666667,1,0,0,4.936470900000131,colour1,0.42083333333333334,0.05555555555555555,1,0,0,5.3199080000049435,number2,True,True,True,6,1,2019_Nov_11_1157,MA_Theta_Exp,3.0.7,60.14607074811815,
video/Experiment/zh_sp07_Ad_Gr_3_GlobalTheta_NoVideo.avi,globalTheta,noVideo,sp07,Ad,Gr,3,2,5,flow/blocks/GlobalTheta_NoVideo_A.csv,,,,,,,,,0,2,2,2,0,18,18,6,,,,,,,,,-0.3958333333333333,0.09166666666666666,1,0,0,4.4221452999991016,call2,0.02361111111111111,0.32222222222222224,1,0,0,4.822016999998596,colour1,0.35555555555555557,-0.10833333333333334,1,0,0,5.42184350000025,number3,False,False,True,6,1,2019_Nov_11_1157,MA_Theta_Exp,3.0.7,60.14607074811815,
video/Experiment/zh_sp07_Dr_Gr_4_GlobalTheta_NoVideo.avi,globalTheta,noVideo,sp07,Dr,Gr,4,2,5,flow/blocks/GlobalTheta_NoVideo_A.csv,,,,,,,,,0,2,2,2,0,19,19,23,,,,,,,,,-0.4625,0.09722222222222222,1,0,0,4.618215199996484,call2,-0.1,0.2638888888888889,1,0,0,5.00093399999605,colour1,0.2777777777777778,-0.04861111111111111,1,0,0,6.151671899999201,number3,True,False,False,6,1,2019_Nov_11_1157,MA_Theta_Exp,3.0.7,60.14607074811815,
video/Experiment/zh_sp07_Ad_We_4_GlobalTheta_NoVideo.avi,globalTheta,noVideo,sp07,Ad,We,4,2,5,flow/blocks/GlobalTheta_NoVideo_A.csv,,,,,,,,,0,2,2,2,0,20,20,15,,,,,,,,,-0.41944444444444445,0.06944444444444445,1,0,0,4.2081794000041555,call2,0.059722222222222225,0.07361111111111111,1,0,0,4.725034600000072,colour2,0.42083333333333334,-0.2902777777777778,1,0,0,5.3931355999957304,number4,False,False,True,6,1,2019_Nov_11_1157,MA_Theta_Exp,3.0.7,60.14607074811815,
video/Experiment/zh_sp07_Ad_We_1_GlobalTheta_NoVideo.avi,globalTheta,noVideo,sp07,Ad,We,1,2,5,flow/blocks/GlobalTheta_NoVideo_A.csv,,,,,,,,,0,2,2,2,0,21,21,12,,,,,,,,,-0.3888888888888889,0.1527777777777778,1,0,0,4.267670299996098,call2,0.04583333333333333,0.08055555555555556,1,0,0,5.684104200001457,colour2,0.35138888888888886,0.3486111111111111,1,0,0,6.217143499998201,number1,False,False,True,6,1,2019_Nov_11_1157,MA_Theta_Exp,3.0.7,60.14607074811815,
video/Experiment/zh_sp01_Dr_We_2_GlobalTheta_NoVideo.avi,globalTheta,noVideo,sp01,Dr,We,2,2,5,flow/blocks/GlobalTheta_NoVideo_A.csv,,,,,,,,,0,2,2,2,0,22,22,29,,,,,,,,,-0.3736111111111111,0.07916666666666666,1,0,0,5.522123499998997,call2,0.08888888888888889,0.29444444444444445,1,0,0,6.70269769999868,colour1,0.38472222222222224,0.0625,1,0,0,7.338905900003738,number2,True,False,True,6,1,2019_Nov_11_1157,MA_Theta_Exp,3.0.7,60.14607074811815,
video/Experiment/zh_sp01_Ad_Gr_1_GlobalTheta_NoVideo.avi,globalTheta,noVideo,sp01,Ad,Gr,1,2,5,flow/blocks/GlobalTheta_NoVideo_A.csv,,,,,,,,,0,2,2,2,0,23,23,4,,,,,,,,,-0.3416666666666667,0.15,1,0,0,5.197391700006847,call2,-0.04027777777777778,0.10416666666666667,1,0,0,5.597300000001269,colour2,0.36944444444444446,0.10416666666666667,1,0,0,6.613978400004271,number2,False,True,False,6,1,2019_Nov_11_1157,MA_Theta_Exp,3.0.7,60.14607074811815,
video/Experiment/zh_sp07_Ad_Gr_2_GlobalTheta_NoVideo.avi,globalTheta,noVideo,sp07,Ad,Gr,2,2,5,flow/blocks/GlobalTheta_NoVideo_A.csv,,,,,,,,,0,2,2,2,0,24,24,5,,,,,,,,,-0.3277777777777778,0.11944444444444445,1,0,0,5.252057199999399,call2,0.005555555555555556,0.09027777777777778,1,0,0,6.218860699998913,colour2,0.45694444444444443,0.075,1,0,0,6.801696000002266,number2,False,True,True,6,1,2019_Nov_11_1157,MA_Theta_Exp,3.0.7,60.14607074811815,
video/Experiment/zh_sp01_Dr_Ge_3_GlobalTheta_NoVideo.avi,globalTheta,noVideo,sp01,Dr,Ge,3,2,5,flow/blocks/GlobalTheta_NoVideo_A.csv,,,,,,,,,0,2,2,2,0,25,25,18,,,,,,,,,-0.38055555555555554,0.06944444444444445,1,0,0,4.908959600004891,call2,-0.004166666666666667,0.3194444444444444,1,0,0,5.477472899998247,colour1,0.36666666666666664,-0.09166666666666666,1,0,0,6.062672500003828,number3,True,True,True,6,1,2019_Nov_11_1157,MA_Theta_Exp,3.0.7,60.14607074811815,
video/Experiment/zh_sp01_Ad_Ge_3_GlobalTheta_NoVideo.avi,globalTheta,noVideo,sp01,Ad,Ge,3,2,5,flow/blocks/GlobalTheta_NoVideo_A.csv,,,,,,,,,0,2,2,2,0,26,26,2,,,,,,,,,-0.4152777777777778,0.09305555555555556,1,0,0,5.164865999999165,call2,-0.004166666666666667,0.30277777777777776,1,0,0,5.781358599997475,colour1,0.38055555555555554,-0.09027777777777778,1,0,0,6.531548999999359,number3,False,True,True,6,1,2019_Nov_11_1157,MA_Theta_Exp,3.0.7,60.14607074811815,
video/Experiment/zh_sp07_Ad_Ro_3_GlobalTheta_NoVideo.avi,globalTheta,noVideo,sp07,Ad,Ro,3,2,5,flow/blocks/GlobalTheta_NoVideo_A.csv,,,,,,,,,0,2,2,2,0,27,27,10,,,,,,,,,-0.3611111111111111,0.13472222222222222,1,0,0,6.599868899997091,call2,0.002777777777777778,0.2861111111111111,1,0,0,8.033491300004243,colour1,0.3819444444444444,-0.07222222222222222,1,0,0,8.699897999998939,number3,False,False,True,6,1,2019_Nov_11_1157,MA_Theta_Exp,3.0.7,60.14607074811815,
video/Experiment/zh_sp01_Ad_Ge_2_GlobalTheta_NoVideo.avi,globalTheta,noVideo,sp01,Ad,Ge,2,2,5,flow/blocks/GlobalTheta_NoVideo_A.csv,,,,,,,,,0,2,2,2,0,28,28,1,,,,,,,,,-0.425,0.10972222222222222,1,0,0,5.1051848999995855,call2,-0.020833333333333332,0.2902777777777778,1,0,0,6.220138099997712,colour1,0.32916666666666666,0.09166666666666666,1,0,0,6.886702200004947,number2,False,True,True,6,1,2019_Nov_11_1157,MA_Theta_Exp,3.0.7,60.14607074811815,
video/Experiment/zh_sp07_Ad_Gr_4_GlobalTheta_NoVideo.avi,globalTheta,noVideo,sp07,Ad,Gr,4,2,5,flow/blocks/GlobalTheta_NoVideo_A.csv,,,,,,,,,0,2,2,2,0,29,29,7,,,,,,,,,-0.4513888888888889,0.15416666666666667,1,0,0,4.30389329999889,call2,0.04583333333333333,0.2861111111111111,1,0,0,4.753951799997594,colour1,0.40555555555555556,-0.26944444444444443,1,0,0,5.520234000003256,number4,False,False,True,6,1,2019_Nov_11_1157,MA_Theta_Exp,3.0.7,60.14607074811815,
video/Experiment/zh_sp01_Ad_We_3_GlobalTheta_NoVideo.avi,globalTheta,noVideo,sp01,Ad,We,3,2,5,flow/blocks/GlobalTheta_NoVideo_A.csv,,,,,,,,,0,2,2,2,0,30,30,14,,,,,,,,,-0.44166666666666665,0.13472222222222222,1,0,0,4.91657970000233,call2,-0.029166666666666667,0.3263888888888889,1,0,0,6.767207299999427,colour1,0.5152777777777777,-0.15,1,0,0,7.483035800003563,number3,False,False,True,6,1,2019_Nov_11_1157,MA_Theta_Exp,3.0.7,60.14607074811815,
video/Experiment/zh_sp01_Dr_Ro_2_GlobalTheta_NoVideo.avi,globalTheta,noVideo,sp01,Dr,Ro,2,2,5,flow/blocks/GlobalTheta_NoVideo_A.csv,,,,,,,,,0,2,2,2,0,31,31,25,,,,,,,,,-0.3402777777777778,0.1388888888888889,1,0,0,5.5468695999952615,call2,0.002777777777777778,0.10694444444444444,1,0,0,5.963569300001836,colour2,0.36527777777777776,0.07916666666666666,1,0,0,6.513538700004574,number2,True,False,True,6,1,2019_Nov_11_1157,MA_Theta_Exp,3.0.7,60.14607074811815,
video/Experiment/zh_sp07_Ad_Gr_1_NVocInAudio_GlobalThetaInVideo.avi,vocoded,plusVideo,sp07,Ad,Gr,1,3,1,flow/blocks/NVocInAudio_GlobalThetaInVideo_A.csv,,,,,,,,,0,3,3,3,0,0,0,4,,,,,,,,,-0.39444444444444443,0.11388888888888889,1,0,0,4.934468999999808,call2,-0.06111111111111111,0.12638888888888888,1,0,0,5.530976600006397,colour2,0.44166666666666665,0.29583333333333334,1,0,0,6.781420600003912,number1,False,True,True,6,1,2019_Nov_11_1157,MA_Theta_Exp,3.0.7,60.14607074811815,
video/Experiment/zh_sp01_Ad_Ge_4_NVocInAudio_GlobalThetaInVideo.avi,vocoded,plusVideo,sp01,Ad,Ge,4,3,1,flow/blocks/NVocInAudio_GlobalThetaInVideo_A.csv,,,,,,,,,0,3,3,3,0,1,1,3,,,,,,,,,-0.4527777777777778,0.11527777777777778,1,0,0,6.073921200004406,call2,-0.05,0.28194444444444444,1,0,0,6.723495799997181,colour1,0.39444444444444443,-0.30277777777777776,1,0,0,7.5234667000040645,number4,False,True,True,6,1,2019_Nov_11_1157,MA_Theta_Exp,3.0.7,60.14607074811815,
video/Experiment/zh_sp01_Ad_We_3_NVocInAudio_GlobalThetaInVideo.avi,vocoded,plusVideo,sp01,Ad,We,3,3,1,flow/blocks/NVocInAudio_GlobalThetaInVideo_A.csv,,,,,,,,,0,3,3,3,0,2,2,14,,,,,,,,,-0.3958333333333333,0.3055555555555556,1,0,0,5.030397499998799,call1,0.03611111111111111,-0.3125,1,0,0,5.746407600003295,colour4,0.4152777777777778,-0.0875,1,0,0,6.562905799997679,number3,True,True,True,6,1,2019_Nov_11_1157,MA_Theta_Exp,3.0.7,60.14607074811815,
video/Experiment/zh_sp01_Ad_Gr_2_NVocInAudio_GlobalThetaInVideo.avi,vocoded,plusVideo,sp01,Ad,Gr,2,3,1,flow/blocks/NVocInAudio_GlobalThetaInVideo_A.csv,,,,,,,,,0,3,3,3,0,3,3,5,,,,,,,,,-0.425,0.3486111111111111,1,0,0,5.303675099996326,call1,-0.043055555555555555,0.16805555555555557,1,0,0,6.008034500002395,colour2,0.4513888888888889,0.1111111111111111,1,0,0,6.472974500000419,number2,True,True,True,6,1,2019_Nov_11_1157,MA_Theta_Exp,3.0.7,60.14607074811815,
video/Experiment/zh_sp07_Dr_Ro_1_NVocInAudio_GlobalThetaInVideo.avi,vocoded,plusVideo,sp07,Dr,Ro,1,3,1,flow/blocks/NVocInAudio_GlobalThetaInVideo_A.csv,,,,,,,,,0,3,3,3,0,4,4,24,,,,,,,,,-0.40555555555555556,0.09444444444444444,1,0,0,4.39823140000226,call2,-0.05416666666666667,-0.059722222222222225,1,0,0,5.015289800001483,colour3,0.4625,0.3055555555555556,1,0,0,5.64816360000259,number1,True,True,True,6,1,2019_Nov_11_1157,MA_Theta_Exp,3.0.7,60.14607074811815,
video/Experiment/zh_sp07_Dr_Ge_4_NVocInAudio_GlobalThetaInVideo.avi,vocoded,plusVideo,sp07,Dr,Ge,4,3,1,flow/blocks/NVocInAudio_GlobalThetaInVideo_A.csv,,,,,,,,,0,3,3,3,0,5,5,19,,,,,,,,,-0.39305555555555555,0.10694444444444444,1,0,0,4.369148900004802,call2,-0.019444444444444445,0.3111111111111111,1,0,0,4.935836099997687,colour1,0.4597222222222222,-0.2986111111111111,1,0,0,5.919119300000602,number4,True,True,True,6,1,2019_Nov_11_1157,MA_Theta_Exp,3.0.7,60.14607074811815,
video/Experiment/zh_sp07_Dr_Gr_3_NVocInAudio_GlobalThetaInVideo.avi,vocoded,plusVideo,sp07,Dr,Gr,3,3,1,flow/blocks/NVocInAudio_GlobalThetaInVideo_A.csv,,,,,,,,,0,3,3,3,0,6,6,22,,,,,,,,,-0.3680555555555556,0.11805555555555555,1,0,0,4.605459899998095,call2,0.018055555555555554,0.09722222222222222,1,0,0,5.055453100001614,colour2,0.36666666666666664,-0.10138888888888889,1,0,0,5.5718115999989095,number3,True,True,True,6,1,2019_Nov_11_1157,MA_Theta_Exp,3.0.7,60.14607074811815,
video/Experiment/zh_sp01_Dr_Ge_2_NVocInAudio_GlobalThetaInVideo.avi,vocoded,plusVideo,sp01,Dr,Ge,2,3,1,flow/blocks/NVocInAudio_GlobalThetaInVideo_A.csv,,,,,,,,,0,3,3,3,0,7,7,17,,,,,,,,,-0.37083333333333335,0.09583333333333334,1,0,0,5.102074899994477,call2,-0.013888888888888888,0.41805555555555557,1,0,0,5.868465599996853,colour1,0.40694444444444444,0.08333333333333333,1,0,0,6.734864899997774,number2,True,True,True,6,1,2019_Nov_11_1157,MA_Theta_Exp,3.0.7,60.14607074811815,
video/Experiment/zh_sp07_Dr_We_1_NVocInAudio_GlobalThetaInVideo.avi,vocoded,plusVideo,sp07,Dr,We,1,3,1,flow/blocks/NVocInAudio_GlobalThetaInVideo_A.csv,,,,,,,,,0,3,3,3,0,8,8,28,,,,,,,,,-0.3819444444444444,0.0763888888888889,1,0,0,4.742183000002115,call2,0.030555555555555555,-0.2777777777777778,1,0,0,5.375190600003407,colour4,0.4,0.275,1,0,0,6.175224500002514,number1,True,True,True,6,1,2019_Nov_11_1157,MA_Theta_Exp,3.0.7,60.14607074811815,
video/Experiment/zh_sp07_Dr_We_3_NVocInAudio_GlobalThetaInVideo.avi,vocoded,plusVideo,sp07,Dr,We,3,3,1,flow/blocks/NVocInAudio_GlobalThetaInVideo_A.csv,,,,,,,,,0,3,3,3,0,9,9,30,,,,,,,,,-0.42083333333333334,0.1125,1,0,0,4.367789200005063,call2,0.002777777777777778,-0.25972222222222224,1,0,0,5.015660300006857,colour4,0.3541666666666667,-0.059722222222222225,1,0,0,5.767148699997051,number3,True,True,True,6,1,2019_Nov_11_1157,MA_Theta_Exp,3.0.7,60.14607074811815,
video/Experiment/zh_sp07_Ad_Ro_1_NVocInAudio_GlobalThetaInVideo.avi,vocoded,plusVideo,sp07,Ad,Ro,1,3,1,flow/blocks/NVocInAudio_GlobalThetaInVideo_A.csv,,,,,,,,,0,3,3,3,0,10,10,8,,,,,,,,,-0.4222222222222222,0.33194444444444443,1,0,0,4.519198599999072,call1,-0.02361111111111111,-0.09305555555555556,1,0,0,5.069027099998493,colour3,0.4375,0.3333333333333333,1,0,0,5.6854177999994135,number1,True,True,True,6,1,2019_Nov_11_1157,MA_Theta_Exp,3.0.7,60.14607074811815,
video/Experiment/zh_sp01_Dr_Ge_1_NVocInAudio_GlobalThetaInVideo.avi,vocoded,plusVideo,sp01,Dr,Ge,1,3,1,flow/blocks/NVocInAudio_GlobalThetaInVideo_A.csv,,,,,,,,,0,3,3,3,0,11,11,16,,,,,,,,,-0.36666666666666664,0.1125,1,0,0,5.1926278000028105,call2,0.015277777777777777,0.27361111111111114,1,0,0,5.708907399995951,colour1,0.3527777777777778,0.325,1,0,0,6.1605331000027945,number1,True,True,True,6,1,2019_Nov_11_1157,MA_Theta_Exp,3.0.7,60.14607074811815,
video/Experiment/zh_sp01_Ad_We_4_NVocInAudio_GlobalThetaInVideo.avi,vocoded,plusVideo,sp01,Ad,We,4,3,1,flow/blocks/NVocInAudio_GlobalThetaInVideo_A.csv,,,,,,,,,0,3,3,3,0,12,12,15,,,,,,,,,-0.40555555555555556,0.34305555555555556,1,0,0,5.099422599996615,call1,-0.025,-0.2916666666666667,1,0,0,5.9828217999966,colour4,0.44166666666666665,-0.27361111111111114,1,0,0,6.982664399998612,number4,True,True,True,6,1,2019_Nov_11_1157,MA_Theta_Exp,3.0.7,60.14607074811815,
video/Experiment/zh_sp07_Ad_Ge_3_NVocInAudio_GlobalThetaInVideo.avi,vocoded,plusVideo,sp07,Ad,Ge,3,3,1,flow/blocks/NVocInAudio_GlobalThetaInVideo_A.csv,,,,,,,,,0,3,3,3,0,13,13,2,,,,,,,,,-0.44027777777777777,0.32083333333333336,1,0,0,4.3709948000032455,call1,-0.05,0.3055555555555556,1,0,0,4.787412899997435,colour1,0.3125,-0.05138888888888889,1,0,0,5.520726700000523,number3,True,True,True,6,1,2019_Nov_11_1157,MA_Theta_Exp,3.0.7,60.14607074811815,
video/Experiment/zh_sp01_Dr_Ro_3_NVocInAudio_GlobalThetaInVideo.avi,vocoded,plusVideo,sp01,Dr,Ro,3,3,1,flow/blocks/NVocInAudio_GlobalThetaInVideo_A.csv,,,,,,,,,0,3,3,3,0,14,14,26,,,,,,,,,-0.3902777777777778,0.09583333333333334,1,0,0,5.29522580000048,call2,-0.07083333333333333,-0.1111111111111111,1,0,0,5.827348900005745,colour3,0.39166666666666666,-0.07916666666666666,1,0,0,6.39381670000148,number3,True,True,True,6,1,2019_Nov_11_1157,MA_Theta_Exp,3.0.7,60.14607074811815,
video/Experiment/zh_sp01_Dr_Gr_1_NVocInAudio_GlobalThetaInVideo.avi,vocoded,plusVideo,sp01,Dr,Gr,1,3,1,flow/blocks/NVocInAudio_GlobalThetaInVideo_A.csv,,,,,,,,,0,3,3,3,0,15,15,20,,,,,,,,,-0.43194444444444446,0.11527777777777778,1,0,0,6.183981299996958,call2,-0.02361111111111111,0.11666666666666667,1,0,0,6.767026100002113,colour2,0.32222222222222224,0.2791666666666667,1,0,0,7.317360199995164,number1,True,True,True,6,1,2019_Nov_11_1157,MA_Theta_Exp,3.0.7,60.14607074811815,
video/Experiment/zh_sp01_Dr_Gr_4_NVocInAudio_GlobalThetaInVideo.avi,vocoded,plusVideo,sp01,Dr,Gr,4,3,1,flow/blocks/NVocInAudio_GlobalThetaInVideo_A.csv,,,,,,,,,0,3,3,3,0,16,16,23,,,,,,,,,-0.38333333333333336,0.08194444444444444,1,0,0,4.960022200000822,call2,0.002777777777777778,0.1,1,0,0,5.476761999998416,colour2,0.41805555555555557,-0.3388888888888889,1,0,0,6.12739860000147,number4,True,True,True,6,1,2019_Nov_11_1157,MA_Theta_Exp,3.0.7,60.14607074811815,
video/Experiment/zh_sp01_Dr_Gr_2_NVocInAudio_GlobalThetaInVideo.avi,vocoded,plusVideo,sp01,Dr,Gr,2,3,1,flow/blocks/NVocInAudio_GlobalThetaInVideo_A.csv,,,,,,,,,0,3,3,3,0,17,17,21,,,,,,,,,-0.3972222222222222,0.09861111111111111,1,0,0,5.4806184000044595,call2,-0.008333333333333333,0.09305555555555556,1,0,0,6.24729379999917,colour2,0.34305555555555556,0.13194444444444445,1,0,0,7.013676799993846,number2,True,True,True,6,1,2019_Nov_11_1157,MA_Theta_Exp,3.0.7,60.14607074811815,
video/Experiment/zh_sp01_Ad_We_2_NVocInAudio_GlobalThetaInVideo.avi,vocoded,plusVideo,sp01,Ad,We,2,3,1,flow/blocks/NVocInAudio_GlobalThetaInVideo_A.csv,,,,,,,,,0,3,3,3,0,18,18,13,,,,,,,,,-0.36944444444444446,0.3125,1,0,0,5.331496699996933,call1,0.0375,-0.37222222222222223,1,0,0,6.012118400001782,colour4,0.3861111111111111,0.09444444444444444,1,0,0,6.71138890000293,number2,True,True,True,6,1,2019_Nov_11_1157,MA_Theta_Exp,3.0.7,60.14607074811815,
video/Experiment/zh_sp07_Ad_Ro_3_NVocInAudio_GlobalThetaInVideo.avi,vocoded,plusVideo,sp07,Ad,Ro,3,3,1,flow/blocks/NVocInAudio_GlobalThetaInVideo_A.csv,,,,,,,,,0,3,3,3,0,19,19,10,,,,,,,,,-0.4263888888888889,0.33611111111111114,1,0,0,4.517613500000152,call1,0.008333333333333333,-0.075,1,0,0,5.218212500003574,colour3,0.4875,-0.12361111111111112,1,0,0,5.701255699998001,number3,True,True,True,6,1,2019_Nov_11_1157,MA_Theta_Exp,3.0.7,60.14607074811815,
video/Experiment/zh_sp07_Ad_Ro_4_NVocInAudio_GlobalThetaInVideo.avi,vocoded,plusVideo,sp07,Ad,Ro,4,3,1,flow/blocks/NVocInAudio_GlobalThetaInVideo_A.csv,,,,,,,,,0,3,3,3,0,20,20,11,,,,,,,,,-0.4083333333333333,0.30277777777777776,1,0,0,4.947428100000252,call1,-0.06805555555555555,-0.06805555555555555,1,0,0,5.664106500000344,colour3,0.4111111111111111,-0.3194444444444444,1,0,0,6.247312799998326,number4,True,True,True,6,1,2019_Nov_11_1157,MA_Theta_Exp,3.0.7,60.14607074811815,
video/Experiment/zh_sp07_Ad_We_1_NVocInAudio_GlobalThetaInVideo.avi,vocoded,plusVideo,sp07,Ad,We,1,3,1,flow/blocks/NVocInAudio_GlobalThetaInVideo_A.csv,,,,,,,,,0,3,3,3,0,21,21,12,,,,,,,,,-0.4166666666666667,0.3333333333333333,1,0,0,4.740624599995499,call1,-0.02638888888888889,-0.2777777777777778,1,0,0,5.640806099996553,colour4,0.37222222222222223,0.2875,1,0,0,6.673381300002802,number1,True,True,True,6,1,2019_Nov_11_1157,MA_Theta_Exp,3.0.7,60.14607074811815,
video/Experiment/zh_sp07_Ad_Ro_2_NVocInAudio_GlobalThetaInVideo.avi,vocoded,plusVideo,sp07,Ad,Ro,2,3,1,flow/blocks/NVocInAudio_GlobalThetaInVideo_A.csv,,,,,,,,,0,3,3,3,0,22,22,9,,,,,,,,,-0.3763888888888889,0.2833333333333333,1,0,0,4.60926450000261,call1,0.03194444444444444,-0.1361111111111111,1,0,0,5.24191179999616,colour3,0.35555555555555557,0.14722222222222223,1,0,0,5.825890200001595,number2,True,True,True,6,1,2019_Nov_11_1157,MA_Theta_Exp,3.0.7,60.14607074811815,
video/Experiment/zh_sp07_Ad_Gr_3_NVocInAudio_GlobalThetaInVideo.avi,vocoded,plusVideo,sp07,Ad,Gr,3,3,1,flow/blocks/NVocInAudio_GlobalThetaInVideo_A.csv,,,,,,,,,0,3,3,3,0,23,23,6,,,,,,,,,-0.3875,0.25833333333333336,1,0,0,4.533452700001362,call1,0.006944444444444444,0.10833333333333334,1,0,0,5.11688100000174,colour2,0.48333333333333334,-0.08611111111111111,1,0,0,5.666947500001697,number3,True,True,True,6,1,2019_Nov_11_1157,MA_Theta_Exp,3.0.7,60.14607074811815,
video/Experiment/zh_sp01_Dr_We_2_NVocInAudio_GlobalThetaInVideo.avi,vocoded,plusVideo,sp01,Dr,We,2,3,1,flow/blocks/NVocInAudio_GlobalThetaInVideo_A.csv,,,,,,,,,0,3,3,3,0,24,24,29,,,,,,,,,-0.35833333333333334,0.10277777777777777,1,0,0,4.969640300005267,call2,0.022222222222222223,-0.30416666666666664,1,0,0,5.652396099998441,colour4,0.36944444444444446,0.09166666666666666,1,0,0,6.319192500006466,number2,True,True,True,6,1,2019_Nov_11_1157,MA_Theta_Exp,3.0.7,60.14607074811815,
video/Experiment/zh_sp07_Dr_Ge_3_NVocInAudio_GlobalThetaInVideo.avi,vocoded,plusVideo,sp07,Dr,Ge,3,3,1,flow/blocks/NVocInAudio_GlobalThetaInVideo_A.csv,,,,,,,,,0,3,3,3,0,25,25,18,,,,,,,,,-0.4166666666666667,0.05694444444444444,1,0,0,4.8093623999957344,call2,0.02361111111111111,0.35138888888888886,1,0,0,5.40990459999739,colour1,0.4083333333333333,-0.044444444444444446,1,0,0,6.060432899997977,number3,True,True,True,6,1,2019_Nov_11_1157,MA_Theta_Exp,3.0.7,60.14607074811815,
video/Experiment/zh_sp07_Ad_Ge_1_NVocInAudio_GlobalThetaInVideo.avi,vocoded,plusVideo,sp07,Ad,Ge,1,3,1,flow/blocks/NVocInAudio_GlobalThetaInVideo_A.csv,,,,,,,,,0,3,3,3,0,26,26,0,,,,,,,,,-0.4597222222222222,0.07777777777777778,1,0,0,4.553728400002001,call2,-0.034722222222222224,0.3138888888888889,1,0,0,5.086204899998847,colour1,0.36527777777777776,0.32083333333333336,1,0,0,5.552766399996472,number1,False,True,True,6,1,2019_Nov_11_1157,MA_Theta_Exp,3.0.7,60.14607074811815,
video/Experiment/zh_sp01_Ad_Gr_4_NVocInAudio_GlobalThetaInVideo.avi,vocoded,plusVideo,sp01,Ad,Gr,4,3,1,flow/blocks/NVocInAudio_GlobalThetaInVideo_A.csv,,,,,,,,,0,3,3,3,0,27,27,7,,,,,,,,,-0.32916666666666666,0.28888888888888886,1,0,0,5.048736099997768,call1,-0.06805555555555555,0.14722222222222223,1,0,0,5.548604300005536,colour2,0.4388888888888889,-0.325,1,0,0,6.815118200000143,number4,True,True,True,6,1,2019_Nov_11_1157,MA_Theta_Exp,3.0.7,60.14607074811815,
video/Experiment/zh_sp01_Ad_Ge_2_NVocInAudio_GlobalThetaInVideo.avi,vocoded,plusVideo,sp01,Ad,Ge,2,3,1,flow/blocks/NVocInAudio_GlobalThetaInVideo_A.csv,,,,,,,,,0,3,3,3,0,28,28,1,,,,,,,,,-0.3902777777777778,0.1,1,0,0,5.705508300001384,call2,-0.015277777777777777,0.29444444444444445,1,0,0,6.305484900003648,colour1,0.39444444444444443,0.08888888888888889,1,0,0,6.877195599998231,number2,False,True,True,6,1,2019_Nov_11_1157,MA_Theta_Exp,3.0.7,60.14607074811815,
video/Experiment/zh_sp07_Dr_Ro_4_NVocInAudio_GlobalThetaInVideo.avi,vocoded,plusVideo,sp07,Dr,Ro,4,3,1,flow/blocks/NVocInAudio_GlobalThetaInVideo_A.csv,,,,,,,,,0,3,3,3,0,29,29,27,,,,,,,,,-0.375,0.09722222222222222,1,0,0,4.737159399999655,call2,-0.025,-0.09166666666666666,1,0,0,5.353709399998479,colour3,0.5069444444444444,-0.3055555555555556,1,0,0,5.853954300000623,number4,True,True,True,6,1,2019_Nov_11_1157,MA_Theta_Exp,3.0.7,60.14607074811815,
video/Experiment/zh_sp01_Dr_Ro_2_NVocInAudio_GlobalThetaInVideo.avi,vocoded,plusVideo,sp01,Dr,Ro,2,3,1,flow/blocks/NVocInAudio_GlobalThetaInVideo_A.csv,,,,,,,,,0,3,3,3,0,30,30,25,,,,,,,,,-0.3625,0.05694444444444444,1,0,0,5.03371199999674,call2,0.002777777777777778,-0.12222222222222222,1,0,0,5.566916499999934,colour3,0.4152777777777778,0.0763888888888889,1,0,0,6.150929399998859,number2,True,True,True,6,1,2019_Nov_11_1157,MA_Theta_Exp,3.0.7,60.14607074811815,
video/Experiment/zh_sp01_Dr_We_4_NVocInAudio_GlobalThetaInVideo.avi,vocoded,plusVideo,sp01,Dr,We,4,3,1,flow/blocks/NVocInAudio_GlobalThetaInVideo_A.csv,,,,,,,,,0,3,3,3,0,31,31,31,,,,,,,,,-0.4111111111111111,0.09861111111111111,1,0,0,5.127730000000156,call2,-0.011111111111111112,-0.27361111111111114,1,0,0,5.894024000001082,colour4,0.35138888888888886,-0.26944444444444443,1,0,0,6.577029699998093,number4,True,True,True,6,1,2019_Nov_11_1157,MA_Theta_Exp,3.0.7,60.14607074811815,
video/Experiment/zh_sp01_Dr_Ro_2_NoThetaInAudio_NoVideo.avi,noTheta,noVideo,sp01,Dr,Ro,2,4,4,flow/blocks/NoThetaInAudio_NoVideo_A.csv,,,,,,,,,0,4,4,4,0,0,0,25,,,,,,,,,-0.3958333333333333,0.2652777777777778,1,0,0,5.682219399997848,call1,0.020833333333333332,-0.09583333333333334,1,0,0,6.497572399995988,colour3,0.4236111111111111,0.10416666666666667,1,0,0,7.380592000001343,number2,False,True,True,6,1,2019_Nov_11_1157,MA_Theta_Exp,3.0.7,60.14607074811815,
video/Experiment/zh_sp01_Ad_We_3_NoThetaInAudio_NoVideo.avi,noTheta,noVideo,sp01,Ad,We,3,4,4,flow/blocks/NoThetaInAudio_NoVideo_A.csv,,,,,,,,,0,4,4,4,0,1,1,14,,,,,,,,,-0.4486111111111111,0.2902777777777778,1,0,0,5.466641600003641,call1,-0.008333333333333333,-0.33611111111111114,1,0,0,6.28314560000581,colour4,0.37916666666666665,0.05555555555555555,1,0,0,6.883372699994652,number2,True,True,False,6,1,2019_Nov_11_1157,MA_Theta_Exp,3.0.7,60.14607074811815,
video/Experiment/zh_sp07_Dr_Ro_1_NoThetaInAudio_NoVideo.avi,noTheta,noVideo,sp07,Dr,Ro,1,4,4,flow/blocks/NoThetaInAudio_NoVideo_A.csv,,,,,,,,,0,4,4,4,0,2,2,24,,,,,,,,,-0.4486111111111111,0.28888888888888886,1,0,0,4.921353999998246,call1,-0.018055555555555554,0.29305555555555557,1,0,0,5.537939699999697,colour1,0.4263888888888889,0.12361111111111112,1,0,0,6.071280899996054,number2,False,False,False,6,1,2019_Nov_11_1157,MA_Theta_Exp,3.0.7,60.14607074811815,
video/Experiment/zh_sp01_Ad_We_4_NoThetaInAudio_NoVideo.avi,noTheta,noVideo,sp01,Ad,We,4,4,4,flow/blocks/NoThetaInAudio_NoVideo_A.csv,,,,,,,,,0,4,4,4,0,3,3,15,,,,,,,,,-0.4083333333333333,0.1375,1,0,0,5.618547799997032,call2,0.030555555555555555,0.25972222222222224,1,0,0,6.801637900003698,colour1,0.3902777777777778,-0.32083333333333336,1,0,0,7.584468100001686,number4,False,False,True,6,1,2019_Nov_11_1157,MA_Theta_Exp,3.0.7,60.14607074811815,
video/Experiment/zh_sp07_Dr_Gr_3_NoThetaInAudio_NoVideo.avi,noTheta,noVideo,sp07,Dr,Gr,3,4,4,flow/blocks/NoThetaInAudio_NoVideo_A.csv,,,,,,,,,0,4,4,4,0,4,4,22,,,,,,,,,-0.3597222222222222,0.08333333333333333,1,0,0,5.068134299996018,call2,0.09305555555555556,-0.30972222222222223,1,0,0,5.701535699998203,colour4,0.475,-0.1361111111111111,1,0,0,6.6853768000000855,number3,True,False,True,6,1,2019_Nov_11_1157,MA_Theta_Exp,3.0.7,60.14607074811815,
video/Experiment/zh_sp07_Ad_Gr_1_NoThetaInAudio_NoVideo.avi,noTheta,noVideo,sp07,Ad,Gr,1,4,4,flow/blocks/NoThetaInAudio_NoVideo_A.csv,,,,,,,,,0,4,4,4,0,5,5,4,,,,,,,,,-0.39861111111111114,0.3,1,0,0,4.86080519999814,call1,0.04583333333333333,0.12777777777777777,1,0,0,5.410486299995682,colour2,0.4638888888888889,0.29583333333333334,1,0,0,5.910911200000555,number1,True,True,True,6,1,2019_Nov_11_1157,MA_Theta_Exp,3.0.7,60.14607074811815,
video/Experiment/zh_sp01_Ad_We_2_NoThetaInAudio_NoVideo.avi,noTheta,noVideo,sp01,Ad,We,2,4,4,flow/blocks/NoThetaInAudio_NoVideo_A.csv,,,,,,,,,0,4,4,4,0,6,6,13,,,,,,,,,-0.3736111111111111,0.26666666666666666,1,0,0,5.3498091000001295,call1,-0.05,-0.09166666666666666,1,0,0,5.96601379999629,colour3,0.39861111111111114,0.125,1,0,0,6.4998728999999,number2,True,False,True,6,1,2019_Nov_11_1157,MA_Theta_Exp,3.0.7,60.14607074811815,
video/Experiment/zh_sp07_Ad_Gr_2_NoThetaInAudio_NoVideo.avi,noTheta,noVideo,sp07,Ad,Gr,2,4,4,flow/blocks/NoThetaInAudio_NoVideo_A.csv,,,,,,,,,0,4,4,4,0,7,7,5,,,,,,,,,-0.47638888888888886,0.3486111111111111,1,0,0,4.638246200003778,call1,-0.06666666666666667,0.1125,1,0,0,5.354685400001472,colour2,0.4013888888888889,0.08055555555555556,1,0,0,5.988048999999592,number2,True,True,True,6,1,2019_Nov_11_1157,MA_Theta_Exp,3.0.7,60.14607074811815,
video/Experiment/zh_sp01_Ad_Ro_4_NoThetaInAudio_NoVideo.avi,noTheta,noVideo,sp01,Ad,Ro,4,4,4,flow/blocks/NoThetaInAudio_NoVideo_A.csv,,,,,,,,,0,4,4,4,0,8,8,11,,,,,,,,,-0.39444444444444443,0.05416666666666667,1,0,0,5.132546999993792,call2,-0.07083333333333333,0.09027777777777778,1,0,0,5.562497999999323,colour2,0.4666666666666667,-0.2763888888888889,1,0,0,6.295824299995729,number4,False,False,True,6,1,2019_Nov_11_1157,MA_Theta_Exp,3.0.7,60.14607074811815,
video/Experiment/zh_sp01_Ad_Ge_3_NoThetaInAudio_NoVideo.avi,noTheta,noVideo,sp01,Ad,Ge,3,4,4,flow/blocks/NoThetaInAudio_NoVideo_A.csv,,,,,,,,,0,4,4,4,0,9,9,2,,,,,,,,,-0.4263888888888889,0.13194444444444445,1,0,0,5.257877099997131,call2,-0.034722222222222224,0.25,1,0,0,5.8576595000049565,colour1,0.3736111111111111,-0.09722222222222222,1,0,0,6.50757120000344,number3,False,True,True,6,1,2019_Nov_11_1157,MA_Theta_Exp,3.0.7,60.14607074811815,
video/Experiment/zh_sp07_Dr_Gr_1_NoThetaInAudio_NoVideo.avi,noTheta,noVideo,sp07,Dr,Gr,1,4,4,flow/blocks/NoThetaInAudio_NoVideo_A.csv,,,,,,,,,0,4,4,4,0,10,10,20,,,,,,,,,-0.4527777777777778,0.08472222222222223,1,0,0,4.48185700000613,call2,-0.02361111111111111,0.11527777777777778,1,0,0,4.897633500004304,colour2,0.4388888888888889,0.33055555555555555,1,0,0,5.331133200001204,number1,True,True,True,6,1,2019_Nov_11_1157,MA_Theta_Exp,3.0.7,60.14607074811815,
video/Experiment/zh_sp07_Dr_We_4_NoThetaInAudio_NoVideo.avi,noTheta,noVideo,sp07,Dr,We,4,4,4,flow/blocks/NoThetaInAudio_NoVideo_A.csv,,,,,,,,,0,4,4,4,0,11,11,31,,,,,,,,,-0.43333333333333335,0.3125,1,0,0,4.5728311999992,call1,-0.004166666666666667,0.12361111111111112,1,0,0,5.089483799994923,colour2,0.4027777777777778,-0.2902777777777778,1,0,0,6.0062744000024395,number4,False,False,True,6,1,2019_Nov_11_1157,MA_Theta_Exp,3.0.7,60.14607074811815,
video/Experiment/zh_sp01_Ad_We_1_NoThetaInAudio_NoVideo.avi,noTheta,noVideo,sp01,Ad,We,1,4,4,flow/blocks/NoThetaInAudio_NoVideo_A.csv,,,,,,,,,0,4,4,4,0,12,12,12,,,,,,,,,-0.3861111111111111,0.34305555555555556,1,0,0,5.052614400003222,call1,0.02638888888888889,0.30972222222222223,1,0,0,5.55233749999752,colour1,0.4111111111111111,0.09444444444444444,1,0,0,6.068799799999397,number2,True,False,False,6,1,2019_Nov_11_1157,MA_Theta_Exp,3.0.7,60.14607074811815,
video/Experiment/zh_sp07_Ad_Ro_2_NoThetaInAudio_NoVideo.avi,noTheta,noVideo,sp07,Ad,Ro,2,4,4,flow/blocks/NoThetaInAudio_NoVideo_A.csv,,,,,,,,,0,4,4,4,0,13,13,9,,,,,,,,,-0.375,0.30972222222222223,1,0,0,4.524702499998966,call1,-0.0125,-0.12083333333333333,1,0,0,5.25488690000202,colour3,0.35694444444444445,0.06111111111111111,1,0,0,5.771141400000488,number2,True,True,True,6,1,2019_Nov_11_1157,MA_Theta_Exp,3.0.7,60.14607074811815,
video/Experiment/zh_sp01_Dr_Ro_3_NoThetaInAudio_NoVideo.avi,noTheta,noVideo,sp01,Dr,Ro,3,4,4,flow/blocks/NoThetaInAudio_NoVideo_A.csv,,,,,,,,,0,4,4,4,0,14,14,26,,,,,,,,,-0.39861111111111114,0.10972222222222222,1,0,0,5.210777000000235,call2,-0.025,0.2847222222222222,1,0,0,5.777024700000766,colour1,0.39861111111111114,-0.1,1,0,0,6.411000799998874,number3,True,False,True,6,1,2019_Nov_11_1157,MA_Theta_Exp,3.0.7,60.14607074811815,
video/Experiment/zh_sp01_Dr_Ge_3_NoThetaInAudio_NoVideo.avi,noTheta,noVideo,sp01,Dr,Ge,3,4,4,flow/blocks/NoThetaInAudio_NoVideo_A.csv,,,,,,,,,0,4,4,4,0,15,15,18,,,,,,,,,-0.4375,0.07361111111111111,1,0,0,5.319893500003673,call2,0.006944444444444444,0.2833333333333333,1,0,0,6.138051200003247,colour1,0.32916666666666666,-0.14166666666666666,1,0,0,6.903393100001267,number3,True,True,True,6,1,2019_Nov_11_1157,MA_Theta_Exp,3.0.7,60.14607074811815,
video/Experiment/zh_sp07_Dr_Ge_4_NoThetaInAudio_NoVideo.avi,noTheta,noVideo,sp07,Dr,Ge,4,4,4,flow/blocks/NoThetaInAudio_NoVideo_A.csv,,,,,,,,,0,4,4,4,0,16,16,19,,,,,,,,,-0.3388888888888889,0.2708333333333333,1,0,0,5.018073100000038,call1,-0.0125,-0.07777777777777778,1,0,0,5.94573610000225,colour3,0.4125,-0.11388888888888889,1,0,0,7.112240599999495,number3,False,False,False,6,1,2019_Nov_11_1157,MA_Theta_Exp,3.0.7,60.14607074811815,
video/Experiment/zh_sp01_Ad_Ro_3_NoThetaInAudio_NoVideo.avi,noTheta,noVideo,sp01,Ad,Ro,3,4,4,flow/blocks/NoThetaInAudio_NoVideo_A.csv,,,,,,,,,0,4,4,4,0,17,17,10,,,,,,,,,-0.3763888888888889,0.3111111111111111,1,0,0,5.314926599996397,call1,-0.03611111111111111,-0.05138888888888889,1,0,0,5.998325499997009,colour3,0.45416666666666666,-0.12222222222222222,1,0,0,6.44843640000181,number3,True,True,True,6,1,2019_Nov_11_1157,MA_Theta_Exp,3.0.7,60.14607074811815,
video/Experiment/zh_sp07_Dr_Gr_2_NoThetaInAudio_NoVideo.avi,noTheta,noVideo,sp07,Dr,Gr,2,4,4,flow/blocks/NoThetaInAudio_NoVideo_A.csv,,,,,,,,,0,4,4,4,0,18,18,21,,,,,,,,,-0.3333333333333333,0.2625,1,0,0,6.352003599997261,call1,0.027777777777777776,0.12638888888888888,1,0,0,7.235463400000299,colour2,0.4666666666666667,0.058333333333333334,1,0,0,8.001694899998256,number2,False,True,True,6,1,2019_Nov_11_1157,MA_Theta_Exp,3.0.7,60.14607074811815,
video/Experiment/zh_sp07_Ad_Ge_2_NoThetaInAudio_NoVideo.avi,noTheta,noVideo,sp07,Ad,Ge,2,4,4,flow/blocks/NoThetaInAudio_NoVideo_A.csv,,,,,,,,,0,4,4,4,0,19,19,1,,,,,,,,,-0.4597222222222222,0.30416666666666664,1,0,0,4.412909300001047,call1,-0.03333333333333333,0.058333333333333334,1,0,0,5.045614099995873,colour2,0.4638888888888889,0.2638888888888889,1,0,0,5.779491599998437,number1,True,False,False,6,1,2019_Nov_11_1157,MA_Theta_Exp,3.0.7,60.14607074811815,
video/Experiment/zh_sp07_Dr_Ge_1_NoThetaInAudio_NoVideo.avi,noTheta,noVideo,sp07,Dr,Ge,1,4,4,flow/blocks/NoThetaInAudio_NoVideo_A.csv,,,,,,,,,0,4,4,4,0,20,20,16,,,,,,,,,-0.42083333333333334,0.26944444444444443,1,0,0,4.431127399999241,call1,0.09583333333333334,0.1125,1,0,0,5.047280200000387,colour2,0.4013888888888889,0.2861111111111111,1,0,0,6.097090000002936,number1,False,False,True,6,1,2019_Nov_11_1157,MA_Theta_Exp,3.0.7,60.14607074811815,
video/Experiment/zh_sp07_Ad_Gr_4_NoThetaInAudio_NoVideo.avi,noTheta,noVideo,sp07,Ad,Gr,4,4,4,flow/blocks/NoThetaInAudio_NoVideo_A.csv,,,,,,,,,0,4,4,4,0,21,21,7,,,,,,,,,-0.45,0.2972222222222222,1,0,0,4.40288700000383,call1,-0.05555555555555555,0.15,1,0,0,4.936324499998591,colour2,0.39861111111111114,-0.31666666666666665,1,0,0,5.570172800005821,number4,True,True,True,6,1,2019_Nov_11_1157,MA_Theta_Exp,3.0.7,60.14607074811815,
video/Experiment/zh_sp07_Ad_Ge_1_NoThetaInAudio_NoVideo.avi,noTheta,noVideo,sp07,Ad,Ge,1,4,4,flow/blocks/NoThetaInAudio_NoVideo_A.csv,,,,,,,,,0,4,4,4,0,22,22,0,,,,,,,,,-0.3861111111111111,0.2763888888888889,1,0,0,6.250444700002845,call1,-0.06527777777777778,0.05555555555555555,1,0,0,8.466790099999344,colour2,0.3902777777777778,0.32222222222222224,1,0,0,9.249065600000904,number1,True,False,True,6,1,2019_Nov_11_1157,MA_Theta_Exp,3.0.7,60.14607074811815,
video/Experiment/zh_sp01_Dr_We_3_NoThetaInAudio_NoVideo.avi,noTheta,noVideo,sp01,Dr,We,3,4,4,flow/blocks/NoThetaInAudio_NoVideo_A.csv,,,,,,,,,0,4,4,4,0,23,23,30,,,,,,,,,-0.425,0.15416666666666667,1,0,0,5.570774799998617,call2,-0.04027777777777778,0.03333333333333333,1,0,0,6.586868600003072,colour2,0.3638888888888889,-0.1,1,0,0,7.402105699999083,number3,True,False,True,6,1,2019_Nov_11_1157,MA_Theta_Exp,3.0.7,60.14607074811815,
video/Experiment/zh_sp07_Ad_Ro_1_NoThetaInAudio_NoVideo.avi,noTheta,noVideo,sp07,Ad,Ro,1,4,4,flow/blocks/NoThetaInAudio_NoVideo_A.csv,,,,,,,,,0,4,4,4,0,24,24,8,,,,,,,,,-0.39166666666666666,0.15416666666666667,1,0,0,4.532869100003154,call2,-0.06527777777777778,0.23055555555555557,1,0,0,5.131441400000767,colour1,0.43472222222222223,0.29583333333333334,1,0,0,6.014971600001445,number1,False,False,True,6,1,2019_Nov_11_1157,MA_Theta_Exp,3.0.7,60.14607074811815,
video/Experiment/zh_sp07_Dr_Ge_2_NoThetaInAudio_NoVideo.avi,noTheta,noVideo,sp07,Dr,Ge,2,4,4,flow/blocks/NoThetaInAudio_NoVideo_A.csv,,,,,,,,,0,4,4,4,0,25,25,17,,,,,,,,,-0.3472222222222222,0.06805555555555555,1,0,0,4.619672799999535,call2,0.005555555555555556,0.09027777777777778,1,0,0,5.036925600004906,colour2,0.43472222222222223,0.3388888888888889,1,0,0,5.619734599997173,number1,True,False,False,6,1,2019_Nov_11_1157,MA_Theta_Exp,3.0.7,60.14607074811815,
video/Experiment/zh_sp01_Dr_We_2_NoThetaInAudio_NoVideo.avi,noTheta,noVideo,sp01,Dr,We,2,4,4,flow/blocks/NoThetaInAudio_NoVideo_A.csv,,,,,,,,,0,4,4,4,0,26,26,29,,,,,,,,,-0.4305555555555556,0.10694444444444444,1,0,0,5.534178999994765,call2,-0.09305555555555556,-0.05694444444444444,1,0,0,6.118948800001817,colour3,0.41388888888888886,0.07777777777777778,1,0,0,7.300069900004019,number2,True,False,True,6,1,2019_Nov_11_1157,MA_Theta_Exp,3.0.7,60.14607074811815,
video/Experiment/zh_sp07_Ad_Ge_4_NoThetaInAudio_NoVideo.avi,noTheta,noVideo,sp07,Ad,Ge,4,4,4,flow/blocks/NoThetaInAudio_NoVideo_A.csv,,,,,,,,,0,4,4,4,0,27,27,3,,,,,,,,,-0.4,0.09027777777777778,1,0,0,5.353523599995242,call2,-0.02361111111111111,0.07777777777777778,1,0,0,6.18658609999693,colour2,0.43194444444444446,-0.3263888888888889,1,0,0,7.153194999998959,number4,False,False,True,6,1,2019_Nov_11_1157,MA_Theta_Exp,3.0.7,60.14607074811815,
video/Experiment/zh_sp01_Dr_Ro_4_NoThetaInAudio_NoVideo.avi,noTheta,noVideo,sp01,Dr,Ro,4,4,4,flow/blocks/NoThetaInAudio_NoVideo_A.csv,,,,,,,,,0,4,4,4,0,28,28,27,,,,,,,,,-0.3875,0.1111111111111111,1,0,0,5.380134999999427,call2,0.025,0.23194444444444445,1,0,0,6.329390799997782,colour1,0.40555555555555556,-0.35138888888888886,1,0,0,8.002367400004005,number4,True,False,True,6,1,2019_Nov_11_1157,MA_Theta_Exp,3.0.7,60.14607074811815,
video/Experiment/zh_sp01_Dr_We_1_NoThetaInAudio_NoVideo.avi,noTheta,noVideo,sp01,Dr,We,1,4,4,flow/blocks/NoThetaInAudio_NoVideo_A.csv,,,,,,,,,0,4,4,4,0,29,29,28,,,,,,,,,-0.48194444444444445,0.09722222222222222,1,0,0,5.200342900003307,call2,-0.06111111111111111,0.3194444444444444,1,0,0,5.666106200005743,colour1,0.42083333333333334,0.27361111111111114,1,0,0,6.43269209999562,number1,True,False,True,6,1,2019_Nov_11_1157,MA_Theta_Exp,3.0.7,60.14607074811815,
video/Experiment/zh_sp01_Ad_Gr_3_NoThetaInAudio_NoVideo.avi,noTheta,noVideo,sp01,Ad,Gr,3,4,4,flow/blocks/NoThetaInAudio_NoVideo_A.csv,,,,,,,,,0,4,4,4,0,30,30,6,,,,,,,,,-0.4486111111111111,0.32222222222222224,1,0,0,5.185094600004959,call1,-0.0763888888888889,0.2861111111111111,1,0,0,5.634851800001343,colour1,0.3819444444444444,-0.09861111111111111,1,0,0,6.2010104000000865,number3,True,False,True,6,1,2019_Nov_11_1157,MA_Theta_Exp,3.0.7,60.14607074811815,
video/Experiment/zh_sp01_Dr_Gr_4_NoThetaInAudio_NoVideo.avi,noTheta,noVideo,sp01,Dr,Gr,4,4,4,flow/blocks/NoThetaInAudio_NoVideo_A.csv,,,,,,,,,0,4,4,4,0,31,31,23,,,,,,,,,-0.4583333333333333,0.11805555555555555,1,0,0,6.436044699999911,call2,0.04583333333333333,0.05694444444444444,1,0,0,6.869322700003977,colour2,0.4263888888888889,-0.33194444444444443,1,0,0,7.553238100001181,number4,True,True,True,6,1,2019_Nov_11_1157,MA_Theta_Exp,3.0.7,60.14607074811815,
video/Experiment/zh_sp01_Un_We_4_NVocInAudio_GlobalThetaInVideo.avi,vocoded,plusVideo,sp01,Un,We,4,0,1,flow/blocks/NVocInAudio_GlobalThetaInVideo_B.csv,,,,,,,,,,,,,,,,,0,0,0,0,0,0,0,31,-0.3402777777777778,-0.12916666666666668,1,0,0,9.826731000001018,call3,0.02361111111111111,0.08611111111111111,1,0,0,12.759706400000141,colour2,,,,,,,,False,False,NO_ANSW,6,1,2019_Nov_11_1157,MA_Theta_Exp,3.0.7,60.14607074811815,
video/Experiment/zh_sp07_Ti_Gr_4_NVocInAudio_GlobalThetaInVideo.avi,vocoded,plusVideo,sp07,Ti,Gr,4,0,1,flow/blocks/NVocInAudio_GlobalThetaInVideo_B.csv,,,,,,,,,,,,,,,,,0,0,0,0,0,1,1,7,-0.46111111111111114,-0.1125,1,0,0,5.133043900001212,call3,-0.15138888888888888,0.03194444444444444,1,0,0,5.67998880000232,colour2,0.48055555555555557,-0.2847222222222222,1,0,0,6.780608300003223,number4,True,True,True,6,1,2019_Nov_11_1157,MA_Theta_Exp,3.0.7,60.14607074811815,
video/Experiment/zh_sp07_Ti_Gr_2_NVocInAudio_GlobalThetaInVideo.avi,vocoded,plusVideo,sp07,Ti,Gr,2,0,1,flow/blocks/NVocInAudio_GlobalThetaInVideo_B.csv,,,,,,,,,,,,,,,,,0,0,0,0,0,2,2,5,-0.375,-0.10555555555555556,1,0,0,4.504319400002714,call3,-0.04027777777777778,0.13055555555555556,1,0,0,5.237373200005095,colour2,0.39305555555555555,0.11805555555555555,1,0,0,6.17071759999817,number2,True,True,True,6,1,2019_Nov_11_1157,MA_Theta_Exp,3.0.7,60.14607074811815,
video/Experiment/zh_sp01_Un_Ro_4_NVocInAudio_GlobalThetaInVideo.avi,vocoded,plusVideo,sp01,Un,Ro,4,0,1,flow/blocks/NVocInAudio_GlobalThetaInVideo_B.csv,,,,,,,,,,,,,,,,,0,0,0,0,0,3,3,27,-0.3736111111111111,-0.29305555555555557,1,0,0,6.0985695000053965,call4,0.011111111111111112,0.28055555555555556,1,0,0,7.397961099995882,colour1,0.36527777777777776,-0.2902777777777778,1,0,0,8.31487119999656,number4,True,False,True,6,1,2019_Nov_11_1157,MA_Theta_Exp,3.0.7,60.14607074811815,
video/Experiment/zh_sp01_Un_We_1_NVocInAudio_GlobalThetaInVideo.avi,vocoded,plusVideo,sp01,Un,We,1,0,1,flow/blocks/NVocInAudio_GlobalThetaInVideo_B.csv,,,,,,,,,,,,,,,,,0,0,0,0,0,4,4,28,-0.4305555555555556,-0.30694444444444446,1,0,0,5.637401499996486,call4,-0.05416666666666667,-0.29583333333333334,1,0,0,6.187075800000457,colour4,0.4027777777777778,0.275,1,0,0,6.920967100006237,number1,True,True,True,6,1,2019_Nov_11_1157,MA_Theta_Exp,3.0.7,60.14607074811815,
video/Experiment/zh_sp01_Ti_Gr_1_NVocInAudio_GlobalThetaInVideo.avi,vocoded,plusVideo,sp01,Ti,Gr,1,0,1,flow/blocks/NVocInAudio_GlobalThetaInVideo_B.csv,,,,,,,,,,,,,,,,,0,0,0,0,0,5,5,4,-0.35694444444444445,-0.06805555555555555,1,0,0,5.130062299998826,call3,0.018055555555555554,0.1111111111111111,1,0,0,5.646266499999911,colour2,0.4013888888888889,0.3402777777777778,1,0,0,6.246331599999394,number1,True,True,True,6,1,2019_Nov_11_1157,MA_Theta_Exp,3.0.7,60.14607074811815,
video/Experiment/zh_sp01_Un_Ro_2_NVocInAudio_GlobalThetaInVideo.avi,vocoded,plusVideo,sp01,Un,Ro,2,0,1,flow/blocks/NVocInAudio_GlobalThetaInVideo_B.csv,,,,,,,,,,,,,,,,,0,0,0,0,0,6,6,25,-0.4513888888888889,-0.3055555555555556,1,0,0,5.334694299999683,call4,-0.018055555555555554,0.09583333333333334,1,0,0,6.199749300001713,colour2,0.3819444444444444,0.10138888888888889,1,0,0,6.666329100000439,number2,True,False,True,6,1,2019_Nov_11_1157,MA_Theta_Exp,3.0.7,60.14607074811815,
video/Experiment/zh_sp01_Ti_Ro_1_NVocInAudio_GlobalThetaInVideo.avi,vocoded,plusVideo,sp01,Ti,Ro,1,0,1,flow/blocks/NVocInAudio_GlobalThetaInVideo_B.csv,,,,,,,,,,,,,,,,,0,0,0,0,0,7,7,8,-0.3277777777777778,-0.09027777777777778,1,0,0,5.549290900002234,call3,0.018055555555555554,-0.06388888888888888,1,0,0,6.23278730000311,colour3,0.39166666666666666,0.2763888888888889,1,0,0,6.749312699997972,number1,True,True,True,6,1,2019_Nov_11_1157,MA_Theta_Exp,3.0.7,60.14607074811815,
video/Experiment/zh_sp07_Ti_We_1_NVocInAudio_GlobalThetaInVideo.avi,vocoded,plusVideo,sp07,Ti,We,1,0,1,flow/blocks/NVocInAudio_GlobalThetaInVideo_B.csv,,,,,,,,,,,,,,,,,0,0,0,0,0,8,8,12,-0.37083333333333335,-0.16944444444444445,1,0,0,4.806971500001964,call3,-0.06944444444444445,-0.33194444444444443,1,0,0,5.323007900005905,colour4,0.3527777777777778,0.2986111111111111,1,0,0,5.939708300000348,number1,True,True,True,6,1,2019_Nov_11_1157,MA_Theta_Exp,3.0.7,60.14607074811815,
video/Experiment/zh_sp07_Un_Gr_3_NVocInAudio_GlobalThetaInVideo.avi,vocoded,plusVideo,sp07,Un,Gr,3,0,1,flow/blocks/NVocInAudio_GlobalThetaInVideo_B.csv,,,,,,,,,,,,,,,,,0,0,0,0,0,9,9,22,-0.4305555555555556,-0.32222222222222224,1,0,0,4.634615599999961,call4,-0.025,0.125,1,0,0,5.367195499995432,colour2,0.3902777777777778,-0.09722222222222222,1,0,0,5.952008600004774,number3,True,True,True,6,1,2019_Nov_11_1157,MA_Theta_Exp,3.0.7,60.14607074811815,
video/Experiment/zh_sp07_Ti_We_4_NVocInAudio_GlobalThetaInVideo.avi,vocoded,plusVideo,sp07,Ti,We,4,0,1,flow/blocks/NVocInAudio_GlobalThetaInVideo_B.csv,,,,,,,,,,,,,,,,,0,0,0,0,0,10,10,15,-0.4041666666666667,-0.125,1,0,0,4.638424299999315,call3,-0.027777777777777776,-0.29444444444444445,1,0,0,5.171299599998747,colour4,0.3333333333333333,-0.31666666666666665,1,0,0,5.754629399998521,number4,True,True,True,6,1,2019_Nov_11_1157,MA_Theta_Exp,3.0.7,60.14607074811815,
video/Experiment/zh_sp01_Un_We_3_NVocInAudio_GlobalThetaInVideo.avi,vocoded,plusVideo,sp01,Un,We,3,0,1,flow/blocks/NVocInAudio_GlobalThetaInVideo_B.csv,,,,,,,,,,,,,,,,,0,0,0,0,0,11,11,30,-0.4097222222222222,-0.25277777777777777,1,0,0,5.19950229999813,call4,0.09722222222222222,-0.2847222222222222,1,0,0,5.932627400005003,colour4,0.3,-0.11805555555555555,1,0,0,7.03252789999533,number3,True,True,True,6,1,2019_Nov_11_1157,MA_Theta_Exp,3.0.7,60.14607074811815,
video/Experiment/zh_sp07_Ti_We_3_NVocInAudio_GlobalThetaInVideo.avi,vocoded,plusVideo,sp07,Ti,We,3,0,1,flow/blocks/NVocInAudio_GlobalThetaInVideo_B.csv,,,,,,,,,,,,,,,,,0,0,0,0,0,12,12,14,-0.41944444444444445,-0.08888888888888889,1,0,0,4.75194460000057,call3,0.0375,-0.36666666666666664,1,0,0,5.36856059999991,colour4,0.36944444444444446,-0.15,1,0,0,5.918630899999698,number3,True,True,True,6,1,2019_Nov_11_1157,MA_Theta_Exp,3.0.7,60.14607074811815,
video/Experiment/zh_sp01_Un_Ge_3_NVocInAudio_GlobalThetaInVideo.avi,vocoded,plusVideo,sp01,Un,Ge,3,0,1,flow/blocks/NVocInAudio_GlobalThetaInVideo_B.csv,,,,,,,,,,,,,,,,,0,0,0,0,0,13,13,18,-0.35833333333333334,-0.3763888888888889,1,0,0,4.98479270000098,call4,0.009722222222222222,0.325,1,0,0,5.913686699997925,colour1,0.4125,-0.07222222222222222,1,0,0,6.663128599997435,number3,True,True,True,6,1,2019_Nov_11_1157,MA_Theta_Exp,3.0.7,60.14607074811815,
video/Experiment/zh_sp07_Ti_Gr_3_NVocInAudio_GlobalThetaInVideo.avi,vocoded,plusVideo,sp07,Ti,Gr,3,0,1,flow/blocks/NVocInAudio_GlobalThetaInVideo_B.csv,,,,,,,,,,,,,,,,,0,0,0,0,0,14,14,6,-0.4166666666666667,-0.10555555555555556,1,0,0,4.558675400003267,call3,0.06111111111111111,0.09027777777777778,1,0,0,5.575408500000776,colour2,0.35138888888888886,-0.0763888888888889,1,0,0,6.075316599999496,number3,True,True,True,6,1,2019_Nov_11_1157,MA_Theta_Exp,3.0.7,60.14607074811815,
video/Experiment/zh_sp07_Ti_Ge_4_NVocInAudio_GlobalThetaInVideo.avi,vocoded,plusVideo,sp07,Ti,Ge,4,0,1,flow/blocks/NVocInAudio_GlobalThetaInVideo_B.csv,,,,,,,,,,,,,,,,,0,0,0,0,0,15,15,3,-0.4236111111111111,-0.06111111111111111,1,0,0,4.601351599994814,call3,0.005555555555555556,0.28888888888888886,1,0,0,5.284699299998465,colour1,0.3875,-0.2791666666666667,1,0,0,6.101130500006548,number4,True,True,True,6,1,2019_Nov_11_1157,MA_Theta_Exp,3.0.7,60.14607074811815,
video/Experiment/zh_sp01_Ti_Ro_4_NVocInAudio_GlobalThetaInVideo.avi,vocoded,plusVideo,sp01,Ti,Ro,4,0,1,flow/blocks/NVocInAudio_GlobalThetaInVideo_B.csv,,,,,,,,,,,,,,,,,0,0,0,0,0,16,16,11,-0.3,-0.14027777777777778,1,0,0,5.104265100002522,call3,-0.016666666666666666,-0.15416666666666667,1,0,0,5.987576600004104,colour3,0.4083333333333333,-0.3375,1,0,0,6.770636399996874,number4,True,True,True,6,1,2019_Nov_11_1157,MA_Theta_Exp,3.0.7,60.14607074811815,
video/Experiment/zh_sp01_Ti_Ro_3_NVocInAudio_GlobalThetaInVideo.avi,vocoded,plusVideo,sp01,Ti,Ro,3,0,1,flow/blocks/NVocInAudio_GlobalThetaInVideo_B.csv,,,,,,,,,,,,,,,,,0,0,0,0,0,17,17,10,-0.375,-0.13194444444444445,1,0,0,4.731800500005193,call3,-0.05416666666666667,-0.12222222222222222,1,0,0,5.115291900001466,colour3,0.2972222222222222,-0.11805555555555555,1,0,0,5.631379400001606,number3,True,True,True,6,1,2019_Nov_11_1157,MA_Theta_Exp,3.0.7,60.14607074811815,
video/Experiment/zh_sp01_Ti_We_2_NVocInAudio_GlobalThetaInVideo.avi,vocoded,plusVideo,sp01,Ti,We,2,0,1,flow/blocks/NVocInAudio_GlobalThetaInVideo_B.csv,,,,,,,,,,,,,,,,,0,0,0,0,0,18,18,13,-0.37083333333333335,-0.15138888888888888,1,0,0,5.324189899998601,call3,-0.016666666666666666,-0.29444444444444445,1,0,0,5.890668500003812,colour4,0.37083333333333335,0.10694444444444444,1,0,0,6.540652100004081,number2,True,True,True,6,1,2019_Nov_11_1157,MA_Theta_Exp,3.0.7,60.14607074811815,
video/Experiment/zh_sp07_Un_Ge_1_NVocInAudio_GlobalThetaInVideo.avi,vocoded,plusVideo,sp07,Un,Ge,1,0,1,flow/blocks/NVocInAudio_GlobalThetaInVideo_B.csv,,,,,,,,,,,,,,,,,0,0,0,0,0,19,19,16,-0.37083333333333335,-0.3958333333333333,1,0,0,4.249649400000635,call4,-0.027777777777777776,0.27361111111111114,1,0,0,5.099614300001122,colour1,0.4236111111111111,0.30416666666666664,1,0,0,5.532811600001878,number1,True,True,True,6,1,2019_Nov_11_1157,MA_Theta_Exp,3.0.7,60.14607074811815,
video/Experiment/zh_sp01_Ti_Ge_1_NVocInAudio_GlobalThetaInVideo.avi,vocoded,plusVideo,sp01,Ti,Ge,1,0,1,flow/blocks/NVocInAudio_GlobalThetaInVideo_B.csv,,,,,,,,,,,,,,,,,0,0,0,0,0,20,20,0,-0.3347222222222222,-0.09861111111111111,1,0,0,5.179925500000536,call3,0.030555555555555555,0.35,1,0,0,5.882438900000125,colour1,0.44027777777777777,0.2986111111111111,1,0,0,6.314965899997333,number1,True,True,True,6,1,2019_Nov_11_1157,MA_Theta_Exp,3.0.7,60.14607074811815,
video/Experiment/zh_sp01_Un_Ge_4_NVocInAudio_GlobalThetaInVideo.avi,vocoded,plusVideo,sp01,Un,Ge,4,0,1,flow/blocks/NVocInAudio_GlobalThetaInVideo_B.csv,,,,,,,,,,,,,,,,,0,0,0,0,0,21,21,19,-0.35694444444444445,-0.3388888888888889,1,0,0,5.138957000002847,call4,0.03194444444444444,0.32083333333333336,1,0,0,5.790347800000745,colour1,0.4,-0.30416666666666664,1,0,0,6.418113599997014,number4,True,True,True,6,1,2019_Nov_11_1157,MA_Theta_Exp,3.0.7,60.14607074811815,
video/Experiment/zh_sp07_Un_Ge_2_NVocInAudio_GlobalThetaInVideo.avi,vocoded,plusVideo,sp07,Un,Ge,2,0,1,flow/blocks/NVocInAudio_GlobalThetaInVideo_B.csv,,,,,,,,,,,,,,,,,0,0,0,0,0,22,22,17,-0.39444444444444443,-0.3263888888888889,1,0,0,4.26712370000314,call4,0.008333333333333333,0.3055555555555556,1,0,0,4.916699299996253,colour1,0.41944444444444445,0.09166666666666666,1,0,0,5.383323900001415,number2,True,True,True,6,1,2019_Nov_11_1157,MA_Theta_Exp,3.0.7,60.14607074811815,
video/Experiment/zh_sp07_Ti_Ge_3_NVocInAudio_GlobalThetaInVideo.avi,vocoded,plusVideo,sp07,Ti,Ge,3,0,1,flow/blocks/NVocInAudio_GlobalThetaInVideo_B.csv,,,,,,,,,,,,,,,,,0,0,0,0,0,23,23,2,-0.34305555555555556,-0.09444444444444444,1,0,0,4.502783100004308,call3,0.0,0.3111111111111111,1,0,0,5.052459099999396,colour1,0.3486111111111111,-0.07083333333333333,1,0,0,5.618811900007131,number3,True,True,True,6,1,2019_Nov_11_1157,MA_Theta_Exp,3.0.7,60.14607074811815,
video/Experiment/zh_sp07_Un_Gr_4_NVocInAudio_GlobalThetaInVideo.avi,vocoded,plusVideo,sp07,Un,Gr,4,0,1,flow/blocks/NVocInAudio_GlobalThetaInVideo_B.csv,,,,,,,,,,,,,,,,,0,0,0,0,0,24,24,23,-0.5208333333333334,-0.3138888888888889,1,0,0,4.535817100004351,call4,0.002777777777777778,0.0125,1,0,0,5.419111900002463,colour2,0.4708333333333333,-0.2902777777777778,1,0,0,6.78529300000082,number4,True,True,True,6,1,2019_Nov_11_1157,MA_Theta_Exp,3.0.7,60.14607074811815,
video/Experiment/zh_sp07_Ti_Ro_2_NVocInAudio_GlobalThetaInVideo.avi,vocoded,plusVideo,sp07,Ti,Ro,2,0,1,flow/blocks/NVocInAudio_GlobalThetaInVideo_B.csv,,,,,,,,,,,,,,,,,0,0,0,0,0,25,25,9,-0.4263888888888889,-0.04583333333333333,1,0,0,4.562544600004912,call3,-0.04027777777777778,-0.08333333333333333,1,0,0,5.162108899996383,colour3,0.37222222222222223,0.08611111111111111,1,0,0,5.812637199996971,number2,True,True,True,6,1,2019_Nov_11_1157,MA_Theta_Exp,3.0.7,60.14607074811815,
video/Experiment/zh_sp01_Un_Ro_3_NVocInAudio_GlobalThetaInVideo.avi,vocoded,plusVideo,sp01,Un,Ro,3,0,1,flow/blocks/NVocInAudio_GlobalThetaInVideo_B.csv,,,,,,,,,,,,,,,,,0,0,0,0,0,26,26,26,-0.4222222222222222,-0.3194444444444444,1,0,0,5.430326299996523,call4,-0.025,-0.0875,1,0,0,6.129543499999272,colour3,0.38333333333333336,-0.13333333333333333,1,0,0,6.629740599993966,number3,True,True,True,6,1,2019_Nov_11_1157,MA_Theta_Exp,3.0.7,60.14607074811815,
video/Experiment/zh_sp01_Ti_Ge_2_NVocInAudio_GlobalThetaInVideo.avi,vocoded,plusVideo,sp01,Ti,Ge,2,0,1,flow/blocks/NVocInAudio_GlobalThetaInVideo_B.csv,,,,,,,,,,,,,,,,,0,0,0,0,0,27,27,1,-0.3402777777777778,-0.1111111111111111,1,0,0,5.289946199998667,call3,0.05555555555555555,0.30416666666666664,1,0,0,5.823201999999583,colour1,0.3597222222222222,0.06527777777777778,1,0,0,6.35625330000039,number2,True,True,True,6,1,2019_Nov_11_1157,MA_Theta_Exp,3.0.7,60.14607074811815,
video/Experiment/zh_sp07_Un_We_2_NVocInAudio_GlobalThetaInVideo.avi,vocoded,plusVideo,sp07,Un,We,2,0,1,flow/blocks/NVocInAudio_GlobalThetaInVideo_B.csv,,,,,,,,,,,,,,,,,0,0,0,0,0,28,28,29,-0.39305555555555555,-0.30694444444444446,1,0,0,4.640106400001969,call4,-0.016666666666666666,-0.31805555555555554,1,0,0,5.090309899998829,colour4,0.3375,0.1361111111111111,1,0,0,5.673980100000335,number2,True,True,True,6,1,2019_Nov_11_1157,MA_Theta_Exp,3.0.7,60.14607074811815,
video/Experiment/zh_sp07_Un_Ro_1_NVocInAudio_GlobalThetaInVideo.avi,vocoded,plusVideo,sp07,Un,Ro,1,0,1,flow/blocks/NVocInAudio_GlobalThetaInVideo_B.csv,,,,,,,,,,,,,,,,,0,0,0,0,0,29,29,24,-0.38333333333333336,-0.3055555555555556,1,0,0,4.440845999997691,call4,0.034722222222222224,-0.13333333333333333,1,0,0,4.874409099997138,colour3,0.3597222222222222,0.36527777777777776,1,0,0,5.663432700006524,number1,True,True,True,6,1,2019_Nov_11_1157,MA_Theta_Exp,3.0.7,60.14607074811815,
video/Experiment/zh_sp07_Un_Gr_2_NVocInAudio_GlobalThetaInVideo.avi,vocoded,plusVideo,sp07,Un,Gr,2,0,1,flow/blocks/NVocInAudio_GlobalThetaInVideo_B.csv,,,,,,,,,,,,,,,,,0,0,0,0,0,30,30,21,-0.4111111111111111,-0.30694444444444446,1,0,0,4.658521099998325,call4,0.011111111111111112,0.06805555555555555,1,0,0,5.324871199998597,colour2,0.3680555555555556,0.04722222222222222,1,0,0,5.708573999996588,number2,True,True,True,6,1,2019_Nov_11_1157,MA_Theta_Exp,3.0.7,60.14607074811815,
video/Experiment/zh_sp01_Un_Gr_1_NVocInAudio_GlobalThetaInVideo.avi,vocoded,plusVideo,sp01,Un,Gr,1,0,1,flow/blocks/NVocInAudio_GlobalThetaInVideo_B.csv,,,,,,,,,,,,,,,,,0,0,0,0,0,31,31,20,-0.31805555555555554,-0.3263888888888889,1,0,0,5.0960785999996006,call4,-0.03888888888888889,0.08194444444444444,1,0,0,5.895420300003025,colour2,0.39861111111111114,0.3111111111111111,1,0,0,6.545272600000317,number1,True,True,True,6,1,2019_Nov_11_1157,MA_Theta_Exp,3.0.7,60.14607074811815,
video/Experiment/zh_sp01_Ti_Ge_3_NoThetaInAudio_NoVideo.avi,noTheta,noVideo,sp01,Ti,Ge,3,1,4,flow/blocks/NoThetaInAudio_NoVideo_B.csv,,,,,,,,,,,,,,,,,0,1,1,1,0,0,0,2,-0.4388888888888889,-0.09444444444444444,1,0,0,5.286800000001676,call3,0.016666666666666666,0.2847222222222222,1,0,0,5.969860999997763,colour1,0.38055555555555554,-0.06944444444444445,1,0,0,6.820062799997686,number3,True,True,True,6,1,2019_Nov_11_1157,MA_Theta_Exp,3.0.7,60.14607074811815,
video/Experiment/zh_sp07_Ti_Gr_2_NoThetaInAudio_NoVideo.avi,noTheta,noVideo,sp07,Ti,Gr,2,1,4,flow/blocks/NoThetaInAudio_NoVideo_B.csv,,,,,,,,,,,,,,,,,0,1,1,1,0,1,1,5,-0.4222222222222222,-0.06388888888888888,1,0,0,4.630587999999989,call3,-0.09027777777777778,0.06111111111111111,1,0,0,5.11028780000197,colour2,0.3416666666666667,0.12222222222222222,1,0,0,6.093806999997469,number2,True,True,True,6,1,2019_Nov_11_1157,MA_Theta_Exp,3.0.7,60.14607074811815,
video/Experiment/zh_sp07_Un_We_2_NoThetaInAudio_NoVideo.avi,noTheta,noVideo,sp07,Un,We,2,1,4,flow/blocks/NoThetaInAudio_NoVideo_B.csv,,,,,,,,,,,,,,,,,0,1,1,1,0,2,2,29,-0.3736111111111111,-0.28888888888888886,1,0,0,4.497583199998189,call4,-0.07777777777777778,-0.2722222222222222,1,0,0,5.014856699999655,colour4,0.43472222222222223,0.05694444444444444,1,0,0,5.683208200003719,number2,True,True,True,6,1,2019_Nov_11_1157,MA_Theta_Exp,3.0.7,60.14607074811815,
video/Experiment/zh_sp07_Ti_Gr_4_NoThetaInAudio_NoVideo.avi,noTheta,noVideo,sp07,Ti,Gr,4,1,4,flow/blocks/NoThetaInAudio_NoVideo_B.csv,,,,,,,,,,,,,,,,,0,1,1,1,0,3,3,7,-0.3486111111111111,-0.14027777777777778,1,0,0,4.677445999994234,call3,-0.02361111111111111,0.07361111111111111,1,0,0,5.110821200003556,colour2,0.3125,-0.07222222222222222,1,0,0,5.610635999997612,number3,True,True,False,6,1,2019_Nov_11_1157,MA_Theta_Exp,3.0.7,60.14607074811815,
video/Experiment/zh_sp01_Un_Ge_3_NoThetaInAudio_NoVideo.avi,noTheta,noVideo,sp01,Un,Ge,3,1,4,flow/blocks/NoThetaInAudio_NoVideo_B.csv,,,,,,,,,,,,,,,,,0,1,1,1,0,4,4,18,-0.3486111111111111,-0.2722222222222222,1,0,0,5.240555600001244,call4,-0.030555555555555555,0.38333333333333336,1,0,0,5.80810080000083,colour1,0.375,-0.08055555555555556,1,0,0,6.60606910000206,number3,True,True,True,6,1,2019_Nov_11_1157,MA_Theta_Exp,3.0.7,60.14607074811815,
video/Experiment/zh_sp07_Ti_We_2_NoThetaInAudio_NoVideo.avi,noTheta,noVideo,sp07,Ti,We,2,1,4,flow/blocks/NoThetaInAudio_NoVideo_B.csv,,,,,,,,,,,,,,,,,0,1,1,1,0,5,5,13,-0.37916666666666665,-0.3055555555555556,1,0,0,5.0756134999974165,call4,-0.04861111111111111,0.2638888888888889,1,0,0,5.792004100003396,colour1,0.35555555555555557,0.10694444444444444,1,0,0,6.325317199996789,number2,False,False,True,6,1,2019_Nov_11_1157,MA_Theta_Exp,3.0.7,60.14607074811815,
video/Experiment/zh_sp07_Un_Ro_3_NoThetaInAudio_NoVideo.avi,noTheta,noVideo,sp07,Un,Ro,3,1,4,flow/blocks/NoThetaInAudio_NoVideo_B.csv,,,,,,,,,,,,,,,,,0,1,1,1,0,6,6,26,-0.39166666666666666,-0.10833333333333334,1,0,0,5.492387199999939,call3,0.001388888888888889,0.30277777777777776,1,0,0,6.425409999996191,colour1,0.4125,0.15138888888888888,1,0,0,7.459077999999863,number2,False,False,False,6,1,2019_Nov_11_1157,MA_Theta_Exp,3.0.7,60.14607074811815,
video/Experiment/zh_sp01_Ti_We_1_NoThetaInAudio_NoVideo.avi,noTheta,noVideo,sp01,Ti,We,1,1,4,flow/blocks/NoThetaInAudio_NoVideo_B.csv,,,,,,,,,,,,,,,,,0,1,1,1,0,7,7,12,-0.38333333333333336,-0.2861111111111111,1,0,0,5.406511599998339,call4,-0.005555555555555556,0.13472222222222222,1,0,0,6.055864299996756,colour2,0.4361111111111111,0.14305555555555555,1,0,0,6.905426900004386,number2,False,False,False,6,1,2019_Nov_11_1157,MA_Theta_Exp,3.0.7,60.14607074811815,
video/Experiment/zh_sp01_Un_Ro_4_NoThetaInAudio_NoVideo.avi,noTheta,noVideo,sp01,Un,Ro,4,1,4,flow/blocks/NoThetaInAudio_NoVideo_B.csv,,,,,,,,,,,,,,,,,0,1,1,1,0,8,8,27,-0.4388888888888889,-0.3194444444444444,1,0,0,4.979131500003859,call4,0.06805555555555555,0.12083333333333333,1,0,0,6.095615300000645,colour2,0.4097222222222222,-0.15694444444444444,1,0,0,6.895470600000408,number3,True,False,False,6,1,2019_Nov_11_1157,MA_Theta_Exp,3.0.7,60.14607074811815,
video/Experiment/zh_sp01_Ti_Ge_1_NoThetaInAudio_NoVideo.avi,noTheta,noVideo,sp01,Ti,Ge,1,1,4,flow/blocks/NoThetaInAudio_NoVideo_B.csv,,,,,,,,,,,,,,,,,0,1,1,1,0,9,9,0,-0.38472222222222224,-0.05,1,0,0,5.22915009999997,call3,0.0,-0.14027777777777778,1,0,0,5.748061899997992,colour3,0.40555555555555556,0.3138888888888889,1,0,0,6.330557799999951,number1,True,False,True,6,1,2019_Nov_11_1157,MA_Theta_Exp,3.0.7,60.14607074811815,
video/Experiment/zh_sp07_Ti_Ro_3_NoThetaInAudio_NoVideo.avi,noTheta,noVideo,sp07,Ti,Ro,3,1,4,flow/blocks/NoThetaInAudio_NoVideo_B.csv,,,,,,,,,,,,,,,,,0,1,1,1,0,10,10,10,-0.425,-0.18055555555555555,1,0,0,4.649826199995005,call3,-0.04583333333333333,-0.06111111111111111,1,0,0,5.452389899997797,colour3,0.41944444444444445,-0.09166666666666666,1,0,0,6.548887500001001,number3,True,True,True,6,1,2019_Nov_11_1157,MA_Theta_Exp,3.0.7,60.14607074811815,
video/Experiment/zh_sp01_Ti_Ro_1_NoThetaInAudio_NoVideo.avi,noTheta,noVideo,sp01,Ti,Ro,1,1,4,flow/blocks/NoThetaInAudio_NoVideo_B.csv,,,,,,,,,,,,,,,,,0,1,1,1,0,11,11,8,-0.2902777777777778,-0.10555555555555556,1,0,0,5.95023829999991,call3,-0.015277777777777777,0.34305555555555556,1,0,0,7.6669373999975505,colour1,0.44583333333333336,0.33194444444444443,1,0,0,8.149861099998816,number1,True,False,True,6,1,2019_Nov_11_1157,MA_Theta_Exp,3.0.7,60.14607074811815,
video/Experiment/zh_sp01_Ti_Ge_4_NoThetaInAudio_NoVideo.avi,noTheta,noVideo,sp01,Ti,Ge,4,1,4,flow/blocks/NoThetaInAudio_NoVideo_B.csv,,,,,,,,,,,,,,,,,0,1,1,1,0,12,12,3,-0.3680555555555556,-0.14583333333333334,1,0,0,5.219223899999633,call3,-0.002777777777777778,0.33055555555555555,1,0,0,6.135948199997074,colour1,0.375,-0.3388888888888889,1,0,0,7.119265200002701,number4,True,True,True,6,1,2019_Nov_11_1157,MA_Theta_Exp,3.0.7,60.14607074811815,
video/Experiment/zh_sp07_Un_Ge_4_NoThetaInAudio_NoVideo.avi,noTheta,noVideo,sp07,Un,Ge,4,1,4,flow/blocks/NoThetaInAudio_NoVideo_B.csv,,,,,,,,,,,,,,,,,0,1,1,1,0,13,13,19,-0.4222222222222222,-0.10416666666666667,1,0,0,4.524544799998694,call3,0.016666666666666666,0.275,1,0,0,5.091522400005488,colour1,0.3486111111111111,-0.2625,1,0,0,5.774534599993785,number4,False,True,True,6,1,2019_Nov_11_1157,MA_Theta_Exp,3.0.7,60.14607074811815,
video/Experiment/zh_sp07_Un_Gr_2_NoThetaInAudio_NoVideo.avi,noTheta,noVideo,sp07,Un,Gr,2,1,4,flow/blocks/NoThetaInAudio_NoVideo_B.csv,,,,,,,,,,,,,,,,,0,1,1,1,0,14,14,21,-0.37083333333333335,-0.06805555555555555,1,0,0,5.116446800006088,call3,0.04583333333333333,0.32222222222222224,1,0,0,6.599845200005802,colour1,0.35555555555555557,-0.21666666666666667,1,0,0,7.0997150000039255,number4,False,False,False,6,1,2019_Nov_11_1157,MA_Theta_Exp,3.0.7,60.14607074811815,
