videoFile,condition,video,speaker,callSign,colour,number,seq,id,block,exp.thisRepN,exp.thisTrialN,exp.thisN,exp.thisIndex,training.thisRepN,training.thisTrialN,training.thisN,training.thisIndex,firstHalf.thisRepN,firstHalf.thisTrialN,firstHalf.thisN,firstHalf.thisIndex,blocksA.thisRepN,blocksA.thisTrialN,blocksA.thisN,blocksA.thisIndex,secondHalf.thisRepN,secondHalf.thisTrialN,secondHalf.thisN,secondHalf.thisIndex,blocksB.thisRepN,blocksB.thisTrialN,blocksB.thisN,blocksB.thisIndex,mouseClickOnCall.x,mouseClickOnCall.y,mouseClickOnCall.leftButton,mouseClickOnCall.midButton,mouseClickOnCall.rightButton,mouseClickOnCall.time,mouseClickOnCall.clicked_name,mouseClickOnColour.x,mouseClickOnColour.y,mouseClickOnColour.leftButton,mouseClickOnColour.midButton,mouseClickOnColour.rightButton,mouseClickOnColour.time,mouseClickOnColour.clicked_name,mouseClickOnNumber.x,mouseClickOnNumber.y,mouseClickOnNumber.leftButton,mouseClickOnNumber.midButton,mouseClickOnNumber.rightButton,mouseClickOnNumber.time,mouseClickOnNumber.clicked_name,callSignCorrect,colourCorrect,numberCorrect,participant,order,date,expName,psychopyVersion,frameRate,
video/Training/zh_sp01_Ad_We_4_NVocInAudio_NoVideo.avi,vocoded,noVideo,sp01,Ad,We,4,,,,,,,,0,0,0,0,,,,,,,,,,,,,,,,,-0.38287037037037036,0.2833333333333333,1,0,0,8.245606299999054,call1,0.049074074074074076,-0.3486111111111111,1,0,0,9.445086099993205,colour4,0.41435185185185186,-0.30694444444444446,1,0,0,10.071996999991825,number4,True,True,True,9,4,2019_Nov_12_1059,MA_Theta_Exp,3.0.7,60.13500308255712,
video/Training/zh_sp07_Ad_Ge_3_NVocInAudio_NoVideo.avi,vocoded,noVideo,sp07,Ad,Ge,3,,,,,,,,0,1,1,1,,,,,,,,,,,,,,,,,-0.4398148148148148,0.30833333333333335,1,0,0,5.0925505999912275,call1,0.0032407407407407406,0.2902777777777778,1,0,0,6.02425650000805,colour1,0.4115740740740741,-0.1486111111111111,1,0,0,7.162977100000717,number3,True,True,True,9,4,2019_Nov_12_1059,MA_Theta_Exp,3.0.7,60.13500308255712,
video/Training/zh_sp01_Dr_Ro_3_NVocInAudio_GlobalThetaInVideo.avi,vocoded,plusVideo,sp01,Dr,Ro,3,,,,,,,,0,2,2,2,,,,,,,,,,,,,,,,,-0.39675925925925926,0.08194444444444444,1,0,0,6.382147799988161,call2,0.040740740740740744,-0.09166666666666666,1,0,0,7.1966201000032015,colour3,0.41435185185185186,-0.08888888888888889,1,0,0,7.748222200010787,number3,True,True,True,9,4,2019_Nov_12_1059,MA_Theta_Exp,3.0.7,60.13500308255712,
video/Training/zh_sp07_Dr_Gr_4_NVocInAudio_GlobalThetaInVideo.avi,vocoded,plusVideo,sp07,Dr,Gr,4,,,,,,,,0,3,3,3,,,,,,,,,,,,,,,,,-0.44675925925925924,0.10972222222222222,1,0,0,5.230255699992995,call2,-0.005092592592592593,0.06944444444444445,1,0,0,5.961470299997018,colour2,0.4101851851851852,-0.34305555555555556,1,0,0,6.811414399999194,number4,True,True,True,9,4,2019_Nov_12_1059,MA_Theta_Exp,3.0.7,60.13500308255712,
video/Training/zh_sp01_Ti_Gr_2_NoThetaInAudio_NoVideo.avi,noTheta,noVideo,sp01,Ti,Gr,2,,,,,,,,0,4,4,4,,,,,,,,,,,,,,,,,-0.41898148148148145,0.2875,1,0,0,6.783089299991843,call1,-0.03287037037037037,0.3111111111111111,1,0,0,7.642833100006101,colour1,0.350462962962963,0.10694444444444444,1,0,0,8.313622100002249,number2,False,False,True,9,4,2019_Nov_12_1059,MA_Theta_Exp,3.0.7,60.13500308255712,
video/Training/zh_sp07_Ti_Ro_1_NoThetaInAudio_NoVideo.avi,noTheta,noVideo,sp07,Ti,Ro,1,,,,,,,,0,5,5,5,,,,,,,,,,,,,,,,,0.3837962962962963,0.28055555555555556,1,0,0,5.350557900004787,call4,-0.03009259259259259,-0.09861111111111111,1,0,0,12.498453899999731,colour3,,,,,,,,False,True,NO_ANSW,9,4,2019_Nov_12_1059,MA_Theta_Exp,3.0.7,60.13500308255712,
video/Training/zh_sp01_Un_Ge_1_NoThetaInAudio_GlobalThetaInVideo.avi,noTheta,plusVideo,sp01,Un,Ge,1,,,,,,,,0,6,6,6,,,,,,,,,,,,,,,,,-0.006481481481481481,0.3375,1,0,0,8.116205700003775,call4,0.425462962962963,0.3236111111111111,1,0,0,11.094584000005852,,,,,,,,,True,NO_ANSW,NO_ANSW,9,4,2019_Nov_12_1059,MA_Theta_Exp,3.0.7,60.13500308255712,
video/Training/zh_sp07_Un_We_2_NoThetaInAudio_GlobalThetaInVideo.avi,noTheta,plusVideo,sp07,Un,We,2,,,,,,,,0,7,7,7,,,,,,,,,,,,,,,,,-0.42592592592592593,0.12777777777777777,1,0,0,4.989635700010695,call2,0.010185185185185186,-0.3277777777777778,1,0,0,6.437241699997685,colour4,0.44074074074074077,0.11388888888888889,1,0,0,7.261787000010372,number2,False,True,True,9,4,2019_Nov_12_1059,MA_Theta_Exp,3.0.7,60.13500308255712,
video/Training/zh_sp01_Ad_Ge_1_GlobalTheta_NoVideo.avi,globalTheta,noVideo,sp01,Ad,Ge,1,,,,,,,,0,8,8,8,,,,,,,,,,,,,,,,,-0.38425925925925924,0.31527777777777777,1,0,0,11.319467100009206,call1,0.014351851851851852,0.31527777777777777,1,0,0,12.248968499989132,colour1,0.3962962962962963,0.30277777777777776,1,0,0,12.83847689999675,number1,True,True,True,9,4,2019_Nov_12_1059,MA_Theta_Exp,3.0.7,60.13500308255712,
video/Training/zh_sp07_Ad_Ro_3_GlobalTheta_NoVideo.avi,globalTheta,noVideo,sp07,Ad,Ro,3,,,,,,,,0,9,9,9,,,,,,,,,,,,,,,,,-0.4217592592592593,0.3138888888888889,1,0,0,5.170180899993284,call1,-0.003703703703703704,-0.08888888888888889,1,0,0,5.982105000002775,colour3,0.4101851851851852,-0.09722222222222222,1,0,0,6.598017700001947,number3,True,True,True,9,4,2019_Nov_12_1059,MA_Theta_Exp,3.0.7,60.13500308255712,
video/Experiment/zh_sp07_Ad_Ro_2_NVocInAudio_GlobalThetaInVideo.avi,vocoded,plusVideo,sp07,Ad,Ro,2,0,1,flow/blocks/NVocInAudio_GlobalThetaInVideo_A.csv,,,,,,,,,0,0,0,0,0,0,0,9,,,,,,,,,-0.3675925925925926,0.2847222222222222,1,0,0,4.95555840000452,call1,-0.003703703703703704,-0.12777777777777777,1,0,0,5.810481299995445,colour3,0.4074074074074074,0.10833333333333334,1,0,0,6.821678200009046,number2,True,True,True,9,4,2019_Nov_12_1059,MA_Theta_Exp,3.0.7,60.13500308255712,
video/Experiment/zh_sp01_Dr_Gr_4_NVocInAudio_GlobalThetaInVideo.avi,vocoded,plusVideo,sp01,Dr,Gr,4,0,1,flow/blocks/NVocInAudio_GlobalThetaInVideo_A.csv,,,,,,,,,0,0,0,0,0,1,1,23,,,,,,,,,-0.4287037037037037,0.05277777777777778,1,0,0,5.573707200004719,call2,-0.013425925925925926,0.09305555555555556,1,0,0,6.261430800004746,colour2,0.38657407407407407,-0.375,1,0,0,7.141649600001983,number4,True,True,True,9,4,2019_Nov_12_1059,MA_Theta_Exp,3.0.7,60.13500308255712,
video/Experiment/zh_sp07_Dr_Ro_1_NVocInAudio_GlobalThetaInVideo.avi,vocoded,plusVideo,sp07,Dr,Ro,1,0,1,flow/blocks/NVocInAudio_GlobalThetaInVideo_A.csv,,,,,,,,,0,0,0,0,0,2,2,24,,,,,,,,,-0.41203703703703703,0.09861111111111111,1,0,0,4.610030200012261,call2,-0.003703703703703704,-0.1111111111111111,1,0,0,5.3541141000023345,colour3,0.4546296296296296,0.3388888888888889,1,0,0,6.337607000008575,number1,True,True,True,9,4,2019_Nov_12_1059,MA_Theta_Exp,3.0.7,60.13500308255712,
video/Experiment/zh_sp07_Ad_Gr_1_NVocInAudio_GlobalThetaInVideo.avi,vocoded,plusVideo,sp07,Ad,Gr,1,0,1,flow/blocks/NVocInAudio_GlobalThetaInVideo_A.csv,,,,,,,,,0,0,0,0,0,3,3,4,,,,,,,,,-0.45231481481481484,0.31527777777777777,1,0,0,5.107511900001555,call1,-0.055092592592592596,0.12777777777777777,1,0,0,5.82755860000907,colour2,0.38101851851851853,0.275,1,0,0,6.484732500000973,number1,True,True,True,9,4,2019_Nov_12_1059,MA_Theta_Exp,3.0.7,60.13500308255712,
video/Experiment/zh_sp01_Ad_We_2_NVocInAudio_GlobalThetaInVideo.avi,vocoded,plusVideo,sp01,Ad,We,2,0,1,flow/blocks/NVocInAudio_GlobalThetaInVideo_A.csv,,,,,,,,,0,0,0,0,0,4,4,13,,,,,,,,,-0.43425925925925923,0.26944444444444443,1,0,0,5.661419600000954,call1,-0.016203703703703703,-0.33194444444444443,1,0,0,6.610240900001372,colour4,0.40046296296296297,0.10277777777777777,1,0,0,8.029693200005568,number2,True,True,True,9,4,2019_Nov_12_1059,MA_Theta_Exp,3.0.7,60.13500308255712,
video/Experiment/zh_sp01_Dr_Ge_2_NVocInAudio_GlobalThetaInVideo.avi,vocoded,plusVideo,sp01,Dr,Ge,2,0,1,flow/blocks/NVocInAudio_GlobalThetaInVideo_A.csv,,,,,,,,,0,0,0,0,0,5,5,17,,,,,,,,,-0.4287037037037037,0.08333333333333333,1,0,0,5.94519680000667,call2,-0.016203703703703703,0.25555555555555554,1,0,0,6.6539581999968505,colour1,0.3587962962962963,0.08055555555555556,1,0,0,7.515849299990805,number2,True,True,True,9,4,2019_Nov_12_1059,MA_Theta_Exp,3.0.7,60.13500308255712,
video/Experiment/zh_sp01_Ad_Gr_2_NVocInAudio_GlobalThetaInVideo.avi,vocoded,plusVideo,sp01,Ad,Gr,2,0,1,flow/blocks/NVocInAudio_GlobalThetaInVideo_A.csv,,,,,,,,,0,0,0,0,0,6,6,5,,,,,,,,,-0.39675925925925926,0.29444444444444445,1,0,0,5.847065299996757,call1,-0.012037037037037037,0.11805555555555555,1,0,0,6.60197769998922,colour2,0.36574074074074076,0.1111111111111111,1,0,0,7.247491800007992,number2,True,True,True,9,4,2019_Nov_12_1059,MA_Theta_Exp,3.0.7,60.13500308255712,
video/Experiment/zh_sp01_Dr_Ro_2_NVocInAudio_GlobalThetaInVideo.avi,vocoded,plusVideo,sp01,Dr,Ro,2,0,1,flow/blocks/NVocInAudio_GlobalThetaInVideo_A.csv,,,,,,,,,0,0,0,0,0,7,7,25,,,,,,,,,-0.40925925925925927,0.10972222222222222,1,0,0,5.7510264000011375,call2,-0.01898148148148148,-0.05277777777777778,1,0,0,6.449505399999907,colour3,0.3685185185185185,0.125,1,0,0,7.050084299989976,number2,True,True,True,9,4,2019_Nov_12_1059,MA_Theta_Exp,3.0.7,60.13500308255712,
video/Experiment/zh_sp01_Dr_Ro_3_NVocInAudio_GlobalThetaInVideo.avi,vocoded,plusVideo,sp01,Dr,Ro,3,0,1,flow/blocks/NVocInAudio_GlobalThetaInVideo_A.csv,,,,,,,,,0,0,0,0,0,8,8,26,,,,,,,,,-0.399537037037037,0.15138888888888888,1,0,0,5.145485100001679,call2,0.01990740740740741,-0.10972222222222222,1,0,0,7.448707100003958,colour3,0.35324074074074074,-0.09305555555555556,1,0,0,8.33025890000863,number3,True,True,True,9,4,2019_Nov_12_1059,MA_Theta_Exp,3.0.7,60.13500308255712,
video/Experiment/zh_sp07_Dr_Ge_4_NVocInAudio_GlobalThetaInVideo.avi,vocoded,plusVideo,sp07,Dr,Ge,4,0,1,flow/blocks/NVocInAudio_GlobalThetaInVideo_A.csv,,,,,,,,,0,0,0,0,0,9,9,19,,,,,,,,,-0.39537037037037037,0.11388888888888889,1,0,0,5.574296600010712,call2,-0.0023148148148148147,0.3055555555555556,1,0,0,6.510966300003929,colour1,0.4310185185185185,-0.30277777777777776,1,0,0,7.741226099999039,number4,True,True,True,9,4,2019_Nov_12_1059,MA_Theta_Exp,3.0.7,60.13500308255712,
video/Experiment/zh_sp01_Dr_We_4_NVocInAudio_GlobalThetaInVideo.avi,vocoded,plusVideo,sp01,Dr,We,4,0,1,flow/blocks/NVocInAudio_GlobalThetaInVideo_A.csv,,,,,,,,,0,0,0,0,0,10,10,31,,,,,,,,,-0.4134259259259259,0.12777777777777777,1,0,0,5.897541199999978,call2,0.01712962962962963,-0.3236111111111111,1,0,0,6.812075399997411,colour4,0.3435185185185185,-0.33055555555555555,1,0,0,7.531190199995763,number4,True,True,True,9,4,2019_Nov_12_1059,MA_Theta_Exp,3.0.7,60.13500308255712,
video/Experiment/zh_sp01_Ad_Gr_4_NVocInAudio_GlobalThetaInVideo.avi,vocoded,plusVideo,sp01,Ad,Gr,4,0,1,flow/blocks/NVocInAudio_GlobalThetaInVideo_A.csv,,,,,,,,,0,0,0,0,0,11,11,7,,,,,,,,,-0.3912037037037037,0.33055555555555555,1,0,0,6.494315800009645,call1,-0.023148148148148147,0.14027777777777778,1,0,0,7.108369400011725,colour2,0.3768518518518518,-0.3125,1,0,0,8.016817700001411,number4,True,True,True,9,4,2019_Nov_12_1059,MA_Theta_Exp,3.0.7,60.13500308255712,
video/Experiment/zh_sp07_Ad_Gr_3_NVocInAudio_GlobalThetaInVideo.avi,vocoded,plusVideo,sp07,Ad,Gr,3,0,1,flow/blocks/NVocInAudio_GlobalThetaInVideo_A.csv,,,,,,,,,0,0,0,0,0,12,12,6,,,,,,,,,-0.43287037037037035,0.3194444444444444,1,0,0,5.319614199994248,call1,-0.05092592592592592,0.11388888888888889,1,0,0,6.2345771999971475,colour2,0.362962962962963,-0.08888888888888889,1,0,0,6.995476900003268,number3,True,True,True,9,4,2019_Nov_12_1059,MA_Theta_Exp,3.0.7,60.13500308255712,
video/Experiment/zh_sp01_Ad_Ge_4_NVocInAudio_GlobalThetaInVideo.avi,vocoded,plusVideo,sp01,Ad,Ge,4,0,1,flow/blocks/NVocInAudio_GlobalThetaInVideo_A.csv,,,,,,,,,0,0,0,0,0,13,13,3,,,,,,,,,-0.43148148148148147,0.2902777777777778,1,0,0,5.95133560000977,call1,-0.017592592592592594,0.26805555555555555,1,0,0,6.667005700001027,colour1,0.4115740740740741,-0.3277777777777778,1,0,0,7.702140300010797,number4,True,True,True,9,4,2019_Nov_12_1059,MA_Theta_Exp,3.0.7,60.13500308255712,
video/Experiment/zh_sp07_Dr_Ge_3_NVocInAudio_GlobalThetaInVideo.avi,vocoded,plusVideo,sp07,Dr,Ge,3,0,1,flow/blocks/NVocInAudio_GlobalThetaInVideo_A.csv,,,,,,,,,0,0,0,0,0,14,14,18,,,,,,,,,-0.4009259259259259,0.10972222222222222,1,0,0,4.401100200004294,call2,-0.04259259259259259,0.2986111111111111,1,0,0,5.335966300001019,colour1,0.3699074074074074,-0.12083333333333333,1,0,0,6.14006010000594,number3,True,True,True,9,4,2019_Nov_12_1059,MA_Theta_Exp,3.0.7,60.13500308255712,
video/Experiment/zh_sp07_Ad_Ge_3_NVocInAudio_GlobalThetaInVideo.avi,vocoded,plusVideo,sp07,Ad,Ge,3,0,1,flow/blocks/NVocInAudio_GlobalThetaInVideo_A.csv,,,,,,,,,0,0,0,0,0,15,15,2,,,,,,,,,-0.43287037037037035,0.3125,1,0,0,4.820067399996333,call1,-0.003703703703703704,0.3055555555555556,1,0,0,5.743480000004638,colour1,0.40324074074074073,-0.10833333333333334,1,0,0,6.788734499990824,number3,True,True,True,9,4,2019_Nov_12_1059,MA_Theta_Exp,3.0.7,60.13500308255712,
video/Experiment/zh_sp01_Dr_Gr_1_NVocInAudio_GlobalThetaInVideo.avi,vocoded,plusVideo,sp01,Dr,Gr,1,0,1,flow/blocks/NVocInAudio_GlobalThetaInVideo_A.csv,,,,,,,,,0,0,0,0,0,16,16,20,,,,,,,,,-0.41759259259259257,0.10833333333333334,1,0,0,5.638904900013586,call2,-0.06759259259259259,0.1125,1,0,0,6.257038700001431,colour2,0.3587962962962963,0.27361111111111114,1,0,0,6.884186600000248,number1,True,True,True,9,4,2019_Nov_12_1059,MA_Theta_Exp,3.0.7,60.13500308255712,
video/Experiment/zh_sp07_Dr_Ro_4_NVocInAudio_GlobalThetaInVideo.avi,vocoded,plusVideo,sp07,Dr,Ro,4,0,1,flow/blocks/NVocInAudio_GlobalThetaInVideo_A.csv,,,,,,,,,0,0,0,0,0,17,17,27,,,,,,,,,-0.41203703703703703,0.11805555555555555,1,0,0,5.548575000007986,call2,0.007407407407407408,-0.075,1,0,0,6.36114429999725,colour3,0.33796296296296297,-0.28194444444444444,1,0,0,7.122507799998857,number4,True,True,True,9,4,2019_Nov_12_1059,MA_Theta_Exp,3.0.7,60.13500308255712,
video/Experiment/zh_sp01_Dr_Gr_2_NVocInAudio_GlobalThetaInVideo.avi,vocoded,plusVideo,sp01,Dr,Gr,2,0,1,flow/blocks/NVocInAudio_GlobalThetaInVideo_A.csv,,,,,,,,,0,0,0,0,0,18,18,21,,,,,,,,,-0.3925925925925926,0.10833333333333334,1,0,0,6.10450519999722,call2,-0.05925925925925926,0.10555555555555556,1,0,0,6.802155700002913,colour2,0.38935185185185184,0.10833333333333334,1,0,0,8.573789700007183,number2,True,True,True,9,4,2019_Nov_12_1059,MA_Theta_Exp,3.0.7,60.13500308255712,
video/Experiment/zh_sp01_Ad_We_4_NVocInAudio_GlobalThetaInVideo.avi,vocoded,plusVideo,sp01,Ad,We,4,0,1,flow/blocks/NVocInAudio_GlobalThetaInVideo_A.csv,,,,,,,,,0,0,0,0,0,19,19,15,,,,,,,,,-0.43287037037037035,0.33611111111111114,1,0,0,5.167113399991649,call1,0.018518518518518517,-0.35694444444444445,1,0,0,6.1669559000001755,colour4,0.3351851851851852,-0.30694444444444446,1,0,0,7.813468699998339,number4,True,True,True,9,4,2019_Nov_12_1059,MA_Theta_Exp,3.0.7,60.13500308255712,
video/Experiment/zh_sp01_Ad_Ge_2_NVocInAudio_GlobalThetaInVideo.avi,vocoded,plusVideo,sp01,Ad,Ge,2,0,1,flow/blocks/NVocInAudio_GlobalThetaInVideo_A.csv,,,,,,,,,0,0,0,0,0,20,20,1,,,,,,,,,-0.43148148148148147,0.3125,1,0,0,5.075148799995077,call1,-0.03148148148148148,0.32083333333333336,1,0,0,5.715037000001757,colour1,0.3921296296296296,0.08194444444444444,1,0,0,6.366807400001562,number2,True,True,True,9,4,2019_Nov_12_1059,MA_Theta_Exp,3.0.7,60.13500308255712,
video/Experiment/zh_sp07_Ad_Ro_1_NVocInAudio_GlobalThetaInVideo.avi,vocoded,plusVideo,sp07,Ad,Ro,1,0,1,flow/blocks/NVocInAudio_GlobalThetaInVideo_A.csv,,,,,,,,,0,0,0,0,0,21,21,8,,,,,,,,,-0.41759259259259257,0.33611111111111114,1,0,0,5.2294103000022005,call1,0.026851851851851852,-0.10694444444444444,1,0,0,6.212281500003883,colour3,0.362962962962963,0.275,1,0,0,6.946788000001106,number1,True,True,True,9,4,2019_Nov_12_1059,MA_Theta_Exp,3.0.7,60.13500308255712,
video/Experiment/zh_sp07_Ad_Ge_1_NVocInAudio_GlobalThetaInVideo.avi,vocoded,plusVideo,sp07,Ad,Ge,1,0,1,flow/blocks/NVocInAudio_GlobalThetaInVideo_A.csv,,,,,,,,,0,0,0,0,0,22,22,0,,,,,,,,,-0.4162037037037037,0.2916666666666667,1,0,0,4.353657100000419,call1,0.049074074074074076,0.2916666666666667,1,0,0,5.130339700001059,colour1,0.3907407407407407,0.2875,1,0,0,5.78101350000361,number1,True,True,True,9,4,2019_Nov_12_1059,MA_Theta_Exp,3.0.7,60.13500308255712,
video/Experiment/zh_sp01_Dr_Ge_1_NVocInAudio_GlobalThetaInVideo.avi,vocoded,plusVideo,sp01,Dr,Ge,1,0,1,flow/blocks/NVocInAudio_GlobalThetaInVideo_A.csv,,,,,,,,,0,0,0,0,0,23,23,16,,,,,,,,,-0.4273148148148148,0.12222222222222222,1,0,0,5.227176399988821,call2,0.010185185185185186,0.2986111111111111,1,0,0,6.422986599995056,colour1,0.35462962962962963,0.3,1,0,0,7.054734499994083,number1,True,True,True,9,4,2019_Nov_12_1059,MA_Theta_Exp,3.0.7,60.13500308255712,
video/Experiment/zh_sp07_Dr_We_1_NVocInAudio_GlobalThetaInVideo.avi,vocoded,plusVideo,sp07,Dr,We,1,0,1,flow/blocks/NVocInAudio_GlobalThetaInVideo_A.csv,,,,,,,,,0,0,0,0,0,24,24,28,,,,,,,,,-0.4356481481481482,0.10416666666666667,1,0,0,4.83350330000394,call2,-0.023148148148148147,-0.275,1,0,0,5.7668482000008225,colour4,0.43796296296296294,0.2777777777777778,1,0,0,6.566363100006129,number1,True,True,True,9,4,2019_Nov_12_1059,MA_Theta_Exp,3.0.7,60.13500308255712,
video/Experiment/zh_sp07_Dr_We_3_NVocInAudio_GlobalThetaInVideo.avi,vocoded,plusVideo,sp07,Dr,We,3,0,1,flow/blocks/NVocInAudio_GlobalThetaInVideo_A.csv,,,,,,,,,0,0,0,0,0,25,25,30,,,,,,,,,-0.4162037037037037,0.14027777777777778,1,0,0,4.419351699994877,call2,-0.0023148148148148147,-0.325,1,0,0,5.332348700001603,colour4,0.43796296296296294,-0.07083333333333333,1,0,0,6.209104399997159,number3,True,True,True,9,4,2019_Nov_12_1059,MA_Theta_Exp,3.0.7,60.13500308255712,
video/Experiment/zh_sp07_Ad_We_1_NVocInAudio_GlobalThetaInVideo.avi,vocoded,plusVideo,sp07,Ad,We,1,0,1,flow/blocks/NVocInAudio_GlobalThetaInVideo_A.csv,,,,,,,,,0,0,0,0,0,26,26,12,,,,,,,,,-0.42592592592592593,0.3277777777777778,1,0,0,4.418849399997271,call1,-0.003703703703703704,-0.32222222222222224,1,0,0,5.620911699996213,colour4,0.3837962962962963,0.32916666666666666,1,0,0,6.518677799991565,number1,True,True,True,9,4,2019_Nov_12_1059,MA_Theta_Exp,3.0.7,60.13500308255712,
video/Experiment/zh_sp07_Ad_Ro_3_NVocInAudio_GlobalThetaInVideo.avi,vocoded,plusVideo,sp07,Ad,Ro,3,0,1,flow/blocks/NVocInAudio_GlobalThetaInVideo_A.csv,,,,,,,,,0,0,0,0,0,27,27,10,,,,,,,,,-0.41203703703703703,0.34305555555555556,1,0,0,4.5954880000062985,call1,0.021296296296296296,-0.10555555555555556,1,0,0,5.262415599994711,colour3,0.35462962962962963,-0.075,1,0,0,5.832112300005974,number3,True,True,True,9,4,2019_Nov_12_1059,MA_Theta_Exp,3.0.7,60.13500308255712,
video/Experiment/zh_sp07_Dr_Gr_3_NVocInAudio_GlobalThetaInVideo.avi,vocoded,plusVideo,sp07,Dr,Gr,3,0,1,flow/blocks/NVocInAudio_GlobalThetaInVideo_A.csv,,,,,,,,,0,0,0,0,0,28,28,22,,,,,,,,,-0.34953703703703703,0.08194444444444444,1,0,0,4.6947436000045855,call2,0.01990740740740741,0.09861111111111111,1,0,0,5.3609356000088155,colour2,0.43796296296296294,-0.09861111111111111,1,0,0,5.944352599995909,number3,True,True,True,9,4,2019_Nov_12_1059,MA_Theta_Exp,3.0.7,60.13500308255712,
video/Experiment/zh_sp07_Ad_Ro_4_NVocInAudio_GlobalThetaInVideo.avi,vocoded,plusVideo,sp07,Ad,Ro,4,0,1,flow/blocks/NVocInAudio_GlobalThetaInVideo_A.csv,,,,,,,,,0,0,0,0,0,29,29,11,,,,,,,,,-0.3814814814814815,0.2638888888888889,1,0,0,4.928558900006465,call1,0.004629629629629629,-0.07361111111111111,1,0,0,5.624968999996781,colour3,0.41574074074074074,-0.3194444444444444,1,0,0,6.396777499991003,number4,True,True,True,9,4,2019_Nov_12_1059,MA_Theta_Exp,3.0.7,60.13500308255712,
video/Experiment/zh_sp01_Dr_We_2_NVocInAudio_GlobalThetaInVideo.avi,vocoded,plusVideo,sp01,Dr,We,2,0,1,flow/blocks/NVocInAudio_GlobalThetaInVideo_A.csv,,,,,,,,,0,0,0,0,0,30,30,29,,,,,,,,,-0.39537037037037037,0.10972222222222222,1,0,0,6.524309899992659,call2,0.03518518518518519,-0.31666666666666665,1,0,0,8.454873700000462,colour4,0.38657407407407407,0.09583333333333334,1,0,0,9.956991300001391,number2,True,True,True,9,4,2019_Nov_12_1059,MA_Theta_Exp,3.0.7,60.13500308255712,
video/Experiment/zh_sp01_Ad_We_3_NVocInAudio_GlobalThetaInVideo.avi,vocoded,plusVideo,sp01,Ad,We,3,0,1,flow/blocks/NVocInAudio_GlobalThetaInVideo_A.csv,,,,,,,,,0,0,0,0,0,31,31,14,,,,,,,,,-0.4439814814814815,0.3194444444444444,1,0,0,5.078399000005447,call1,0.010185185185185186,-0.3486111111111111,1,0,0,5.979398900002707,colour4,0.3365740740740741,-0.12083333333333333,1,0,0,6.795844100008253,number3,True,True,True,9,4,2019_Nov_12_1059,MA_Theta_Exp,3.0.7,60.13500308255712,
video/Experiment/zh_sp07_Dr_Ge_4_NoThetaInAudio_NoVideo.avi,noTheta,noVideo,sp07,Dr,Ge,4,1,4,flow/blocks/NoThetaInAudio_NoVideo_A.csv,,,,,,,,,0,1,1,1,0,0,0,19,,,,,,,,,-0.41203703703703703,0.2875,1,0,0,6.117484200003673,call1,-0.006481481481481481,-0.05416666666666667,1,0,0,8.27957859999151,colour3,0.3726851851851852,-0.33055555555555555,1,0,0,9.012337200008915,number4,False,False,True,9,4,2019_Nov_12_1059,MA_Theta_Exp,3.0.7,60.13500308255712,
video/Experiment/zh_sp07_Ad_Ro_2_NoThetaInAudio_NoVideo.avi,noTheta,noVideo,sp07,Ad,Ro,2,1,4,flow/blocks/NoThetaInAudio_NoVideo_A.csv,,,,,,,,,0,1,1,1,0,1,1,9,,,,,,,,,-0.41898148148148145,0.3138888888888889,1,0,0,4.36449089999951,call1,-0.038425925925925926,-0.1125,1,0,0,5.076944600004936,colour3,0.3712962962962963,0.06388888888888888,1,0,0,5.7475285999971675,number2,True,True,True,9,4,2019_Nov_12_1059,MA_Theta_Exp,3.0.7,60.13500308255712,
video/Experiment/zh_sp01_Ad_We_3_NoThetaInAudio_NoVideo.avi,noTheta,noVideo,sp01,Ad,We,3,1,4,flow/blocks/NoThetaInAudio_NoVideo_A.csv,,,,,,,,,0,1,1,1,0,2,2,14,,,,,,,,,-0.4064814814814815,0.32916666666666666,1,0,0,5.719774299999699,call1,0.0032407407407407406,-0.32916666666666666,1,0,0,7.036691000001156,colour4,0.3476851851851852,-0.13333333333333333,1,0,0,7.6846747000090545,number3,True,True,True,9,4,2019_Nov_12_1059,MA_Theta_Exp,3.0.7,60.13500308255712,
video/Experiment/zh_sp01_Dr_Ro_4_NoThetaInAudio_NoVideo.avi,noTheta,noVideo,sp01,Dr,Ro,4,1,4,flow/blocks/NoThetaInAudio_NoVideo_A.csv,,,,,,,,,0,1,1,1,0,3,3,27,,,,,,,,,-0.42314814814814816,0.10138888888888889,1,0,0,5.353306100005284,call2,0.0032407407407407406,-0.09583333333333334,1,0,0,6.184575999999652,colour3,0.34629629629629627,-0.28055555555555556,1,0,0,6.918281100006425,number4,True,True,True,9,4,2019_Nov_12_1059,MA_Theta_Exp,3.0.7,60.13500308255712,
video/Experiment/zh_sp07_Dr_We_4_NoThetaInAudio_NoVideo.avi,noTheta,noVideo,sp07,Dr,We,4,1,4,flow/blocks/NoThetaInAudio_NoVideo_A.csv,,,,,,,,,0,1,1,1,0,4,4,31,,,,,,,,,-0.38842592592592595,0.059722222222222225,1,0,0,4.780012300005183,call2,0.000462962962962963,-0.3013888888888889,1,0,0,5.680899899991346,colour4,0.36574074074074076,-0.3194444444444444,1,0,0,6.785443399989163,number4,True,True,True,9,4,2019_Nov_12_1059,MA_Theta_Exp,3.0.7,60.13500308255712,
video/Experiment/zh_sp01_Ad_We_1_NoThetaInAudio_NoVideo.avi,noTheta,noVideo,sp01,Ad,We,1,1,4,flow/blocks/NoThetaInAudio_NoVideo_A.csv,,,,,,,,,0,1,1,1,0,5,5,12,,,,,,,,,-0.4078703703703704,0.2972222222222222,1,0,0,5.488134900006116,call1,-0.010648148148148148,-0.32083333333333336,1,0,0,6.337299300008453,colour4,0.3851851851851852,0.3680555555555556,1,0,0,7.185288599997875,number1,True,True,True,9,4,2019_Nov_12_1059,MA_Theta_Exp,3.0.7,60.13500308255712,
video/Experiment/zh_sp07_Ad_Ge_1_NoThetaInAudio_NoVideo.avi,noTheta,noVideo,sp07,Ad,Ge,1,1,4,flow/blocks/NoThetaInAudio_NoVideo_A.csv,,,,,,,,,0,1,1,1,0,6,6,0,,,,,,,,,-0.43842592592592594,0.3263888888888889,1,0,0,4.7603392000019085,call1,-0.006481481481481481,0.3,1,0,0,5.590363899988006,colour1,0.3976851851851852,0.2861111111111111,1,0,0,6.320485300006112,number1,True,True,True,9,4,2019_Nov_12_1059,MA_Theta_Exp,3.0.7,60.13500308255712,
video/Experiment/zh_sp07_Dr_Ro_1_NoThetaInAudio_NoVideo.avi,noTheta,noVideo,sp07,Dr,Ro,1,1,4,flow/blocks/NoThetaInAudio_NoVideo_A.csv,,,,,,,,,0,1,1,1,0,7,7,24,,,,,,,,,-0.4134259259259259,0.08472222222222223,1,0,0,4.639641000001575,call2,-0.05787037037037037,-0.08611111111111111,1,0,0,5.216571400000248,colour3,0.35324074074074074,0.2833333333333333,1,0,0,5.986739700005273,number1,True,True,True,9,4,2019_Nov_12_1059,MA_Theta_Exp,3.0.7,60.13500308255712,
video/Experiment/zh_sp01_Dr_We_3_NoThetaInAudio_NoVideo.avi,noTheta,noVideo,sp01,Dr,We,3,1,4,flow/blocks/NoThetaInAudio_NoVideo_A.csv,,,,,,,,,0,1,1,1,0,8,8,30,,,,,,,,,-0.4300925925925926,0.1388888888888889,1,0,0,5.178603399996064,call2,-0.038425925925925926,-0.3236111111111111,1,0,0,5.927487199995085,colour4,0.3837962962962963,-0.09861111111111111,1,0,0,6.46194850000029,number3,True,True,True,9,4,2019_Nov_12_1059,MA_Theta_Exp,3.0.7,60.13500308255712,
video/Experiment/zh_sp01_Dr_Ro_2_NoThetaInAudio_NoVideo.avi,noTheta,noVideo,sp01,Dr,Ro,2,1,4,flow/blocks/NoThetaInAudio_NoVideo_A.csv,,,,,,,,,0,1,1,1,0,9,9,25,,,,,,,,,-0.40925925925925927,0.09305555555555556,1,0,0,6.153169899989734,call2,-0.05787037037037037,-0.08055555555555556,1,0,0,6.7056481000036,colour3,0.3921296296296296,0.09861111111111111,1,0,0,7.250794899999164,number2,True,True,True,9,4,2019_Nov_12_1059,MA_Theta_Exp,3.0.7,60.13500308255712,
video/Experiment/zh_sp07_Dr_Ge_1_NoThetaInAudio_NoVideo.avi,noTheta,noVideo,sp07,Dr,Ge,1,1,4,flow/blocks/NoThetaInAudio_NoVideo_A.csv,,,,,,,,,0,1,1,1,0,10,10,16,,,,,,,,,-0.3578703703703704,0.09166666666666666,1,0,0,4.983480299997609,call2,-0.025925925925925925,0.30694444444444446,1,0,0,5.645447899994906,colour1,0.42407407407407405,0.2986111111111111,1,0,0,6.261694500004523,number1,True,True,True,9,4,2019_Nov_12_1059,MA_Theta_Exp,3.0.7,60.13500308255712,
video/Experiment/zh_sp01_Ad_Ge_3_NoThetaInAudio_NoVideo.avi,noTheta,noVideo,sp01,Ad,Ge,3,1,4,flow/blocks/NoThetaInAudio_NoVideo_A.csv,,,,,,,,,0,1,1,1,0,11,11,2,,,,,,,,,-0.4148148148148148,0.33611111111111114,1,0,0,6.260539400012931,call1,-0.038425925925925926,0.3375,1,0,0,6.864225199999055,colour1,0.350462962962963,-0.12222222222222222,1,0,0,7.64609520000522,number3,True,True,True,9,4,2019_Nov_12_1059,MA_Theta_Exp,3.0.7,60.13500308255712,
video/Experiment/zh_sp01_Dr_Gr_4_NoThetaInAudio_NoVideo.avi,noTheta,noVideo,sp01,Dr,Gr,4,1,4,flow/blocks/NoThetaInAudio_NoVideo_A.csv,,,,,,,,,0,1,1,1,0,12,12,23,,,,,,,,,-0.4050925925925926,0.10277777777777777,1,0,0,5.274548999994295,call2,-0.000925925925925926,0.11666666666666667,1,0,0,5.858357799996156,colour2,0.4185185185185185,-0.3194444444444444,1,0,0,6.696128199997474,number4,True,True,True,9,4,2019_Nov_12_1059,MA_Theta_Exp,3.0.7,60.13500308255712,
video/Experiment/zh_sp07_Dr_Gr_1_NoThetaInAudio_NoVideo.avi,noTheta,noVideo,sp07,Dr,Gr,1,1,4,flow/blocks/NoThetaInAudio_NoVideo_A.csv,,,,,,,,,0,1,1,1,0,13,13,20,,,,,,,,,-0.40925925925925927,0.10555555555555556,1,0,0,4.644643399995402,call2,-0.06342592592592593,0.1125,1,0,0,5.17767219999223,colour2,0.4060185185185185,0.26666666666666666,1,0,0,5.716617799989763,number1,True,True,True,9,4,2019_Nov_12_1059,MA_Theta_Exp,3.0.7,60.13500308255712,
video/Experiment/zh_sp07_Ad_Ro_1_NoThetaInAudio_NoVideo.avi,noTheta,noVideo,sp07,Ad,Ro,1,1,4,flow/blocks/NoThetaInAudio_NoVideo_A.csv,,,,,,,,,0,1,1,1,0,14,14,8,,,,,,,,,-0.39814814814814814,0.09861111111111111,1,0,0,4.560097899986431,call2,-0.006481481481481481,-0.09444444444444444,1,0,0,5.177188299989211,colour3,0.3726851851851852,0.28055555555555556,1,0,0,5.72706200000539,number1,False,True,True,9,4,2019_Nov_12_1059,MA_Theta_Exp,3.0.7,60.13500308255712,
video/Experiment/zh_sp01_Ad_Ro_4_NoThetaInAudio_NoVideo.avi,noTheta,noVideo,sp01,Ad,Ro,4,1,4,flow/blocks/NoThetaInAudio_NoVideo_A.csv,,,,,,,,,0,1,1,1,0,15,15,11,,,,,,,,,-0.37592592592592594,0.13333333333333333,1,0,0,5.920765000002575,call2,-0.03148148148148148,-0.0875,1,0,0,6.467593100009253,colour3,0.40185185185185185,-0.33194444444444443,1,0,0,6.988949999999022,number4,False,True,True,9,4,2019_Nov_12_1059,MA_Theta_Exp,3.0.7,60.13500308255712,
video/Experiment/zh_sp01_Dr_Ge_3_NoThetaInAudio_NoVideo.avi,noTheta,noVideo,sp01,Dr,Ge,3,1,4,flow/blocks/NoThetaInAudio_NoVideo_A.csv,,,,,,,,,0,1,1,1,0,16,16,18,,,,,,,,,-0.44537037037037036,0.09305555555555556,1,0,0,4.934870899989619,call2,-0.024537037037037038,0.27361111111111114,1,0,0,5.512266999998246,colour1,0.3768518518518518,-0.08888888888888889,1,0,0,6.094540999998571,number3,True,True,True,9,4,2019_Nov_12_1059,MA_Theta_Exp,3.0.7,60.13500308255712,
video/Experiment/zh_sp07_Ad_Ge_4_NoThetaInAudio_NoVideo.avi,noTheta,noVideo,sp07,Ad,Ge,4,1,4,flow/blocks/NoThetaInAudio_NoVideo_A.csv,,,,,,,,,0,1,1,1,0,17,17,3,,,,,,,,,-0.38564814814814813,0.11388888888888889,1,0,0,4.935073899992858,call2,-0.03981481481481482,0.31805555555555554,1,0,0,5.4519179000053555,colour1,0.4351851851851852,-0.29583333333333334,1,0,0,6.208720099995844,number4,False,True,True,9,4,2019_Nov_12_1059,MA_Theta_Exp,3.0.7,60.13500308255712,
video/Experiment/zh_sp01_Ad_Gr_3_NoThetaInAudio_NoVideo.avi,noTheta,noVideo,sp01,Ad,Gr,3,1,4,flow/blocks/NoThetaInAudio_NoVideo_A.csv,,,,,,,,,0,1,1,1,0,18,18,6,,,,,,,,,-0.37592592592592594,0.3527777777777778,1,0,0,5.098947299993597,call1,-0.017592592592592594,0.08333333333333333,1,0,0,5.844152100005886,colour2,0.35462962962962963,-0.13194444444444445,1,0,0,6.466538299995591,number3,True,True,True,9,4,2019_Nov_12_1059,MA_Theta_Exp,3.0.7,60.13500308255712,
video/Experiment/zh_sp01_Dr_We_2_NoThetaInAudio_NoVideo.avi,noTheta,noVideo,sp01,Dr,We,2,1,4,flow/blocks/NoThetaInAudio_NoVideo_A.csv,,,,,,,,,0,1,1,1,0,19,19,29,,,,,,,,,-0.37037037037037035,0.10555555555555556,1,0,0,5.233416100003524,call2,-0.005092592592592593,-0.2861111111111111,1,0,0,5.913322699998389,colour4,0.33101851851851855,0.09305555555555556,1,0,0,6.563618000000133,number2,True,True,True,9,4,2019_Nov_12_1059,MA_Theta_Exp,3.0.7,60.13500308255712,
video/Experiment/zh_sp07_Ad_Gr_4_NoThetaInAudio_NoVideo.avi,noTheta,noVideo,sp07,Ad,Gr,4,1,4,flow/blocks/NoThetaInAudio_NoVideo_A.csv,,,,,,,,,0,1,1,1,0,20,20,7,,,,,,,,,-0.37175925925925923,0.3138888888888889,1,0,0,4.5667398999939905,call1,-0.017592592592592594,0.09444444444444444,1,0,0,5.104948199994396,colour2,0.3962962962962963,-0.30972222222222223,1,0,0,5.654901100002462,number4,True,True,True,9,4,2019_Nov_12_1059,MA_Theta_Exp,3.0.7,60.13500308255712,
video/Experiment/zh_sp01_Dr_We_1_NoThetaInAudio_NoVideo.avi,noTheta,noVideo,sp01,Dr,We,1,1,4,flow/blocks/NoThetaInAudio_NoVideo_A.csv,,,,,,,,,0,1,1,1,0,21,21,28,,,,,,,,,-0.37175925925925923,0.08055555555555556,1,0,0,5.32678049999231,call2,-0.024537037037037038,-0.2791666666666667,1,0,0,5.976920799992513,colour4,0.4199074074074074,0.29444444444444445,1,0,0,6.843612700002268,number1,True,True,True,9,4,2019_Nov_12_1059,MA_Theta_Exp,3.0.7,60.13500308255712,
video/Experiment/zh_sp07_Dr_Gr_2_NoThetaInAudio_NoVideo.avi,noTheta,noVideo,sp07,Dr,Gr,2,1,4,flow/blocks/NoThetaInAudio_NoVideo_A.csv,,,,,,,,,0,1,1,1,0,22,22,21,,,,,,,,,-0.3925925925925926,0.30416666666666664,1,0,0,4.801470499995048,call1,-0.000925925925925926,0.10694444444444444,1,0,0,5.313675899989903,colour2,0.3976851851851852,0.08888888888888889,1,0,0,5.787804700012202,number2,False,True,True,9,4,2019_Nov_12_1059,MA_Theta_Exp,3.0.7,60.13500308255712,
video/Experiment/zh_sp01_Ad_We_2_NoThetaInAudio_NoVideo.avi,noTheta,noVideo,sp01,Ad,We,2,1,4,flow/blocks/NoThetaInAudio_NoVideo_A.csv,,,,,,,,,0,1,1,1,0,23,23,13,,,,,,,,,-0.40370370370370373,0.3416666666666667,1,0,0,5.289376800006721,call1,-0.01898148148148148,-0.32083333333333336,1,0,0,6.1419164999970235,colour4,0.3837962962962963,0.13333333333333333,1,0,0,6.885532000000239,number2,True,True,True,9,4,2019_Nov_12_1059,MA_Theta_Exp,3.0.7,60.13500308255712,
video/Experiment/zh_sp01_Dr_Ro_3_NoThetaInAudio_NoVideo.avi,noTheta,noVideo,sp01,Dr,Ro,3,1,4,flow/blocks/NoThetaInAudio_NoVideo_A.csv,,,,,,,,,0,1,1,1,0,24,24,26,,,,,,,,,-0.41203703703703703,0.08888888888888889,1,0,0,5.10791409999365,call2,-0.005092592592592593,-0.125,1,0,0,5.654344700000365,colour3,0.4046296296296296,-0.08333333333333333,1,0,0,6.222356500002206,number3,True,True,True,9,4,2019_Nov_12_1059,MA_Theta_Exp,3.0.7,60.13500308255712,
video/Experiment/zh_sp07_Ad_Gr_1_NoThetaInAudio_NoVideo.avi,noTheta,noVideo,sp07,Ad,Gr,1,1,4,flow/blocks/NoThetaInAudio_NoVideo_A.csv,,,,,,,,,0,1,1,1,0,25,25,4,,,,,,,,,-0.48842592592592593,0.31666666666666665,1,0,0,4.679404599999543,call1,-0.020370370370370372,0.09861111111111111,1,0,0,5.263169900004868,colour2,0.36435185185185187,0.30972222222222223,1,0,0,5.781321200003731,number1,True,True,True,9,4,2019_Nov_12_1059,MA_Theta_Exp,3.0.7,60.13500308255712,
video/Experiment/zh_sp07_Ad_Ge_2_NoThetaInAudio_NoVideo.avi,noTheta,noVideo,sp07,Ad,Ge,2,1,4,flow/blocks/NoThetaInAudio_NoVideo_A.csv,,,,,,,,,0,1,1,1,0,26,26,1,,,,,,,,,-0.3787037037037037,0.2875,1,0,0,4.440988700007438,call1,0.03657407407407407,0.30694444444444446,1,0,0,5.008118700003251,colour1,0.4101851851851852,0.08333333333333333,1,0,0,5.558570399996825,number2,True,True,True,9,4,2019_Nov_12_1059,MA_Theta_Exp,3.0.7,60.13500308255712,
video/Experiment/zh_sp07_Dr_Ge_2_NoThetaInAudio_NoVideo.avi,noTheta,noVideo,sp07,Dr,Ge,2,1,4,flow/blocks/NoThetaInAudio_NoVideo_A.csv,,,,,,,,,0,1,1,1,0,27,27,17,,,,,,,,,-0.45787037037037037,0.10277777777777777,1,0,0,4.874605700009852,call2,-0.08564814814814815,0.30416666666666664,1,0,0,5.378021299999091,colour1,0.3921296296296296,0.06944444444444445,1,0,0,6.008272500010207,number2,True,True,True,9,4,2019_Nov_12_1059,MA_Theta_Exp,3.0.7,60.13500308255712,
video/Experiment/zh_sp07_Ad_Gr_2_NoThetaInAudio_NoVideo.avi,noTheta,noVideo,sp07,Ad,Gr,2,1,4,flow/blocks/NoThetaInAudio_NoVideo_A.csv,,,,,,,,,0,1,1,1,0,28,28,5,,,,,,,,,-0.41064814814814815,0.35694444444444445,1,0,0,4.455564399991999,call1,-0.012037037037037037,0.1375,1,0,0,4.99395600000571,colour2,0.3768518518518518,0.10277777777777777,1,0,0,5.9109107999975095,number2,True,True,True,9,4,2019_Nov_12_1059,MA_Theta_Exp,3.0.7,60.13500308255712,
video/Experiment/zh_sp07_Dr_Gr_3_NoThetaInAudio_NoVideo.avi,noTheta,noVideo,sp07,Dr,Gr,3,1,4,flow/blocks/NoThetaInAudio_NoVideo_A.csv,,,,,,,,,0,1,1,1,0,29,29,22,,,,,,,,,-0.35648148148148145,0.10416666666666667,1,0,0,5.80100959999254,call2,0.06851851851851852,0.10416666666666667,1,0,0,6.286847900002613,colour2,0.412962962962963,-0.08055555555555556,1,0,0,6.797860999999102,number3,True,True,True,9,4,2019_Nov_12_1059,MA_Theta_Exp,3.0.7,60.13500308255712,
video/Experiment/zh_sp01_Ad_Ro_3_NoThetaInAudio_NoVideo.avi,noTheta,noVideo,sp01,Ad,Ro,3,1,4,flow/blocks/NoThetaInAudio_NoVideo_A.csv,,,,,,,,,0,1,1,1,0,30,30,10,,,,,,,,,-0.3453703703703704,0.2902777777777778,1,0,0,5.084572399995523,call1,-0.003703703703703704,-0.08472222222222223,1,0,0,5.729229100004886,colour3,0.3851851851851852,-0.125,1,0,0,6.195423899989692,number3,True,True,True,9,4,2019_Nov_12_1059,MA_Theta_Exp,3.0.7,60.13500308255712,
video/Experiment/zh_sp01_Ad_We_4_NoThetaInAudio_NoVideo.avi,noTheta,noVideo,sp01,Ad,We,4,1,4,flow/blocks/NoThetaInAudio_NoVideo_A.csv,,,,,,,,,0,1,1,1,0,31,31,15,,,,,,,,,-0.4425925925925926,0.2861111111111111,1,0,0,4.957884699993883,call1,-0.009259259259259259,-0.3013888888888889,1,0,0,5.787511699993047,colour4,0.41574074074074074,-0.33611111111111114,1,0,0,6.346149100005277,number4,True,True,True,9,4,2019_Nov_12_1059,MA_Theta_Exp,3.0.7,60.13500308255712,
video/Experiment/zh_sp07_Ad_Ro_2_NVocInAudio_NoVideo.avi,vocoded,noVideo,sp07,Ad,Ro,2,2,2,flow/blocks/NVocInAudio_NoVideo_A.csv,,,,,,,,,0,2,2,2,0,0,0,9,,,,,,,,,-0.41064814814814815,0.2986111111111111,1,0,0,4.843640999999479,call1,-0.017592592592592594,-0.12777777777777777,1,0,0,5.510461199999554,colour3,0.3824074074074074,0.09166666666666666,1,0,0,6.161101200006669,number2,True,True,True,9,4,2019_Nov_12_1059,MA_Theta_Exp,3.0.7,60.13500308255712,
video/Experiment/zh_sp07_Ad_Gr_1_NVocInAudio_NoVideo.avi,vocoded,noVideo,sp07,Ad,Gr,1,2,2,flow/blocks/NVocInAudio_NoVideo_A.csv,,,,,,,,,0,2,2,2,0,1,1,4,,,,,,,,,-0.4203703703703704,0.3013888888888889,1,0,0,4.566173199986224,call1,0.0032407407407407406,0.10694444444444444,1,0,0,5.119894799994654,colour2,0.35185185185185186,0.275,1,0,0,5.680649600006291,number1,True,True,True,9,4,2019_Nov_12_1059,MA_Theta_Exp,3.0.7,60.13500308255712,
video/Experiment/zh_sp01_Dr_Ro_4_NVocInAudio_NoVideo.avi,vocoded,noVideo,sp01,Dr,Ro,4,2,2,flow/blocks/NVocInAudio_NoVideo_A.csv,,,,,,,,,0,2,2,2,0,2,2,27,,,,,,,,,-0.3787037037037037,0.08055555555555556,1,0,0,4.985512300001574,call2,-0.060648148148148145,-0.12083333333333333,1,0,0,5.514008099999046,colour3,0.362962962962963,-0.325,1,0,0,6.247428499991656,number4,True,True,True,9,4,2019_Nov_12_1059,MA_Theta_Exp,3.0.7,60.13500308255712,
video/Experiment/zh_sp01_Ad_We_2_NVocInAudio_NoVideo.avi,vocoded,noVideo,sp01,Ad,We,2,2,2,flow/blocks/NVocInAudio_NoVideo_A.csv,,,,,,,,,0,2,2,2,0,3,3,13,,,,,,,,,-0.3578703703703704,0.26666666666666666,1,0,0,5.161778299996513,call1,0.0032407407407407406,-0.2861111111111111,1,0,0,5.954195400001481,colour4,0.3351851851851852,0.0763888888888889,1,0,0,6.62660550000146,number2,True,True,True,9,4,2019_Nov_12_1059,MA_Theta_Exp,3.0.7,60.13500308255712,
video/Experiment/zh_sp07_Dr_Ro_2_NVocInAudio_NoVideo.avi,vocoded,noVideo,sp07,Dr,Ro,2,2,2,flow/blocks/NVocInAudio_NoVideo_A.csv,,,,,,,,,0,2,2,2,0,4,4,25,,,,,,,,,-0.44675925925925924,0.35,1,0,0,5.875691399996867,call1,-0.4287037037037037,0.13055555555555556,1,0,0,6.838867499987828,colour3,0.3921296296296296,0.14722222222222223,1,0,0,8.167789500002982,number2,False,True,True,9,4,2019_Nov_12_1059,MA_Theta_Exp,3.0.7,60.13500308255712,
video/Experiment/zh_sp07_Dr_Gr_3_NVocInAudio_NoVideo.avi,vocoded,noVideo,sp07,Dr,Gr,3,2,2,flow/blocks/NVocInAudio_NoVideo_A.csv,,,,,,,,,0,2,2,2,0,5,5,22,,,,,,,,,-0.4023148148148148,0.06805555555555555,1,0,0,5.324637800003984,call2,-0.053703703703703705,0.07222222222222222,1,0,0,5.940945400012424,colour2,0.36157407407407405,-0.09583333333333334,1,0,0,6.6078575999999885,number3,True,True,True,9,4,2019_Nov_12_1059,MA_Theta_Exp,3.0.7,60.13500308255712,
video/Experiment/zh_sp07_Ad_Ro_1_NVocInAudio_NoVideo.avi,vocoded,noVideo,sp07,Ad,Ro,1,2,2,flow/blocks/NVocInAudio_NoVideo_A.csv,,,,,,,,,0,2,2,2,0,6,6,8,,,,,,,,,-0.4398148148148148,0.30277777777777776,1,0,0,5.077516500008642,call1,-0.03425925925925926,-0.11527777777777778,1,0,0,5.772493500000564,colour3,0.4310185185185185,0.28194444444444444,1,0,0,6.5135635000042384,number1,True,True,True,9,4,2019_Nov_12_1059,MA_Theta_Exp,3.0.7,60.13500308255712,
video/Experiment/zh_sp01_Ad_Gr_3_NVocInAudio_NoVideo.avi,vocoded,noVideo,sp01,Ad,Gr,3,2,2,flow/blocks/NVocInAudio_NoVideo_A.csv,,,,,,,,,0,2,2,2,0,7,7,6,,,,,,,,,-0.38287037037037036,0.30277777777777776,1,0,0,5.787350699989474,call1,-0.016203703703703703,0.10416666666666667,1,0,0,6.321855999995023,colour2,0.39490740740740743,-0.13472222222222222,1,0,0,6.946607899997616,number3,True,True,True,9,4,2019_Nov_12_1059,MA_Theta_Exp,3.0.7,60.13500308255712,
video/Experiment/zh_sp07_Ad_Ge_1_NVocInAudio_NoVideo.avi,vocoded,noVideo,sp07,Ad,Ge,1,2,2,flow/blocks/NVocInAudio_NoVideo_A.csv,,,,,,,,,0,2,2,2,0,8,8,0,,,,,,,,,-0.4050925925925926,0.30972222222222223,1,0,0,5.283858199996757,call1,-0.012037037037037037,0.28888888888888886,1,0,0,5.8032358000054955,colour1,0.3699074074074074,0.2986111111111111,1,0,0,6.333701199997449,number1,True,True,True,9,4,2019_Nov_12_1059,MA_Theta_Exp,3.0.7,60.13500308255712,
video/Experiment/zh_sp07_Ad_Ge_4_NVocInAudio_NoVideo.avi,vocoded,noVideo,sp07,Ad,Ge,4,2,2,flow/blocks/NVocInAudio_NoVideo_A.csv,,,,,,,,,0,2,2,2,0,9,9,3,,,,,,,,,-0.3939814814814815,0.3,1,0,0,5.285221000012825,call1,0.024074074074074074,0.3,1,0,0,5.927639100002125,colour1,0.38657407407407407,-0.33055555555555555,1,0,0,6.748036199991475,number4,True,True,True,9,4,2019_Nov_12_1059,MA_Theta_Exp,3.0.7,60.13500308255712,
video/Experiment/zh_sp01_Ad_Gr_4_NVocInAudio_NoVideo.avi,vocoded,noVideo,sp01,Ad,Gr,4,2,2,flow/blocks/NVocInAudio_NoVideo_A.csv,,,,,,,,,0,2,2,2,0,10,10,7,,,,,,,,,-0.3537037037037037,0.2847222222222222,1,0,0,5.637317500004428,call1,0.050462962962962966,0.04583333333333333,1,0,0,6.670661399999517,colour2,0.3712962962962963,-0.29305555555555557,1,0,0,7.255558199991356,number4,True,True,True,9,4,2019_Nov_12_1059,MA_Theta_Exp,3.0.7,60.13500308255712,
video/Experiment/zh_sp07_Dr_We_1_NVocInAudio_NoVideo.avi,vocoded,noVideo,sp07,Dr,We,1,2,2,flow/blocks/NVocInAudio_NoVideo_A.csv,,,,,,,,,0,2,2,2,0,11,11,28,,,,,,,,,-0.39537037037037037,0.10555555555555556,1,0,0,4.682085199994617,call2,-0.04953703703703704,-0.30416666666666664,1,0,0,5.483256599996821,colour4,0.3212962962962963,0.25833333333333336,1,0,0,6.227885999993305,number1,True,True,True,9,4,2019_Nov_12_1059,MA_Theta_Exp,3.0.7,60.13500308255712,
video/Experiment/zh_sp07_Dr_Ge_3_NVocInAudio_NoVideo.avi,vocoded,noVideo,sp07,Dr,Ge,3,2,2,flow/blocks/NVocInAudio_NoVideo_A.csv,,,,,,,,,0,2,2,2,0,12,12,18,,,,,,,,,-0.43287037037037035,0.10972222222222222,1,0,0,4.60010080000211,call2,-0.025925925925925925,0.29583333333333334,1,0,0,5.363254199997755,colour1,0.3976851851851852,-0.0875,1,0,0,5.948045500001172,number3,True,True,True,9,4,2019_Nov_12_1059,MA_Theta_Exp,3.0.7,60.13500308255712,
video/Experiment/zh_sp01_Dr_We_3_NVocInAudio_NoVideo.avi,vocoded,noVideo,sp01,Dr,We,3,2,2,flow/blocks/NVocInAudio_NoVideo_A.csv,,,,,,,,,0,2,2,2,0,13,13,30,,,,,,,,,-0.44814814814814813,0.08472222222222223,1,0,0,5.39649179999833,call2,-0.03009259259259259,-0.31666666666666665,1,0,0,6.1935602000012295,colour4,0.4046296296296296,-0.11944444444444445,1,0,0,6.800863800002844,number3,True,True,True,9,4,2019_Nov_12_1059,MA_Theta_Exp,3.0.7,60.13500308255712,
video/Experiment/zh_sp01_Dr_Ge_1_NVocInAudio_NoVideo.avi,vocoded,noVideo,sp01,Dr,Ge,1,2,2,flow/blocks/NVocInAudio_NoVideo_A.csv,,,,,,,,,0,2,2,2,0,14,14,16,,,,,,,,,-0.38981481481481484,0.11944444444444445,1,0,0,5.264076200008276,call2,-0.01898148148148148,0.2986111111111111,1,0,0,5.829670000006445,colour1,0.3837962962962963,0.2916666666666667,1,0,0,6.352324300009059,number1,True,True,True,9,4,2019_Nov_12_1059,MA_Theta_Exp,3.0.7,60.13500308255712,
video/Experiment/zh_sp07_Dr_Ge_2_NVocInAudio_NoVideo.avi,vocoded,noVideo,sp07,Dr,Ge,2,2,2,flow/blocks/NVocInAudio_NoVideo_A.csv,,,,,,,,,0,2,2,2,0,15,15,17,,,,,,,,,-0.43148148148148147,0.09305555555555556,1,0,0,5.0321854000067106,call2,-0.013425925925925926,0.275,1,0,0,5.759251499999664,colour1,0.37407407407407406,0.08611111111111111,1,0,0,6.510189700013143,number2,True,True,True,9,4,2019_Nov_12_1059,MA_Theta_Exp,3.0.7,60.13500308255712,
video/Experiment/zh_sp01_Ad_Ge_2_NVocInAudio_NoVideo.avi,vocoded,noVideo,sp01,Ad,Ge,2,2,2,flow/blocks/NVocInAudio_NoVideo_A.csv,,,,,,,,,0,2,2,2,0,16,16,1,,,,,,,,,-0.4300925925925926,0.31805555555555554,1,0,0,5.131649900009506,call1,0.021296296296296296,0.3138888888888889,1,0,0,5.644468800004688,colour1,0.3907407407407407,0.08194444444444444,1,0,0,6.17850370000815,number2,True,True,True,9,4,2019_Nov_12_1059,MA_Theta_Exp,3.0.7,60.13500308255712,
video/Experiment/zh_sp01_Ad_Ge_3_NVocInAudio_NoVideo.avi,vocoded,noVideo,sp01,Ad,Ge,3,2,2,flow/blocks/NVocInAudio_NoVideo_A.csv,,,,,,,,,0,2,2,2,0,17,17,2,,,,,,,,,-0.4412037037037037,0.33611111111111114,1,0,0,5.06985290000739,call1,-0.012037037037037037,0.30694444444444446,1,0,0,5.579823399995803,colour1,0.3587962962962963,-0.058333333333333334,1,0,0,6.352636900002835,number3,True,True,True,9,4,2019_Nov_12_1059,MA_Theta_Exp,3.0.7,60.13500308255712,
video/Experiment/zh_sp01_Ad_We_4_NVocInAudio_NoVideo.avi,vocoded,noVideo,sp01,Ad,We,4,2,2,flow/blocks/NVocInAudio_NoVideo_A.csv,,,,,,,,,0,2,2,2,0,18,18,15,,,,,,,,,-0.36203703703703705,0.2916666666666667,1,0,0,6.664924700002302,call1,-0.012037037037037037,-0.35138888888888886,1,0,0,7.557439800002612,colour4,0.33935185185185185,-0.30833333333333335,1,0,0,8.062555899989093,number4,True,True,True,9,4,2019_Nov_12_1059,MA_Theta_Exp,3.0.7,60.13500308255712,
video/Experiment/zh_sp07_Dr_Gr_2_NVocInAudio_NoVideo.avi,vocoded,noVideo,sp07,Dr,Gr,2,2,2,flow/blocks/NVocInAudio_NoVideo_A.csv,,,,,,,,,0,2,2,2,0,19,19,21,,,,,,,,,-0.38287037037037036,0.0763888888888889,1,0,0,4.745718799997121,call2,-0.020370370370370372,0.09861111111111111,1,0,0,5.184640000006766,colour2,0.46574074074074073,0.10555555555555556,1,0,0,5.630047400001786,number2,True,True,True,9,4,2019_Nov_12_1059,MA_Theta_Exp,3.0.7,60.13500308255712,
video/Experiment/zh_sp01_Dr_Gr_4_NVocInAudio_NoVideo.avi,vocoded,noVideo,sp01,Dr,Gr,4,2,2,flow/blocks/NVocInAudio_NoVideo_A.csv,,,,,,,,,0,2,2,2,0,20,20,23,,,,,,,,,-0.36064814814814816,0.06388888888888888,1,0,0,5.449846999996225,call2,0.001851851851851852,0.08194444444444444,1,0,0,5.917441699988558,colour2,0.38657407407407407,-0.25833333333333336,1,0,0,6.577325100006419,number4,True,True,True,9,4,2019_Nov_12_1059,MA_Theta_Exp,3.0.7,60.13500308255712,
video/Experiment/zh_sp07_Dr_Ge_4_NVocInAudio_NoVideo.avi,vocoded,noVideo,sp07,Dr,Ge,4,2,2,flow/blocks/NVocInAudio_NoVideo_A.csv,,,,,,,,,0,2,2,2,0,21,21,19,,,,,,,,,-0.38981481481481484,0.1,1,0,0,5.3024637999915285,call2,-0.014814814814814815,0.2777777777777778,1,0,0,6.312667199992575,colour1,0.36157407407407405,-0.275,1,0,0,7.213066500000423,number4,True,True,True,9,4,2019_Nov_12_1059,MA_Theta_Exp,3.0.7,60.13500308255712,
video/Experiment/zh_sp01_Dr_Ro_3_NVocInAudio_NoVideo.avi,vocoded,noVideo,sp01,Dr,Ro,3,2,2,flow/blocks/NVocInAudio_NoVideo_A.csv,,,,,,,,,0,2,2,2,0,22,22,26,,,,,,,,,-0.37453703703703706,0.08472222222222223,1,0,0,5.252369099995121,call2,0.01712962962962963,-0.15416666666666667,1,0,0,5.813445699997828,colour3,0.34629629629629627,-0.13055555555555556,1,0,0,6.4801676999923075,number3,True,True,True,9,4,2019_Nov_12_1059,MA_Theta_Exp,3.0.7,60.13500308255712,
video/Experiment/zh_sp01_Dr_Ro_1_NVocInAudio_NoVideo.avi,vocoded,noVideo,sp01,Dr,Ro,1,2,2,flow/blocks/NVocInAudio_NoVideo_A.csv,,,,,,,,,0,2,2,2,0,23,23,24,,,,,,,,,-0.36342592592592593,0.07777777777777778,1,0,0,5.93163980000827,call2,0.011574074074074073,-0.12083333333333333,1,0,0,6.686052200006088,colour3,0.3907407407407407,0.3194444444444444,1,0,0,7.448729199997615,number1,True,True,True,9,4,2019_Nov_12_1059,MA_Theta_Exp,3.0.7,60.13500308255712,
video/Experiment/zh_sp01_Dr_We_4_NVocInAudio_NoVideo.avi,vocoded,noVideo,sp01,Dr,We,4,2,2,flow/blocks/NVocInAudio_NoVideo_A.csv,,,,,,,,,0,2,2,2,0,24,24,31,,,,,,,,,-0.38981481481481484,0.09166666666666666,1,0,0,5.451097400000435,call2,-0.016203703703703703,-0.3236111111111111,1,0,0,6.151996300002793,colour4,0.3907407407407407,-0.28055555555555556,1,0,0,6.984002099998179,number4,True,True,True,9,4,2019_Nov_12_1059,MA_Theta_Exp,3.0.7,60.13500308255712,
video/Experiment/zh_sp07_Ad_Ro_4_NVocInAudio_NoVideo.avi,vocoded,noVideo,sp07,Ad,Ro,4,2,2,flow/blocks/NVocInAudio_NoVideo_A.csv,,,,,,,,,0,2,2,2,0,25,25,11,,,,,,,,,-0.38981481481481484,0.29583333333333334,1,0,0,4.5620791999972425,call1,-0.010648148148148148,-0.11944444444444445,1,0,0,5.44516059999296,colour3,0.37824074074074077,-0.3125,1,0,0,6.228893100007554,number4,True,True,True,9,4,2019_Nov_12_1059,MA_Theta_Exp,3.0.7,60.13500308255712,
video/Experiment/zh_sp07_Dr_Gr_1_NVocInAudio_NoVideo.avi,vocoded,noVideo,sp07,Dr,Gr,1,2,2,flow/blocks/NVocInAudio_NoVideo_A.csv,,,,,,,,,0,2,2,2,0,26,26,20,,,,,,,,,-0.39537037037037037,0.09861111111111111,1,0,0,4.604257500002859,call2,-0.000925925925925926,0.09027777777777778,1,0,0,5.04791040001146,colour2,0.412962962962963,0.30277777777777776,1,0,0,5.552315399996587,number1,True,True,True,9,4,2019_Nov_12_1059,MA_Theta_Exp,3.0.7,60.13500308255712,
video/Experiment/zh_sp01_Ad_We_3_NVocInAudio_NoVideo.avi,vocoded,noVideo,sp01,Ad,We,3,2,2,flow/blocks/NVocInAudio_NoVideo_A.csv,,,,,,,,,0,2,2,2,0,27,27,14,,,,,,,,,-0.41203703703703703,0.3402777777777778,1,0,0,5.208766199997626,call1,-0.017592592592592594,-0.30833333333333335,1,0,0,5.951836100008222,colour4,0.4615740740740741,-0.10416666666666667,1,0,0,6.559582699992461,number3,True,True,True,9,4,2019_Nov_12_1059,MA_Theta_Exp,3.0.7,60.13500308255712,
video/Experiment/zh_sp01_Ad_Ro_3_NVocInAudio_NoVideo.avi,vocoded,noVideo,sp01,Ad,Ro,3,2,2,flow/blocks/NVocInAudio_NoVideo_A.csv,,,,,,,,,0,2,2,2,0,28,28,10,,,,,,,,,-0.399537037037037,0.3,1,0,0,5.967159599997103,call1,-0.012037037037037037,-0.12777777777777777,1,0,0,6.665669599999092,colour3,0.3837962962962963,-0.125,1,0,0,7.204132500002743,number3,True,True,True,9,4,2019_Nov_12_1059,MA_Theta_Exp,3.0.7,60.13500308255712,
video/Experiment/zh_sp07_Ad_We_1_NVocInAudio_NoVideo.avi,vocoded,noVideo,sp07,Ad,We,1,2,2,flow/blocks/NVocInAudio_NoVideo_A.csv,,,,,,,,,0,2,2,2,0,29,29,12,,,,,,,,,-0.37037037037037035,0.29444444444444445,1,0,0,4.464143000004697,call1,-0.005092592592592593,-0.30416666666666664,1,0,0,5.192512300011003,colour4,0.3476851851851852,0.30833333333333335,1,0,0,5.992023400001926,number1,True,True,True,9,4,2019_Nov_12_1059,MA_Theta_Exp,3.0.7,60.13500308255712,
video/Experiment/zh_sp07_Dr_We_2_NVocInAudio_NoVideo.avi,vocoded,noVideo,sp07,Dr,We,2,2,2,flow/blocks/NVocInAudio_NoVideo_A.csv,,,,,,,,,0,2,2,2,0,30,30,29,,,,,,,,,-0.399537037037037,0.31527777777777777,1,0,0,4.934181499993429,call1,-0.41203703703703703,0.1597222222222222,1,0,0,5.832673900004011,colour4,0.36435185185185187,0.08194444444444444,1,0,0,7.300752899987856,number2,False,True,True,9,4,2019_Nov_12_1059,MA_Theta_Exp,3.0.7,60.13500308255712,
video/Experiment/zh_sp01_Ad_Gr_2_NVocInAudio_NoVideo.avi,vocoded,noVideo,sp01,Ad,Gr,2,2,2,flow/blocks/NVocInAudio_NoVideo_A.csv,,,,,,,,,0,2,2,2,0,31,31,5,,,,,,,,,-0.43425925925925923,0.3194444444444444,1,0,0,5.487183600009303,call1,0.031018518518518518,0.059722222222222225,1,0,0,6.335561700005201,colour2,0.39490740740740743,0.1125,1,0,0,6.802019599999767,number2,True,True,True,9,4,2019_Nov_12_1059,MA_Theta_Exp,3.0.7,60.13500308255712,
video/Experiment/zh_sp01_Ad_Ge_3_NoThetaInAudio_GlobalThetaInVideo.avi,noTheta,plusVideo,sp01,Ad,Ge,3,3,3,flow/blocks/NoThetaInAudio_GlobalThetaInVideo_A.csv,,,,,,,,,0,3,3,3,0,0,0,2,,,,,,,,,-0.4009259259259259,0.2916666666666667,1,0,0,6.335201200010488,call1,-0.023148148148148147,-0.11527777777777778,1,0,0,6.930677399999695,colour3,0.40324074074074073,-0.13055555555555556,1,0,0,7.46406840000418,number3,True,False,True,9,4,2019_Nov_12_1059,MA_Theta_Exp,3.0.7,60.13500308255712,
video/Experiment/zh_sp01_Dr_Ge_4_NoThetaInAudio_GlobalThetaInVideo.avi,noTheta,plusVideo,sp01,Dr,Ge,4,3,3,flow/blocks/NoThetaInAudio_GlobalThetaInVideo_A.csv,,,,,,,,,0,3,3,3,0,1,1,19,,,,,,,,,-0.3662037037037037,0.1,1,0,0,5.115030300003127,call2,-0.03287037037037037,0.2916666666666667,1,0,0,5.68202459999884,colour1,0.3824074074074074,-0.30416666666666664,1,0,0,7.425213599999552,number4,True,True,True,9,4,2019_Nov_12_1059,MA_Theta_Exp,3.0.7,60.13500308255712,
video/Experiment/zh_sp07_Ad_We_1_NoThetaInAudio_GlobalThetaInVideo.avi,noTheta,plusVideo,sp07,Ad,We,1,3,3,flow/blocks/NoThetaInAudio_GlobalThetaInVideo_A.csv,,,,,,,,,0,3,3,3,0,2,2,12,,,,,,,,,-0.38287037037037036,0.30277777777777776,1,0,0,4.833562400002847,call1,0.007407407407407408,-0.3416666666666667,1,0,0,5.620763500002795,colour4,0.37824074074074077,0.3055555555555556,1,0,0,6.433373399995617,number1,True,True,True,9,4,2019_Nov_12_1059,MA_Theta_Exp,3.0.7,60.13500308255712,
video/Experiment/zh_sp07_Ad_We_2_NoThetaInAudio_GlobalThetaInVideo.avi,noTheta,plusVideo,sp07,Ad,We,2,3,3,flow/blocks/NoThetaInAudio_GlobalThetaInVideo_A.csv,,,,,,,,,0,3,3,3,0,3,3,13,,,,,,,,,-0.4134259259259259,0.31666666666666665,1,0,0,4.635689300004742,call1,-0.037037037037037035,-0.30972222222222223,1,0,0,5.401048900006572,colour4,0.3726851851851852,0.10138888888888889,1,0,0,6.097379099999671,number2,True,True,True,9,4,2019_Nov_12_1059,MA_Theta_Exp,3.0.7,60.13500308255712,
video/Experiment/zh_sp01_Dr_We_4_NoThetaInAudio_GlobalThetaInVideo.avi,noTheta,plusVideo,sp01,Dr,We,4,3,3,flow/blocks/NoThetaInAudio_GlobalThetaInVideo_A.csv,,,,,,,,,0,3,3,3,0,4,4,31,,,,,,,,,-0.41203703703703703,0.08611111111111111,1,0,0,5.7573818000091705,call2,-0.04398148148148148,-0.3527777777777778,1,0,0,6.600886200001696,colour4,0.3837962962962963,-0.2847222222222222,1,0,0,7.291134300001431,number4,True,True,True,9,4,2019_Nov_12_1059,MA_Theta_Exp,3.0.7,60.13500308255712,
video/Experiment/zh_sp01_Ad_Ro_2_NoThetaInAudio_GlobalThetaInVideo.avi,noTheta,plusVideo,sp01,Ad,Ro,2,3,3,flow/blocks/NoThetaInAudio_GlobalThetaInVideo_A.csv,,,,,,,,,0,3,3,3,0,5,5,9,,,,,,,,,-0.3814814814814815,0.29444444444444445,1,0,0,5.532231400007731,call1,-0.014814814814814815,-0.09583333333333334,1,0,0,6.185029300002498,colour3,0.3365740740740741,0.10833333333333334,1,0,0,6.7762584000010975,number2,True,True,True,9,4,2019_Nov_12_1059,MA_Theta_Exp,3.0.7,60.13500308255712,
video/Experiment/zh_sp07_Ad_Ro_1_NoThetaInAudio_GlobalThetaInVideo.avi,noTheta,plusVideo,sp07,Ad,Ro,1,3,3,flow/blocks/NoThetaInAudio_GlobalThetaInVideo_A.csv,,,,,,,,,0,3,3,3,0,6,6,8,,,,,,,,,-0.4148148148148148,0.3388888888888889,1,0,0,4.417566899996018,call1,-0.009259259259259259,-0.10555555555555556,1,0,0,4.993282399998861,colour3,0.3726851851851852,0.2847222222222222,1,0,0,5.793519900005776,number1,True,True,True,9,4,2019_Nov_12_1059,MA_Theta_Exp,3.0.7,60.13500308255712,
video/Experiment/zh_sp07_Ad_Gr_4_NoThetaInAudio_GlobalThetaInVideo.avi,noTheta,plusVideo,sp07,Ad,Gr,4,3,3,flow/blocks/NoThetaInAudio_GlobalThetaInVideo_A.csv,,,,,,,,,0,3,3,3,0,7,7,7,,,,,,,,,-0.4009259259259259,0.32083333333333336,1,0,0,4.880083900003228,call1,0.004629629629629629,0.06527777777777778,1,0,0,5.708880799997132,colour2,0.4074074074074074,-0.30972222222222223,1,0,0,6.4155361999874,number4,True,True,True,9,4,2019_Nov_12_1059,MA_Theta_Exp,3.0.7,60.13500308255712,
video/Experiment/zh_sp01_Ad_Gr_3_NoThetaInAudio_GlobalThetaInVideo.avi,noTheta,plusVideo,sp01,Ad,Gr,3,3,3,flow/blocks/NoThetaInAudio_GlobalThetaInVideo_A.csv,,,,,,,,,0,3,3,3,0,8,8,6,,,,,,,,,-0.37453703703703706,0.30277777777777776,1,0,0,5.259109299993725,call1,-0.037037037037037035,0.07222222222222222,1,0,0,6.1576109000016,colour2,0.3768518518518518,-0.13333333333333333,1,0,0,6.644906700006686,number3,True,True,True,9,4,2019_Nov_12_1059,MA_Theta_Exp,3.0.7,60.13500308255712,
video/Experiment/zh_sp01_Dr_Ro_2_NoThetaInAudio_GlobalThetaInVideo.avi,noTheta,plusVideo,sp01,Dr,Ro,2,3,3,flow/blocks/NoThetaInAudio_GlobalThetaInVideo_A.csv,,,,,,,,,0,3,3,3,0,9,9,25,,,,,,,,,-0.37453703703703706,0.13194444444444445,1,0,0,5.1669232999993255,call2,-0.038425925925925926,-0.06944444444444445,1,0,0,5.649756399987382,colour3,0.3685185185185185,0.11944444444444445,1,0,0,6.183617000002414,number2,True,True,True,9,4,2019_Nov_12_1059,MA_Theta_Exp,3.0.7,60.13500308255712,
video/Experiment/zh_sp01_Dr_Ge_3_NoThetaInAudio_GlobalThetaInVideo.avi,noTheta,plusVideo,sp01,Dr,Ge,3,3,3,flow/blocks/NoThetaInAudio_GlobalThetaInVideo_A.csv,,,,,,,,,0,3,3,3,0,10,10,18,,,,,,,,,-0.40370370370370373,0.1,1,0,0,5.4669848999910755,call2,-0.0412037037037037,0.2847222222222222,1,0,0,6.177268700004788,colour1,0.37546296296296294,-0.11388888888888889,1,0,0,7.048288800011505,number3,True,True,True,9,4,2019_Nov_12_1059,MA_Theta_Exp,3.0.7,60.13500308255712,
video/Experiment/zh_sp01_Ad_Ge_4_NoThetaInAudio_GlobalThetaInVideo.avi,noTheta,plusVideo,sp01,Ad,Ge,4,3,3,flow/blocks/NoThetaInAudio_GlobalThetaInVideo_A.csv,,,,,,,,,0,3,3,3,0,11,11,3,,,,,,,,,-0.41759259259259257,0.3055555555555556,1,0,0,5.583094599991455,call1,-0.03564814814814815,0.3055555555555556,1,0,0,6.211130600000615,colour1,0.36712962962962964,-0.3472222222222222,1,0,0,7.213536299997941,number4,True,True,True,9,4,2019_Nov_12_1059,MA_Theta_Exp,3.0.7,60.13500308255712,
video/Experiment/zh_sp07_Ad_We_4_NoThetaInAudio_GlobalThetaInVideo.avi,noTheta,plusVideo,sp07,Ad,We,4,3,3,flow/blocks/NoThetaInAudio_GlobalThetaInVideo_A.csv,,,,,,,,,0,3,3,3,0,12,12,15,,,,,,,,,-0.38842592592592595,0.2875,1,0,0,4.4972971999959555,call1,-0.025925925925925925,-0.30416666666666664,1,0,0,5.761765000002924,colour4,0.36435185185185187,-0.31805555555555554,1,0,0,6.262394700010191,number4,True,True,True,9,4,2019_Nov_12_1059,MA_Theta_Exp,3.0.7,60.13500308255712,
video/Experiment/zh_sp07_Dr_Ge_1_NoThetaInAudio_GlobalThetaInVideo.avi,noTheta,plusVideo,sp07,Dr,Ge,1,3,3,flow/blocks/NoThetaInAudio_GlobalThetaInVideo_A.csv,,,,,,,,,0,3,3,3,0,13,13,16,,,,,,,,,-0.42592592592592593,0.07916666666666666,1,0,0,4.740638299990678,call2,0.018518518518518517,0.2972222222222222,1,0,0,5.535327999998117,colour1,0.3768518518518518,0.3055555555555556,1,0,0,6.004715499992017,number1,True,True,True,9,4,2019_Nov_12_1059,MA_Theta_Exp,3.0.7,60.13500308255712,
video/Experiment/zh_sp01_Ad_Gr_1_NoThetaInAudio_GlobalThetaInVideo.avi,noTheta,plusVideo,sp01,Ad,Gr,1,3,3,flow/blocks/NoThetaInAudio_GlobalThetaInVideo_A.csv,,,,,,,,,0,3,3,3,0,14,14,4,,,,,,,,,-0.41203703703703703,0.2916666666666667,1,0,0,6.78755030001048,call1,-0.000925925925925926,0.07361111111111111,1,0,0,7.375765200005844,colour2,0.41574074074074074,0.2916666666666667,1,0,0,7.825640700000804,number1,True,True,True,9,4,2019_Nov_12_1059,MA_Theta_Exp,3.0.7,60.13500308255712,
video/Experiment/zh_sp01_Ad_Gr_2_NoThetaInAudio_GlobalThetaInVideo.avi,noTheta,plusVideo,sp01,Ad,Gr,2,3,3,flow/blocks/NoThetaInAudio_GlobalThetaInVideo_A.csv,,,,,,,,,0,3,3,3,0,15,15,5,,,,,,,,,-0.40370370370370373,0.30833333333333335,1,0,0,5.609074900014093,call1,-0.02175925925925926,0.08888888888888889,1,0,0,6.157099899995956,colour2,0.3962962962962963,0.05694444444444444,1,0,0,6.668056199996499,number2,True,True,True,9,4,2019_Nov_12_1059,MA_Theta_Exp,3.0.7,60.13500308255712,
video/Experiment/zh_sp07_Ad_Ge_2_NoThetaInAudio_GlobalThetaInVideo.avi,noTheta,plusVideo,sp07,Ad,Ge,2,3,3,flow/blocks/NoThetaInAudio_GlobalThetaInVideo_A.csv,,,,,,,,,0,3,3,3,0,16,16,1,,,,,,,,,-0.42453703703703705,0.30277777777777776,1,0,0,4.628292199995485,call1,-0.013425925925925926,0.3055555555555556,1,0,0,5.344823599996744,colour1,0.45740740740740743,0.07222222222222222,1,0,0,5.911977600000682,number2,True,True,True,9,4,2019_Nov_12_1059,MA_Theta_Exp,3.0.7,60.13500308255712,
video/Experiment/zh_sp07_Dr_Ro_3_NoThetaInAudio_GlobalThetaInVideo.avi,noTheta,plusVideo,sp07,Dr,Ro,3,3,3,flow/blocks/NoThetaInAudio_GlobalThetaInVideo_A.csv,,,,,,,,,0,3,3,3,0,17,17,26,,,,,,,,,-0.37037037037037035,0.2611111111111111,1,0,0,5.200744100002339,call1,0.04490740740740741,0.2708333333333333,1,0,0,6.087005699999281,colour1,0.412962962962963,-0.09583333333333334,1,0,0,6.719383200004813,number3,False,False,True,9,4,2019_Nov_12_1059,MA_Theta_Exp,3.0.7,60.13500308255712,
video/Experiment/zh_sp07_Dr_Ro_1_NoThetaInAudio_GlobalThetaInVideo.avi,noTheta,plusVideo,sp07,Dr,Ro,1,3,3,flow/blocks/NoThetaInAudio_GlobalThetaInVideo_A.csv,,,,,,,,,0,3,3,3,0,18,18,24,,,,,,,,,-0.3662037037037037,0.25833333333333336,1,0,0,4.36485630000243,call1,-0.010648148148148148,-0.11666666666666667,1,0,0,4.981336000011652,colour3,0.3490740740740741,0.33055555555555555,1,0,0,5.59793720000016,number1,False,True,True,9,4,2019_Nov_12_1059,MA_Theta_Exp,3.0.7,60.13500308255712,
video/Experiment/zh_sp01_Dr_We_3_NoThetaInAudio_GlobalThetaInVideo.avi,noTheta,plusVideo,sp01,Dr,We,3,3,3,flow/blocks/NoThetaInAudio_GlobalThetaInVideo_A.csv,,,,,,,,,0,3,3,3,0,19,19,30,,,,,,,,,-0.46064814814814814,0.0763888888888889,1,0,0,5.260803900004248,call2,-0.05648148148148148,-0.2986111111111111,1,0,0,5.872901000009733,colour4,0.37824074074074077,-0.09166666666666666,1,0,0,6.433717299994896,number3,True,True,True,9,4,2019_Nov_12_1059,MA_Theta_Exp,3.0.7,60.13500308255712,
video/Experiment/zh_sp07_Dr_We_2_NoThetaInAudio_GlobalThetaInVideo.avi,noTheta,plusVideo,sp07,Dr,We,2,3,3,flow/blocks/NoThetaInAudio_GlobalThetaInVideo_A.csv,,,,,,,,,0,3,3,3,0,20,20,29,,,,,,,,,-0.43425925925925923,0.15694444444444444,1,0,0,4.848839800004498,call2,-0.010648148148148148,-0.31666666666666665,1,0,0,5.6306287000043085,colour4,0.38657407407407407,0.09583333333333334,1,0,0,6.1965208999899914,number2,True,True,True,9,4,2019_Nov_12_1059,MA_Theta_Exp,3.0.7,60.13500308255712,
video/Experiment/zh_sp07_Dr_Gr_1_NoThetaInAudio_GlobalThetaInVideo.avi,noTheta,plusVideo,sp07,Dr,Gr,1,3,3,flow/blocks/NoThetaInAudio_GlobalThetaInVideo_A.csv,,,,,,,,,0,3,3,3,0,21,21,20,,,,,,,,,-0.41203703703703703,0.09861111111111111,1,0,0,4.695756800007075,call2,-0.017592592592592594,0.08055555555555556,1,0,0,5.138678900009836,colour2,0.38796296296296295,0.3333333333333333,1,0,0,5.871718399997917,number1,True,True,True,9,4,2019_Nov_12_1059,MA_Theta_Exp,3.0.7,60.13500308255712,
video/Experiment/zh_sp01_Dr_Gr_3_NoThetaInAudio_GlobalThetaInVideo.avi,noTheta,plusVideo,sp01,Dr,Gr,3,3,3,flow/blocks/NoThetaInAudio_GlobalThetaInVideo_A.csv,,,,,,,,,0,3,3,3,0,22,22,22,,,,,,,,,-0.3939814814814815,0.0875,1,0,0,5.580118500001845,call2,0.0060185185185185185,0.09444444444444444,1,0,0,6.096741000001202,colour2,0.3685185185185185,-0.14722222222222223,1,0,0,6.630175099999178,number3,True,True,True,9,4,2019_Nov_12_1059,MA_Theta_Exp,3.0.7,60.13500308255712,
video/Experiment/zh_sp01_Dr_Ge_2_NoThetaInAudio_GlobalThetaInVideo.avi,noTheta,plusVideo,sp01,Dr,Ge,2,3,3,flow/blocks/NoThetaInAudio_GlobalThetaInVideo_A.csv,,,,,,,,,0,3,3,3,0,23,23,17,,,,,,,,,-0.3398148148148148,0.10555555555555556,1,0,0,6.296442100006971,call2,-0.016203703703703703,0.30277777777777776,1,0,0,6.848594800001592,colour1,0.36018518518518516,0.08055555555555556,1,0,0,7.382262200000696,number2,True,True,True,9,4,2019_Nov_12_1059,MA_Theta_Exp,3.0.7,60.13500308255712,
video/Experiment/zh_sp07_Dr_We_1_NoThetaInAudio_GlobalThetaInVideo.avi,noTheta,plusVideo,sp07,Dr,We,1,3,3,flow/blocks/NoThetaInAudio_GlobalThetaInVideo_A.csv,,,,,,,,,0,3,3,3,0,24,24,28,,,,,,,,,-0.4287037037037037,0.10138888888888889,1,0,0,5.710066999992705,call2,0.001851851851851852,-0.30277777777777776,1,0,0,6.449852499994449,colour4,0.3421296296296296,0.2611111111111111,1,0,0,7.076334099998348,number1,True,True,True,9,4,2019_Nov_12_1059,MA_Theta_Exp,3.0.7,60.13500308255712,
video/Experiment/zh_sp07_Ad_Ge_1_NoThetaInAudio_GlobalThetaInVideo.avi,noTheta,plusVideo,sp07,Ad,Ge,1,3,3,flow/blocks/NoThetaInAudio_GlobalThetaInVideo_A.csv,,,,,,,,,0,3,3,3,0,25,25,0,,,,,,,,,-0.4134259259259259,0.3263888888888889,1,0,0,4.46173940000881,call1,0.01574074074074074,0.3013888888888889,1,0,0,4.9457906000025105,colour1,0.3907407407407407,0.30277777777777776,1,0,0,5.36158909999358,number1,True,True,True,9,4,2019_Nov_12_1059,MA_Theta_Exp,3.0.7,60.13500308255712,
video/Experiment/zh_sp07_Ad_We_3_NoThetaInAudio_GlobalThetaInVideo.avi,noTheta,plusVideo,sp07,Ad,We,3,3,3,flow/blocks/NoThetaInAudio_GlobalThetaInVideo_A.csv,,,,,,,,,0,3,3,3,0,26,26,14,,,,,,,,,-0.4023148148148148,0.34305555555555556,1,0,0,4.310575900002732,call1,-0.000925925925925926,-0.32222222222222224,1,0,0,5.008780999996816,colour4,0.3449074074074074,-0.07222222222222222,1,0,0,5.490895499999169,number3,True,True,True,9,4,2019_Nov_12_1059,MA_Theta_Exp,3.0.7,60.13500308255712,
video/Experiment/zh_sp07_Dr_Ro_4_NoThetaInAudio_GlobalThetaInVideo.avi,noTheta,plusVideo,sp07,Dr,Ro,4,3,3,flow/blocks/NoThetaInAudio_GlobalThetaInVideo_A.csv,,,,,,,,,0,3,3,3,0,27,27,27,,,,,,,,,-0.36342592592592593,0.31666666666666665,1,0,0,4.667244599986589,call1,0.06296296296296296,-0.11388888888888889,1,0,0,5.202250699992874,colour3,0.3851851851851852,-0.3541666666666667,1,0,0,5.650468500010902,number4,False,True,True,9,4,2019_Nov_12_1059,MA_Theta_Exp,3.0.7,60.13500308255712,
video/Experiment/zh_sp01_Dr_Gr_2_NoThetaInAudio_GlobalThetaInVideo.avi,noTheta,plusVideo,sp01,Dr,Gr,2,3,3,flow/blocks/NoThetaInAudio_GlobalThetaInVideo_A.csv,,,,,,,,,0,3,3,3,0,28,28,21,,,,,,,,,-0.3592592592592593,0.10972222222222222,1,0,0,5.508092999996734,call2,0.0587962962962963,0.07916666666666666,1,0,0,5.924821499997051,colour2,0.4115740740740741,0.04861111111111111,1,0,0,6.315671000003931,number2,True,True,True,9,4,2019_Nov_12_1059,MA_Theta_Exp,3.0.7,60.13500308255712,
video/Experiment/zh_sp01_Ad_Ro_3_NoThetaInAudio_GlobalThetaInVideo.avi,noTheta,plusVideo,sp01,Ad,Ro,3,3,3,flow/blocks/NoThetaInAudio_GlobalThetaInVideo_A.csv,,,,,,,,,0,3,3,3,0,29,29,10,,,,,,,,,-0.38564814814814813,0.2875,1,0,0,5.012734499992803,call1,0.01990740740740741,-0.10833333333333334,1,0,0,5.690689199996996,colour3,0.40046296296296297,-0.125,1,0,0,6.196623600000748,number3,True,True,True,9,4,2019_Nov_12_1059,MA_Theta_Exp,3.0.7,60.13500308255712,
video/Experiment/zh_sp07_Dr_Gr_4_NoThetaInAudio_GlobalThetaInVideo.avi,noTheta,plusVideo,sp07,Dr,Gr,4,3,3,flow/blocks/NoThetaInAudio_GlobalThetaInVideo_A.csv,,,,,,,,,0,3,3,3,0,30,30,23,,,,,,,,,-0.3939814814814815,0.08611111111111111,1,0,0,4.456542500003707,call2,0.0032407407407407406,0.07083333333333333,1,0,0,5.016091799989226,colour2,0.35185185185185186,-0.125,1,0,0,5.504089399997611,number3,True,True,False,9,4,2019_Nov_12_1059,MA_Theta_Exp,3.0.7,60.13500308255712,
video/Experiment/zh_sp01_Ad_Ro_4_NoThetaInAudio_GlobalThetaInVideo.avi,noTheta,plusVideo,sp01,Ad,Ro,4,3,3,flow/blocks/NoThetaInAudio_GlobalThetaInVideo_A.csv,,,,,,,,,0,3,3,3,0,31,31,11,,,,,,,,,-0.4398148148148148,0.30833333333333335,1,0,0,5.281920100009302,call1,-0.005092592592592593,-0.08888888888888889,1,0,0,5.898225199998706,colour3,0.4060185185185185,-0.34444444444444444,1,0,0,6.378604600002291,number4,True,True,True,9,4,2019_Nov_12_1059,MA_Theta_Exp,3.0.7,60.13500308255712,
video/Experiment/zh_sp01_Dr_Ro_3_GlobalTheta_NoVideo.avi,globalTheta,noVideo,sp01,Dr,Ro,3,4,5,flow/blocks/GlobalTheta_NoVideo_A.csv,,,,,,,,,0,4,4,4,0,0,0,26,,,,,,,,,-0.41064814814814815,0.06666666666666667,1,0,0,5.314122600000701,call2,0.007407407407407408,-0.14027777777777778,1,0,0,5.7861788000009255,colour3,0.425462962962963,-0.12361111111111112,1,0,0,6.198430400007055,number3,True,True,True,9,4,2019_Nov_12_1059,MA_Theta_Exp,3.0.7,60.13500308255712,
video/Experiment/zh_sp07_Ad_Gr_2_GlobalTheta_NoVideo.avi,globalTheta,noVideo,sp07,Ad,Gr,2,4,5,flow/blocks/GlobalTheta_NoVideo_A.csv,,,,,,,,,0,4,4,4,0,1,1,5,,,,,,,,,-0.39537037037037037,0.31805555555555554,1,0,0,4.622716800004127,call1,0.011574074074074073,0.13333333333333333,1,0,0,5.089438399998471,colour2,0.3699074074074074,0.12638888888888888,1,0,0,5.573164900008123,number2,True,True,True,9,4,2019_Nov_12_1059,MA_Theta_Exp,3.0.7,60.13500308255712,
video/Experiment/zh_sp07_Ad_We_1_GlobalTheta_NoVideo.avi,globalTheta,noVideo,sp07,Ad,We,1,4,5,flow/blocks/GlobalTheta_NoVideo_A.csv,,,,,,,,,0,4,4,4,0,2,2,12,,,,,,,,,-0.41898148148148145,0.3055555555555556,1,0,0,5.0552695999940624,call1,0.004629629629629629,-0.3,1,0,0,5.802412400007597,colour4,0.3587962962962963,0.2972222222222222,1,0,0,6.6577307999978075,number1,True,True,True,9,4,2019_Nov_12_1059,MA_Theta_Exp,3.0.7,60.13500308255712,
video/Experiment/zh_sp01_Dr_Gr_2_GlobalTheta_NoVideo.avi,globalTheta,noVideo,sp01,Dr,Gr,2,4,5,flow/blocks/GlobalTheta_NoVideo_A.csv,,,,,,,,,0,4,4,4,0,3,3,21,,,,,,,,,-0.4023148148148148,0.08194444444444444,1,0,0,6.023656400007894,call2,-0.013425925925925926,0.08888888888888889,1,0,0,6.9086717999889515,colour2,0.39490740740740743,0.09166666666666666,1,0,0,7.543708299999707,number2,True,True,True,9,4,2019_Nov_12_1059,MA_Theta_Exp,3.0.7,60.13500308255712,
video/Experiment/zh_sp01_Ad_We_2_GlobalTheta_NoVideo.avi,globalTheta,noVideo,sp01,Ad,We,2,4,5,flow/blocks/GlobalTheta_NoVideo_A.csv,,,,,,,,,0,4,4,4,0,4,4,13,,,,,,,,,-0.45231481481481484,0.3458333333333333,1,0,0,5.253163700006553,call1,0.033796296296296297,-0.28194444444444444,1,0,0,6.272014200003468,colour4,0.32407407407407407,0.12083333333333333,1,0,0,6.866234600005555,number2,True,True,True,9,4,2019_Nov_12_1059,MA_Theta_Exp,3.0.7,60.13500308255712,
video/Experiment/zh_sp01_Ad_Gr_1_GlobalTheta_NoVideo.avi,globalTheta,noVideo,sp01,Ad,Gr,1,4,5,flow/blocks/GlobalTheta_NoVideo_A.csv,,,,,,,,,0,4,4,4,0,5,5,4,,,,,,,,,-0.4023148148148148,0.3013888888888889,1,0,0,6.980089100004989,call1,-0.017592592592592594,0.12777777777777777,1,0,0,7.53949310000462,colour2,0.37824074074074077,0.30277777777777776,1,0,0,8.039452599987271,number1,True,True,True,9,4,2019_Nov_12_1059,MA_Theta_Exp,3.0.7,60.13500308255712,
video/Experiment/zh_sp01_Ad_Ro_4_GlobalTheta_NoVideo.avi,globalTheta,noVideo,sp01,Ad,Ro,4,4,5,flow/blocks/GlobalTheta_NoVideo_A.csv,,,,,,,,,0,4,4,4,0,6,6,11,,,,,,,,,-0.4134259259259259,0.3236111111111111,1,0,0,5.23699150000175,call1,-0.010648148148148148,-0.08055555555555556,1,0,0,5.849025999996229,colour3,0.42407407407407405,-0.31805555555555554,1,0,0,6.335406900005182,number4,True,True,True,9,4,2019_Nov_12_1059,MA_Theta_Exp,3.0.7,60.13500308255712,
video/Experiment/zh_sp07_Ad_Ge_4_GlobalTheta_NoVideo.avi,globalTheta,noVideo,sp07,Ad,Ge,4,4,5,flow/blocks/GlobalTheta_NoVideo_A.csv,,,,,,,,,0,4,4,4,0,7,7,3,,,,,,,,,-0.4023148148148148,0.33194444444444443,1,0,0,4.44327119999798,call1,-0.00787037037037037,0.3125,1,0,0,5.029442899991409,colour1,0.4199074074074074,-0.3111111111111111,1,0,0,5.8777017000102205,number4,True,True,True,9,4,2019_Nov_12_1059,MA_Theta_Exp,3.0.7,60.13500308255712,
video/Experiment/zh_sp07_Dr_Ro_4_GlobalTheta_NoVideo.avi,globalTheta,noVideo,sp07,Dr,Ro,4,4,5,flow/blocks/GlobalTheta_NoVideo_A.csv,,,,,,,,,0,4,4,4,0,8,8,27,,,,,,,,,-0.3912037037037037,0.08333333333333333,1,0,0,4.93987040000502,call2,-0.03287037037037037,0.3236111111111111,1,0,0,7.572078600001987,colour1,0.37824074074074077,-0.30972222222222223,1,0,0,8.305172099993797,number4,True,False,True,9,4,2019_Nov_12_1059,MA_Theta_Exp,3.0.7,60.13500308255712,
video/Experiment/zh_sp01_Dr_Gr_1_GlobalTheta_NoVideo.avi,globalTheta,noVideo,sp01,Dr,Gr,1,4,5,flow/blocks/GlobalTheta_NoVideo_A.csv,,,,,,,,,0,4,4,4,0,9,9,20,,,,,,,,,-0.38287037037037036,0.10833333333333334,1,0,0,5.604089699991164,call2,-0.03425925925925926,0.10972222222222222,1,0,0,6.149077399997623,colour2,0.350462962962963,0.28194444444444444,1,0,0,6.656993800002965,number1,True,True,True,9,4,2019_Nov_12_1059,MA_Theta_Exp,3.0.7,60.13500308255712,
video/Experiment/zh_sp01_Dr_We_1_GlobalTheta_NoVideo.avi,globalTheta,noVideo,sp01,Dr,We,1,4,5,flow/blocks/GlobalTheta_NoVideo_A.csv,,,,,,,,,0,4,4,4,0,10,10,28,,,,,,,,,-0.39814814814814814,0.1361111111111111,1,0,0,5.379788199992618,call2,0.018518518518518517,-0.3111111111111111,1,0,0,6.161554200007231,colour4,0.35324074074074074,0.2916666666666667,1,0,0,6.7575075999920955,number1,True,True,True,9,4,2019_Nov_12_1059,MA_Theta_Exp,3.0.7,60.13500308255712,
video/Experiment/zh_sp07_Dr_Ge_2_GlobalTheta_NoVideo.avi,globalTheta,noVideo,sp07,Dr,Ge,2,4,5,flow/blocks/GlobalTheta_NoVideo_A.csv,,,,,,,,,0,4,4,4,0,11,11,17,,,,,,,,,-0.3925925925925926,0.35833333333333334,1,0,0,5.193150699997204,call1,0.024074074074074074,0.3013888888888889,1,0,0,6.572996200004127,colour1,0.3837962962962963,0.09444444444444444,1,0,0,7.090941899994505,number2,False,True,True,9,4,2019_Nov_12_1059,MA_Theta_Exp,3.0.7,60.13500308255712,
video/Experiment/zh_sp07_Dr_Ge_1_GlobalTheta_NoVideo.avi,globalTheta,noVideo,sp07,Dr,Ge,1,4,5,flow/blocks/GlobalTheta_NoVideo_A.csv,,,,,,,,,0,4,4,4,0,12,12,16,,,,,,,,,-0.37037037037037035,0.2847222222222222,1,0,0,4.590144400004647,call1,0.014351851851851852,0.30277777777777776,1,0,0,5.033720999999787,colour1,0.45046296296296295,0.30277777777777776,1,0,0,5.4341405000013765,number1,False,True,True,9,4,2019_Nov_12_1059,MA_Theta_Exp,3.0.7,60.13500308255712,
video/Experiment/zh_sp07_Dr_We_4_GlobalTheta_NoVideo.avi,globalTheta,noVideo,sp07,Dr,We,4,4,5,flow/blocks/GlobalTheta_NoVideo_A.csv,,,,,,,,,0,4,4,4,0,13,13,31,,,,,,,,,-0.3578703703703704,0.08888888888888889,1,0,0,4.83591449999949,call2,0.011574074074074073,-0.28888888888888886,1,0,0,5.625531600002432,colour4,0.38657407407407407,-0.12361111111111112,1,0,0,6.102198699998553,number3,True,True,False,9,4,2019_Nov_12_1059,MA_Theta_Exp,3.0.7,60.13500308255712,
video/Experiment/zh_sp01_Dr_Ro_1_GlobalTheta_NoVideo.avi,globalTheta,noVideo,sp01,Dr,Ro,1,4,5,flow/blocks/GlobalTheta_NoVideo_A.csv,,,,,,,,,0,4,4,4,0,14,14,24,,,,,,,,,-0.38287037037037036,0.04861111111111111,1,0,0,5.2007723999995505,call2,-0.010648148148148148,-0.10694444444444444,1,0,0,5.646209300000919,colour3,0.3337962962962963,0.25833333333333336,1,0,0,6.240041899989592,number1,True,True,True,9,4,2019_Nov_12_1059,MA_Theta_Exp,3.0.7,60.13500308255712,
video/Experiment/zh_sp01_Ad_Ge_3_GlobalTheta_NoVideo.avi,globalTheta,noVideo,sp01,Ad,Ge,3,4,5,flow/blocks/GlobalTheta_NoVideo_A.csv,,,,,,,,,0,4,4,4,0,15,15,2,,,,,,,,,-0.3925925925925926,0.2625,1,0,0,5.554978799991659,call1,-0.062037037037037036,0.28194444444444444,1,0,0,6.204336599999806,colour1,0.37407407407407406,-0.12361111111111112,1,0,0,6.742459200002486,number3,True,True,True,9,4,2019_Nov_12_1059,MA_Theta_Exp,3.0.7,60.13500308255712,
video/Experiment/zh_sp01_Ad_We_3_GlobalTheta_NoVideo.avi,globalTheta,noVideo,sp01,Ad,We,3,4,5,flow/blocks/GlobalTheta_NoVideo_A.csv,,,,,,,,,0,4,4,4,0,16,16,14,,,,,,,,,-0.325,0.2916666666666667,1,0,0,5.488903599994956,call1,-0.011111111111111112,-0.3388888888888889,1,0,0,6.3014761000085855,colour4,0.45416666666666666,-0.13194444444444445,1,0,0,6.769907699999749,number3,True,True,True,9,4,2019_Nov_12_1059,MA_Theta_Exp,3.0.7,60.13500308255712,
video/Experiment/zh_sp01_Ad_Ge_1_GlobalTheta_NoVideo.avi,globalTheta,noVideo,sp01,Ad,Ge,1,4,5,flow/blocks/GlobalTheta_NoVideo_A.csv,,,,,,,,,0,4,4,4,0,17,17,0,,,,,,,,,-0.3902777777777778,0.3013888888888889,1,0,0,5.456216400008998,call1,0.011111111111111112,0.3388888888888889,1,0,0,6.822143099998357,colour1,0.42083333333333334,0.32083333333333336,1,0,0,7.210902599996189,number1,True,True,True,9,4,2019_Nov_12_1059,MA_Theta_Exp,3.0.7,60.13500308255712,
video/Experiment/zh_sp07_Ad_Ro_1_GlobalTheta_NoVideo.avi,globalTheta,noVideo,sp07,Ad,Ro,1,4,5,flow/blocks/GlobalTheta_NoVideo_A.csv,,,,,,,,,0,4,4,4,0,18,18,8,,,,,,,,,-0.4666666666666667,0.30972222222222223,1,0,0,4.416856499999994,call1,0.05416666666666667,-0.07083333333333333,1,0,0,5.006043800007319,colour3,0.4013888888888889,0.29583333333333334,1,0,0,5.486833700007992,number1,True,True,True,9,4,2019_Nov_12_1059,MA_Theta_Exp,3.0.7,60.13500308255712,
video/Experiment/zh_sp01_Dr_We_2_GlobalTheta_NoVideo.avi,globalTheta,noVideo,sp01,Dr,We,2,4,5,flow/blocks/GlobalTheta_NoVideo_A.csv,,,,,,,,,0,4,4,4,0,19,19,29,,,,,,,,,-0.4152777777777778,0.1375,1,0,0,5.071154200006276,call2,0.044444444444444446,-0.30972222222222223,1,0,0,5.917964100008248,colour4,0.38472222222222224,0.1111111111111111,1,0,0,6.406915700004902,number2,True,True,True,9,4,2019_Nov_12_1059,MA_Theta_Exp,3.0.7,60.13500308255712,
video/Experiment/zh_sp07_Dr_We_3_GlobalTheta_NoVideo.avi,globalTheta,noVideo,sp07,Dr,We,3,4,5,flow/blocks/GlobalTheta_NoVideo_A.csv,,,,,,,,,0,4,4,4,0,20,20,30,,,,,,,,,-0.31805555555555554,0.06944444444444445,1,0,0,4.563326000003144,call2,0.05694444444444444,-0.2986111111111111,1,0,0,5.127360400001635,colour4,0.425,-0.12916666666666668,1,0,0,5.595334800003911,number3,True,True,True,9,4,2019_Nov_12_1059,MA_Theta_Exp,3.0.7,60.13500308255712,
video/Experiment/zh_sp07_Dr_Gr_4_GlobalTheta_NoVideo.avi,globalTheta,noVideo,sp07,Dr,Gr,4,4,5,flow/blocks/GlobalTheta_NoVideo_A.csv,,,,,,,,,0,4,4,4,0,21,21,23,,,,,,,,,-0.38055555555555554,0.2986111111111111,1,0,0,4.485784600008628,call1,0.022222222222222223,0.10694444444444444,1,0,0,5.046484699996654,colour2,0.41944444444444445,-0.11666666666666667,1,0,0,5.570504100003745,number3,False,True,False,9,4,2019_Nov_12_1059,MA_Theta_Exp,3.0.7,60.13500308255712,
video/Experiment/zh_sp01_Dr_Ro_2_GlobalTheta_NoVideo.avi,globalTheta,noVideo,sp01,Dr,Ro,2,4,5,flow/blocks/GlobalTheta_NoVideo_A.csv,,,,,,,,,0,4,4,4,0,22,22,25,,,,,,,,,-0.3486111111111111,0.08333333333333333,1,0,0,6.53522299999895,call2,-0.019444444444444445,-0.0875,1,0,0,6.995947000003071,colour3,0.4125,0.16666666666666666,1,0,0,7.4997717999940505,number2,True,True,True,9,4,2019_Nov_12_1059,MA_Theta_Exp,3.0.7,60.13500308255712,
video/Experiment/zh_sp07_Ad_Gr_3_GlobalTheta_NoVideo.avi,globalTheta,noVideo,sp07,Ad,Gr,3,4,5,flow/blocks/GlobalTheta_NoVideo_A.csv,,,,,,,,,0,4,4,4,0,23,23,6,,,,,,,,,-0.39861111111111114,0.32222222222222224,1,0,0,4.872252900007879,call1,0.030555555555555555,0.12361111111111112,1,0,0,5.317069100012304,colour2,0.4,-0.10833333333333334,1,0,0,6.236161299995729,number3,True,True,True,9,4,2019_Nov_12_1059,MA_Theta_Exp,3.0.7,60.13500308255712,
video/Experiment/zh_sp07_Dr_Ge_4_GlobalTheta_NoVideo.avi,globalTheta,noVideo,sp07,Dr,Ge,4,4,5,flow/blocks/GlobalTheta_NoVideo_A.csv,,,,,,,,,0,4,4,4,0,24,24,19,,,,,,,,,-0.3958333333333333,0.05416666666666667,1,0,0,4.7749626000004355,call2,-0.016666666666666666,0.2625,1,0,0,5.228983400011202,colour1,0.39305555555555555,-0.3138888888888889,1,0,0,6.041190000003553,number4,True,True,True,9,4,2019_Nov_12_1059,MA_Theta_Exp,3.0.7,60.13500308255712,
video/Experiment/zh_sp01_Dr_Ge_3_GlobalTheta_NoVideo.avi,globalTheta,noVideo,sp01,Dr,Ge,3,4,5,flow/blocks/GlobalTheta_NoVideo_A.csv,,,,,,,,,0,4,4,4,0,25,25,18,,,,,,,,,-0.3888888888888889,0.05416666666666667,1,0,0,4.879752199994982,call2,0.006944444444444444,0.2861111111111111,1,0,0,5.453281000009156,colour1,0.39305555555555555,-0.10694444444444444,1,0,0,5.946814499999164,number3,True,True,True,9,4,2019_Nov_12_1059,MA_Theta_Exp,3.0.7,60.13500308255712,
video/Experiment/zh_sp07_Ad_Ro_2_GlobalTheta_NoVideo.avi,globalTheta,noVideo,sp07,Ad,Ro,2,4,5,flow/blocks/GlobalTheta_NoVideo_A.csv,,,,,,,,,0,4,4,4,0,26,26,9,,,,,,,,,-0.3611111111111111,0.32222222222222224,1,0,0,4.632298900003661,call1,0.027777777777777776,0.31527777777777777,1,0,0,5.198623800009955,colour1,0.3597222222222222,0.10972222222222222,1,0,0,5.786634600008256,number2,True,False,True,9,4,2019_Nov_12_1059,MA_Theta_Exp,3.0.7,60.13500308255712,
video/Experiment/zh_sp07_Ad_Ro_3_GlobalTheta_NoVideo.avi,globalTheta,noVideo,sp07,Ad,Ro,3,4,5,flow/blocks/GlobalTheta_NoVideo_A.csv,,,,,,,,,0,4,4,4,0,27,27,10,,,,,,,,,-0.41805555555555557,0.31805555555555554,1,0,0,4.480130199997802,call1,-0.059722222222222225,0.30416666666666664,1,0,0,5.16256820000126,colour1,0.3736111111111111,-0.08472222222222223,1,0,0,5.883626200011349,number3,True,False,True,9,4,2019_Nov_12_1059,MA_Theta_Exp,3.0.7,60.13500308255712,
video/Experiment/zh_sp07_Ad_Gr_4_GlobalTheta_NoVideo.avi,globalTheta,noVideo,sp07,Ad,Gr,4,4,5,flow/blocks/GlobalTheta_NoVideo_A.csv,,,,,,,,,0,4,4,4,0,28,28,7,,,,,,,,,-0.3541666666666667,0.3055555555555556,1,0,0,4.322197999994387,call1,0.02361111111111111,0.08611111111111111,1,0,0,4.834415299992543,colour2,0.4152777777777778,-0.3,1,0,0,5.4519232000020565,number4,True,True,True,9,4,2019_Nov_12_1059,MA_Theta_Exp,3.0.7,60.13500308255712,
video/Experiment/zh_sp01_Dr_Gr_3_GlobalTheta_NoVideo.avi,globalTheta,noVideo,sp01,Dr,Gr,3,4,5,flow/blocks/GlobalTheta_NoVideo_A.csv,,,,,,,,,0,4,4,4,0,29,29,22,,,,,,,,,-0.3472222222222222,0.09444444444444444,1,0,0,7.124257500006934,call2,0.04027777777777778,0.09861111111111111,1,0,0,7.5840434999990975,colour2,0.43194444444444446,-0.10972222222222222,1,0,0,8.105547699989984,number3,True,True,True,9,4,2019_Nov_12_1059,MA_Theta_Exp,3.0.7,60.13500308255712,
video/Experiment/zh_sp01_Ad_Ge_2_GlobalTheta_NoVideo.avi,globalTheta,noVideo,sp01,Ad,Ge,2,4,5,flow/blocks/GlobalTheta_NoVideo_A.csv,,,,,,,,,0,4,4,4,0,30,30,1,,,,,,,,,-0.3763888888888889,0.325,1,0,0,5.49419399999897,call1,-0.006944444444444444,0.2986111111111111,1,0,0,5.910348100005649,colour1,0.43333333333333335,0.11805555555555555,1,0,0,6.347407000008388,number2,True,True,True,9,4,2019_Nov_12_1059,MA_Theta_Exp,3.0.7,60.13500308255712,
video/Experiment/zh_sp07_Ad_We_4_GlobalTheta_NoVideo.avi,globalTheta,noVideo,sp07,Ad,We,4,4,5,flow/blocks/GlobalTheta_NoVideo_A.csv,,,,,,,,,0,4,4,4,0,31,31,15,,,,,,,,,-0.3333333333333333,0.2777777777777778,1,0,0,4.6505250000045635,call1,0.05694444444444444,-0.35138888888888886,1,0,0,5.33288229999016,colour4,0.4041666666666667,-0.3486111111111111,1,0,0,5.768358899993473,number4,True,True,True,9,4,2019_Nov_12_1059,MA_Theta_Exp,3.0.7,60.13500308255712,
video/Experiment/zh_sp01_Un_We_3_NVocInAudio_NoVideo.avi,vocoded,noVideo,sp01,Un,We,3,0,2,flow/blocks/NVocInAudio_NoVideo_B.csv,,,,,,,,,,,,,,,,,0,0,0,0,0,0,0,30,-0.3611111111111111,-0.33611111111111114,1,0,0,6.92597919999389,call4,0.009722222222222222,-0.325,1,0,0,7.662556299997959,colour4,0.4111111111111111,-0.1111111111111111,1,0,0,8.276234300006763,number3,True,True,True,9,4,2019_Nov_12_1059,MA_Theta_Exp,3.0.7,60.13500308255712,
video/Experiment/zh_sp01_Un_Ge_2_NVocInAudio_NoVideo.avi,vocoded,noVideo,sp01,Un,Ge,2,0,2,flow/blocks/NVocInAudio_NoVideo_B.csv,,,,,,,,,,,,,,,,,0,0,0,0,0,1,1,17,-0.3861111111111111,-0.31666666666666665,1,0,0,5.067794100003084,call4,-0.005555555555555556,0.29444444444444445,1,0,0,5.882247500005178,colour1,0.37083333333333335,0.12777777777777777,1,0,0,6.378223699997761,number2,True,True,True,9,4,2019_Nov_12_1059,MA_Theta_Exp,3.0.7,60.13500308255712,
video/Experiment/zh_sp01_Un_Gr_3_NVocInAudio_NoVideo.avi,vocoded,noVideo,sp01,Un,Gr,3,0,2,flow/blocks/NVocInAudio_NoVideo_B.csv,,,,,,,,,,,,,,,,,0,0,0,0,0,2,2,22,-0.32083333333333336,-0.33194444444444443,1,0,0,5.159086800005753,call4,-0.02361111111111111,0.06805555555555555,1,0,0,5.77514960001281,colour2,0.35,-0.10972222222222222,1,0,0,6.236660000009579,number3,True,True,True,9,4,2019_Nov_12_1059,MA_Theta_Exp,3.0.7,60.13500308255712,
video/Experiment/zh_sp01_Ti_We_4_NVocInAudio_NoVideo.avi,vocoded,noVideo,sp01,Ti,We,4,0,2,flow/blocks/NVocInAudio_NoVideo_B.csv,,,,,,,,,,,,,,,,,0,0,0,0,0,3,3,15,-0.34444444444444444,-0.07777777777777778,1,0,0,5.175401199987391,call3,-0.008333333333333333,-0.26666666666666666,1,0,0,5.775365099994815,colour4,0.36944444444444446,-0.28194444444444444,1,0,0,6.24551620001148,number4,True,True,True,9,4,2019_Nov_12_1059,MA_Theta_Exp,3.0.7,60.13500308255712,
video/Experiment/zh_sp07_Un_We_2_NVocInAudio_NoVideo.avi,vocoded,noVideo,sp07,Un,We,2,0,2,flow/blocks/NVocInAudio_NoVideo_B.csv,,,,,,,,,,,,,,,,,0,0,0,0,0,4,4,29,-0.39861111111111114,-0.31805555555555554,1,0,0,4.472437600008561,call4,-0.002777777777777778,-0.2916666666666667,1,0,0,5.355129100003978,colour4,0.4125,0.15,1,0,0,5.93903739999223,number2,True,True,True,9,4,2019_Nov_12_1059,MA_Theta_Exp,3.0.7,60.13500308255712,
video/Experiment/zh_sp07_Ti_Gr_2_NVocInAudio_NoVideo.avi,vocoded,noVideo,sp07,Ti,Gr,2,0,2,flow/blocks/NVocInAudio_NoVideo_B.csv,,,,,,,,,,,,,,,,,0,0,0,0,0,5,5,5,-0.3819444444444444,-0.1111111111111111,1,0,0,4.91409069999645,call3,0.02638888888888889,0.10972222222222222,1,0,0,5.568670100008603,colour2,0.4013888888888889,0.1125,1,0,0,5.998717499998747,number2,True,True,True,9,4,2019_Nov_12_1059,MA_Theta_Exp,3.0.7,60.13500308255712,
video/Experiment/zh_sp07_Ti_Ge_4_NVocInAudio_NoVideo.avi,vocoded,noVideo,sp07,Ti,Ge,4,0,2,flow/blocks/NVocInAudio_NoVideo_B.csv,,,,,,,,,,,,,,,,,0,0,0,0,0,6,6,3,-0.4083333333333333,-0.14166666666666666,1,0,0,4.718493799999123,call3,-0.001388888888888889,0.2569444444444444,1,0,0,5.3172709999926155,colour1,0.375,-0.3138888888888889,1,0,0,5.933492299998761,number4,True,True,True,9,4,2019_Nov_12_1059,MA_Theta_Exp,3.0.7,60.13500308255712,
video/Experiment/zh_sp01_Ti_Ge_1_NVocInAudio_NoVideo.avi,vocoded,noVideo,sp01,Ti,Ge,1,0,2,flow/blocks/NVocInAudio_NoVideo_B.csv,,,,,,,,,,,,,,,,,0,0,0,0,0,7,7,0,-0.39444444444444443,-0.0875,1,0,0,5.454631100001279,call3,-0.009722222222222222,0.24444444444444444,1,0,0,6.305759700000635,colour1,0.3861111111111111,0.2916666666666667,1,0,0,6.791139299995848,number1,True,True,True,9,4,2019_Nov_12_1059,MA_Theta_Exp,3.0.7,60.13500308255712,
video/Experiment/zh_sp07_Un_Ge_1_NVocInAudio_NoVideo.avi,vocoded,noVideo,sp07,Un,Ge,1,0,2,flow/blocks/NVocInAudio_NoVideo_B.csv,,,,,,,,,,,,,,,,,0,0,0,0,0,8,8,16,-0.3958333333333333,-0.32083333333333336,1,0,0,4.4259243000124115,call4,0.025,0.3236111111111111,1,0,0,5.156224400008796,colour1,0.3763888888888889,0.30694444444444446,1,0,0,5.641749600006733,number1,True,True,True,9,4,2019_Nov_12_1059,MA_Theta_Exp,3.0.7,60.13500308255712,
video/Experiment/zh_sp01_Un_We_1_NVocInAudio_NoVideo.avi,vocoded,noVideo,sp01,Un,We,1,0,2,flow/blocks/NVocInAudio_NoVideo_B.csv,,,,,,,,,,,,,,,,,0,0,0,0,0,9,9,28,-0.3819444444444444,-0.3111111111111111,1,0,0,5.415638200007379,call4,-0.04722222222222222,-0.31666666666666665,1,0,0,5.894461300005787,colour4,0.3333333333333333,0.2791666666666667,1,0,0,6.505453199992189,number1,True,True,True,9,4,2019_Nov_12_1059,MA_Theta_Exp,3.0.7,60.13500308255712,
video/Experiment/zh_sp07_Ti_Ge_3_NVocInAudio_NoVideo.avi,vocoded,noVideo,sp07,Ti,Ge,3,0,2,flow/blocks/NVocInAudio_NoVideo_B.csv,,,,,,,,,,,,,,,,,0,0,0,0,0,10,10,2,-0.3680555555555556,-0.12361111111111112,1,0,0,5.711380400010967,call3,0.009722222222222222,0.26944444444444443,1,0,0,6.259313800008385,colour1,0.41388888888888886,-0.06805555555555555,1,0,0,6.751404199996614,number3,True,True,True,9,4,2019_Nov_12_1059,MA_Theta_Exp,3.0.7,60.13500308255712,
video/Experiment/zh_sp01_Ti_Gr_4_NVocInAudio_NoVideo.avi,vocoded,noVideo,sp01,Ti,Gr,4,0,2,flow/blocks/NVocInAudio_NoVideo_B.csv,,,,,,,,,,,,,,,,,0,0,0,0,0,11,11,7,-0.44027777777777777,-0.06805555555555555,1,0,0,5.326971099988441,call3,0.011111111111111112,0.07083333333333333,1,0,0,5.870875399996294,colour2,0.4083333333333333,-0.29583333333333334,1,0,0,6.398182999997516,number4,True,True,True,9,4,2019_Nov_12_1059,MA_Theta_Exp,3.0.7,60.13500308255712,
video/Experiment/zh_sp07_Un_Gr_1_NVocInAudio_NoVideo.avi,vocoded,noVideo,sp07,Un,Gr,1,0,2,flow/blocks/NVocInAudio_NoVideo_B.csv,,,,,,,,,,,,,,,,,0,0,0,0,0,12,12,20,-0.39305555555555555,-0.35,1,0,0,4.995119800005341,call4,-0.011111111111111112,0.020833333333333332,1,0,0,5.545946600002935,colour2,0.35138888888888886,0.28888888888888886,1,0,0,6.083254600001965,number1,True,True,True,9,4,2019_Nov_12_1059,MA_Theta_Exp,3.0.7,60.13500308255712,
video/Experiment/zh_sp01_Ti_Ro_4_NVocInAudio_NoVideo.avi,vocoded,noVideo,sp01,Ti,Ro,4,0,2,flow/blocks/NVocInAudio_NoVideo_B.csv,,,,,,,,,,,,,,,,,0,0,0,0,0,13,13,11,-0.3625,-0.1388888888888889,1,0,0,5.076080400001956,call3,-0.018055555555555554,-0.09861111111111111,1,0,0,5.513442600000417,colour3,0.3527777777777778,-0.3013888888888889,1,0,0,6.018983200003277,number4,True,True,True,9,4,2019_Nov_12_1059,MA_Theta_Exp,3.0.7,60.13500308255712,
video/Experiment/zh_sp01_Ti_Ge_2_NVocInAudio_NoVideo.avi,vocoded,noVideo,sp01,Ti,Ge,2,0,2,flow/blocks/NVocInAudio_NoVideo_B.csv,,,,,,,,,,,,,,,,,0,0,0,0,0,14,14,1,-0.4041666666666667,-0.12083333333333333,1,0,0,5.330815000008442,call3,-0.009722222222222222,0.25972222222222224,1,0,0,5.931532100003096,colour1,0.36527777777777776,0.0625,1,0,0,6.332078199993703,number2,True,True,True,9,4,2019_Nov_12_1059,MA_Theta_Exp,3.0.7,60.13500308255712,
video/Experiment/zh_sp07_Ti_Gr_1_NVocInAudio_NoVideo.avi,vocoded,noVideo,sp07,Ti,Gr,1,0,2,flow/blocks/NVocInAudio_NoVideo_B.csv,,,,,,,,,,,,,,,,,0,0,0,0,0,15,15,4,-0.425,-0.13194444444444445,1,0,0,5.145900500006974,call3,0.008333333333333333,0.08194444444444444,1,0,0,5.680281899985857,colour2,0.37916666666666665,0.2847222222222222,1,0,0,6.195979199997964,number1,True,True,True,9,4,2019_Nov_12_1059,MA_Theta_Exp,3.0.7,60.13500308255712,
video/Experiment/zh_sp01_Ti_Ro_2_NVocInAudio_NoVideo.avi,vocoded,noVideo,sp01,Ti,Ro,2,0,2,flow/blocks/NVocInAudio_NoVideo_B.csv,,,,,,,,,,,,,,,,,0,0,0,0,0,16,16,9,-0.3972222222222222,-0.11666666666666667,1,0,0,5.210049200002686,call3,-0.011111111111111112,-0.10694444444444444,1,0,0,5.743952199991327,colour3,0.35694444444444445,0.09166666666666666,1,0,0,6.242652300003101,number2,True,True,True,9,4,2019_Nov_12_1059,MA_Theta_Exp,3.0.7,60.13500308255712,
video/Experiment/zh_sp07_Ti_We_2_NVocInAudio_NoVideo.avi,vocoded,noVideo,sp07,Ti,We,2,0,2,flow/blocks/NVocInAudio_NoVideo_B.csv,,,,,,,,,,,,,,,,,0,0,0,0,0,17,17,13,-0.36944444444444446,-0.10416666666666667,1,0,0,5.375973000001977,call3,-0.016666666666666666,-0.33194444444444443,1,0,0,5.974996699995245,colour4,0.42916666666666664,0.05,1,0,0,6.4758768000028795,number2,True,True,True,9,4,2019_Nov_12_1059,MA_Theta_Exp,3.0.7,60.13500308255712,
video/Experiment/zh_sp07_Un_Ro_3_NVocInAudio_NoVideo.avi,vocoded,noVideo,sp07,Un,Ro,3,0,2,flow/blocks/NVocInAudio_NoVideo_B.csv,,,,,,,,,,,,,,,,,0,0,0,0,0,18,18,26,-0.3527777777777778,-0.30416666666666664,1,0,0,5.154704199987464,call4,0.008333333333333333,-0.11944444444444445,1,0,0,6.27221159999317,colour3,0.3194444444444444,-0.10555555555555556,1,0,0,6.732323500007624,number3,True,True,True,9,4,2019_Nov_12_1059,MA_Theta_Exp,3.0.7,60.13500308255712,
video/Experiment/zh_sp01_Ti_Ro_1_NVocInAudio_NoVideo.avi,vocoded,noVideo,sp01,Ti,Ro,1,0,2,flow/blocks/NVocInAudio_NoVideo_B.csv,,,,,,,,,,,,,,,,,0,0,0,0,0,19,19,8,-0.39861111111111114,-0.08611111111111111,1,0,0,5.151314800008549,call3,-0.013888888888888888,-0.08888888888888889,1,0,0,5.517259700005525,colour3,0.32916666666666666,0.3194444444444444,1,0,0,5.953246399993077,number1,True,True,True,9,4,2019_Nov_12_1059,MA_Theta_Exp,3.0.7,60.13500308255712,
video/Experiment/zh_sp01_Ti_Gr_3_NVocInAudio_NoVideo.avi,vocoded,noVideo,sp01,Ti,Gr,3,0,2,flow/blocks/NVocInAudio_NoVideo_B.csv,,,,,,,,,,,,,,,,,0,0,0,0,0,20,20,6,-0.4,-0.12222222222222222,1,0,0,5.390729200007627,call3,-0.03333333333333333,0.10555555555555556,1,0,0,6.06732150001335,colour2,0.38472222222222224,-0.08055555555555556,1,0,0,6.547124600008829,number3,True,True,True,9,4,2019_Nov_12_1059,MA_Theta_Exp,3.0.7,60.13500308255712,
video/Experiment/zh_sp07_Un_Ro_4_NVocInAudio_NoVideo.avi,vocoded,noVideo,sp07,Un,Ro,4,0,2,flow/blocks/NVocInAudio_NoVideo_B.csv,,,,,,,,,,,,,,,,,0,0,0,0,0,21,21,27,-0.36527777777777776,-0.30833333333333335,1,0,0,4.764036900000065,call4,0.016666666666666666,-0.13194444444444445,1,0,0,5.231683699996211,colour3,0.39166666666666666,-0.32916666666666666,1,0,0,5.658812100009527,number4,True,True,True,9,4,2019_Nov_12_1059,MA_Theta_Exp,3.0.7,60.13500308255712,
video/Experiment/zh_sp01_Un_Gr_2_NVocInAudio_NoVideo.avi,vocoded,noVideo,sp01,Un,Gr,2,0,2,flow/blocks/NVocInAudio_NoVideo_B.csv,,,,,,,,,,,,,,,,,0,0,0,0,0,22,22,21,-0.41388888888888886,-0.33611111111111114,1,0,0,5.451525600001332,call4,0.025,0.09027777777777778,1,0,0,6.044070499992813,colour2,0.37777777777777777,0.0875,1,0,0,6.453304299997399,number2,True,True,True,9,4,2019_Nov_12_1059,MA_Theta_Exp,3.0.7,60.13500308255712,
video/Experiment/zh_sp07_Un_We_4_NVocInAudio_NoVideo.avi,vocoded,noVideo,sp07,Un,We,4,0,2,flow/blocks/NVocInAudio_NoVideo_B.csv,,,,,,,,,,,,,,,,,0,0,0,0,0,23,23,31,-0.3763888888888889,-0.31527777777777777,1,0,0,5.242413600004511,call4,-0.018055555555555554,-0.3236111111111111,1,0,0,5.636630100008915,colour4,0.4097222222222222,-0.2875,1,0,0,6.289635099994484,number4,True,True,True,9,4,2019_Nov_12_1059,MA_Theta_Exp,3.0.7,60.13500308255712,
video/Experiment/zh_sp07_Un_Ge_4_NVocInAudio_NoVideo.avi,vocoded,noVideo,sp07,Un,Ge,4,0,2,flow/blocks/NVocInAudio_NoVideo_B.csv,,,,,,,,,,,,,,,,,0,0,0,0,0,24,24,19,-0.4027777777777778,-0.30416666666666664,1,0,0,4.356574499994167,call4,-0.005555555555555556,0.23472222222222222,1,0,0,4.936582099995576,colour1,0.4305555555555556,-0.29583333333333334,1,0,0,5.705545300006634,number4,True,True,True,9,4,2019_Nov_12_1059,MA_Theta_Exp,3.0.7,60.13500308255712,
video/Experiment/zh_sp01_Un_Ro_1_NVocInAudio_NoVideo.avi,vocoded,noVideo,sp01,Un,Ro,1,0,2,flow/blocks/NVocInAudio_NoVideo_B.csv,,,,,,,,,,,,,,,,,0,0,0,0,0,25,25,24,-0.3972222222222222,-0.33055555555555555,1,0,0,5.13785949999874,call4,-0.0125,-0.1375,1,0,0,5.641521400000784,colour3,0.40555555555555556,0.29305555555555557,1,0,0,6.371241800006828,number1,True,True,True,9,4,2019_Nov_12_1059,MA_Theta_Exp,3.0.7,60.13500308255712,
video/Experiment/zh_sp07_Ti_We_3_NVocInAudio_NoVideo.avi,vocoded,noVideo,sp07,Ti,We,3,0,2,flow/blocks/NVocInAudio_NoVideo_B.csv,,,,,,,,,,,,,,,,,0,0,0,0,0,26,26,14,-0.36944444444444446,-0.15694444444444444,1,0,0,4.527456499999971,call3,0.004166666666666667,-0.3527777777777778,1,0,0,5.295915800001239,colour4,0.3625,-0.11944444444444445,1,0,0,5.809779199989862,number3,True,True,True,9,4,2019_Nov_12_1059,MA_Theta_Exp,3.0.7,60.13500308255712,
video/Experiment/zh_sp07_Ti_We_1_NVocInAudio_NoVideo.avi,vocoded,noVideo,sp07,Ti,We,1,0,2,flow/blocks/NVocInAudio_NoVideo_B.csv,,,,,,,,,,,,,,,,,0,0,0,0,0,27,27,12,-0.3958333333333333,-0.10277777777777777,1,0,0,5.77322840000852,call3,-0.02361111111111111,-0.30833333333333335,1,0,0,6.520987199997762,colour4,0.34444444444444444,0.3013888888888889,1,0,0,7.176036799995927,number1,True,True,True,9,4,2019_Nov_12_1059,MA_Theta_Exp,3.0.7,60.13500308255712,
video/Experiment/zh_sp07_Un_Gr_4_NVocInAudio_NoVideo.avi,vocoded,noVideo,sp07,Un,Gr,4,0,2,flow/blocks/NVocInAudio_NoVideo_B.csv,,,,,,,,,,,,,,,,,0,0,0,0,0,28,28,23,-0.38333333333333336,-0.29305555555555557,1,0,0,4.747996299993247,call4,0.001388888888888889,0.13333333333333333,1,0,0,5.2939056000032,colour2,0.4097222222222222,-0.30972222222222223,1,0,0,5.798654099999112,number4,True,True,True,9,4,2019_Nov_12_1059,MA_Theta_Exp,3.0.7,60.13500308255712,
video/Experiment/zh_sp07_Un_Ro_2_NVocInAudio_NoVideo.avi,vocoded,noVideo,sp07,Un,Ro,2,0,2,flow/blocks/NVocInAudio_NoVideo_B.csv,,,,,,,,,,,,,,,,,0,0,0,0,0,29,29,25,-0.35,-0.2875,1,0,0,4.835606299995561,call4,0.018055555555555554,-0.09861111111111111,1,0,0,5.321458699996583,colour3,0.3347222222222222,0.09583333333333334,1,0,0,5.758675999997649,number2,True,True,True,9,4,2019_Nov_12_1059,MA_Theta_Exp,3.0.7,60.13500308255712,
video/Experiment/zh_sp01_Ti_Ro_3_NVocInAudio_NoVideo.avi,vocoded,noVideo,sp01,Ti,Ro,3,0,2,flow/blocks/NVocInAudio_NoVideo_B.csv,,,,,,,,,,,,,,,,,0,0,0,0,0,30,30,10,-0.3763888888888889,-0.11805555555555555,1,0,0,5.855097899999237,call3,0.025,-0.10555555555555556,1,0,0,6.372715099991183,colour3,0.3902777777777778,-0.07916666666666666,1,0,0,7.5725556000106735,number3,True,True,True,9,4,2019_Nov_12_1059,MA_Theta_Exp,3.0.7,60.13500308255712,
video/Experiment/zh_sp01_Un_Ge_3_NVocInAudio_NoVideo.avi,vocoded,noVideo,sp01,Un,Ge,3,0,2,flow/blocks/NVocInAudio_NoVideo_B.csv,,,,,,,,,,,,,,,,,0,0,0,0,0,31,31,18,-0.41388888888888886,-0.31527777777777777,1,0,0,5.628850199995213,call4,-0.029166666666666667,0.3055555555555556,1,0,0,6.361946999997599,colour1,0.3902777777777778,-0.12083333333333333,1,0,0,6.8676970999949845,number3,True,True,True,9,4,2019_Nov_12_1059,MA_Theta_Exp,3.0.7,60.13500308255712,
video/Experiment/zh_sp01_Un_Ro_4_NVocInAudio_GlobalThetaInVideo.avi,vocoded,plusVideo,sp01,Un,Ro,4,1,1,flow/blocks/NVocInAudio_GlobalThetaInVideo_B.csv,,,,,,,,,,,,,,,,,0,1,1,1,0,0,0,27,-0.3541666666666667,-0.30416666666666664,1,0,0,5.6443598000041675,call4,0.009722222222222222,-0.17083333333333334,1,0,0,6.0936365999950795,colour3,0.4236111111111111,-0.31666666666666665,1,0,0,6.530370200009202,number4,True,True,True,9,4,2019_Nov_12_1059,MA_Theta_Exp,3.0.7,60.13500308255712,
video/Experiment/zh_sp07_Un_We_2_NVocInAudio_GlobalThetaInVideo.avi,vocoded,plusVideo,sp07,Un,We,2,1,1,flow/blocks/NVocInAudio_GlobalThetaInVideo_B.csv,,,,,,,,,,,,,,,,,0,1,1,1,0,1,1,29,-0.3875,-0.31527777777777777,1,0,0,4.636780799992266,call4,-0.02638888888888889,-0.31805555555555554,1,0,0,5.098458899999969,colour4,0.44305555555555554,0.10833333333333334,1,0,0,5.975180800000089,number2,True,True,True,9,4,2019_Nov_12_1059,MA_Theta_Exp,3.0.7,60.13500308255712,
video/Experiment/zh_sp01_Ti_Ge_2_NVocInAudio_GlobalThetaInVideo.avi,vocoded,plusVideo,sp01,Ti,Ge,2,1,1,flow/blocks/NVocInAudio_GlobalThetaInVideo_B.csv,,,,,,,,,,,,,,,,,0,1,1,1,0,2,2,1,-0.4027777777777778,-0.0875,1,0,0,5.792571900004987,call3,-0.04027777777777778,0.2861111111111111,1,0,0,6.569236999988789,colour1,0.41944444444444445,0.10694444444444444,1,0,0,7.121925700004795,number2,True,True,True,9,4,2019_Nov_12_1059,MA_Theta_Exp,3.0.7,60.13500308255712,
video/Experiment/zh_sp01_Un_Ge_3_NVocInAudio_GlobalThetaInVideo.avi,vocoded,plusVideo,sp01,Un,Ge,3,1,1,flow/blocks/NVocInAudio_GlobalThetaInVideo_B.csv,,,,,,,,,,,,,,,,,0,1,1,1,0,3,3,18,-0.38333333333333336,-0.3597222222222222,1,0,0,5.41551609999442,call4,-0.008333333333333333,0.30277777777777776,1,0,0,6.105194800009485,colour1,0.37222222222222223,-0.09166666666666666,1,0,0,6.67622670000128,number3,True,True,True,9,4,2019_Nov_12_1059,MA_Theta_Exp,3.0.7,60.13500308255712,
video/Experiment/zh_sp07_Ti_We_4_NVocInAudio_GlobalThetaInVideo.avi,vocoded,plusVideo,sp07,Ti,We,4,1,1,flow/blocks/NVocInAudio_GlobalThetaInVideo_B.csv,,,,,,,,,,,,,,,,,0,1,1,1,0,4,4,15,-0.3416666666666667,-0.10416666666666667,1,0,0,4.706268000009004,call3,0.043055555555555555,-0.2902777777777778,1,0,0,5.258158599986928,colour4,0.425,-0.30972222222222223,1,0,0,5.651134900006582,number4,True,True,True,9,4,2019_Nov_12_1059,MA_Theta_Exp,3.0.7,60.13500308255712,
video/Experiment/zh_sp07_Ti_Gr_2_NVocInAudio_GlobalThetaInVideo.avi,vocoded,plusVideo,sp07,Ti,Gr,2,1,1,flow/blocks/NVocInAudio_GlobalThetaInVideo_B.csv,,,,,,,,,,,,,,,,,0,1,1,1,0,5,5,5,-0.3972222222222222,-0.12361111111111112,1,0,0,4.6289056000096025,call3,0.030555555555555555,0.12083333333333333,1,0,0,5.163162000011653,colour2,0.4013888888888889,0.12638888888888888,1,0,0,5.561040700005833,number2,True,True,True,9,4,2019_Nov_12_1059,MA_Theta_Exp,3.0.7,60.13500308255712,
video/Experiment/zh_sp01_Un_We_3_NVocInAudio_GlobalThetaInVideo.avi,vocoded,plusVideo,sp01,Un,We,3,1,1,flow/blocks/NVocInAudio_GlobalThetaInVideo_B.csv,,,,,,,,,,,,,,,,,0,1,1,1,0,6,6,30,-0.34305555555555556,-0.3194444444444444,1,0,0,5.944497399992542,call4,0.0375,-0.2902777777777778,1,0,0,7.108301400003256,colour4,0.4013888888888889,-0.07777777777777778,1,0,0,7.707277400011662,number3,True,True,True,9,4,2019_Nov_12_1059,MA_Theta_Exp,3.0.7,60.13500308255712,
video/Experiment/zh_sp01_Un_We_4_NVocInAudio_GlobalThetaInVideo.avi,vocoded,plusVideo,sp01,Un,We,4,1,1,flow/blocks/NVocInAudio_GlobalThetaInVideo_B.csv,,,,,,,,,,,,,,,,,0,1,1,1,0,7,7,31,-0.3472222222222222,-0.3194444444444444,1,0,0,5.307681699996465,call4,0.002777777777777778,-0.2902777777777778,1,0,0,5.752808100005495,colour4,0.37777777777777777,-0.3013888888888889,1,0,0,6.137701500003459,number4,True,True,True,9,4,2019_Nov_12_1059,MA_Theta_Exp,3.0.7,60.13500308255712,
video/Experiment/zh_sp07_Ti_Ro_2_NVocInAudio_GlobalThetaInVideo.avi,vocoded,plusVideo,sp07,Ti,Ro,2,1,1,flow/blocks/NVocInAudio_GlobalThetaInVideo_B.csv,,,,,,,,,,,,,,,,,0,1,1,1,0,8,8,9,-0.3375,-0.10694444444444444,1,0,0,4.713791599991964,call3,0.044444444444444446,-0.11388888888888889,1,0,0,5.125636400000076,colour3,0.3611111111111111,0.10555555555555556,1,0,0,5.710739800008014,number2,True,True,True,9,4,2019_Nov_12_1059,MA_Theta_Exp,3.0.7,60.13500308255712,
video/Experiment/zh_sp01_Un_Ge_4_NVocInAudio_GlobalThetaInVideo.avi,vocoded,plusVideo,sp01,Un,Ge,4,1,1,flow/blocks/NVocInAudio_GlobalThetaInVideo_B.csv,,,,,,,,,,,,,,,,,0,1,1,1,0,9,9,19,-0.4041666666666667,-0.34305555555555556,1,0,0,5.386615199997323,call4,0.022222222222222223,0.34305555555555556,1,0,0,6.120398999992176,colour1,0.3861111111111111,-0.3111111111111111,1,0,0,6.988085300006787,number4,True,True,True,9,4,2019_Nov_12_1059,MA_Theta_Exp,3.0.7,60.13500308255712,
video/Experiment/zh_sp01_Ti_Ro_4_NVocInAudio_GlobalThetaInVideo.avi,vocoded,plusVideo,sp01,Ti,Ro,4,1,1,flow/blocks/NVocInAudio_GlobalThetaInVideo_B.csv,,,,,,,,,,,,,,,,,0,1,1,1,0,10,10,11,-0.34305555555555556,-0.09166666666666666,1,0,0,5.044324000002234,call3,0.002777777777777778,-0.09166666666666666,1,0,0,5.4446624999982305,colour3,0.4527777777777778,-0.31805555555555554,1,0,0,5.918425900003058,number4,True,True,True,9,4,2019_Nov_12_1059,MA_Theta_Exp,3.0.7,60.13500308255712,
video/Experiment/zh_sp01_Ti_Ro_1_NVocInAudio_GlobalThetaInVideo.avi,vocoded,plusVideo,sp01,Ti,Ro,1,1,1,flow/blocks/NVocInAudio_GlobalThetaInVideo_B.csv,,,,,,,,,,,,,,,,,0,1,1,1,0,11,11,8,-0.41805555555555557,-0.08472222222222223,1,0,0,5.029591700003948,call3,-0.025,-0.08333333333333333,1,0,0,5.3964397000090685,colour3,0.4152777777777778,0.30277777777777776,1,0,0,5.9492139000067255,number1,True,True,True,9,4,2019_Nov_12_1059,MA_Theta_Exp,3.0.7,60.13500308255712,
video/Experiment/zh_sp07_Ti_Gr_3_NVocInAudio_GlobalThetaInVideo.avi,vocoded,plusVideo,sp07,Ti,Gr,3,1,1,flow/blocks/NVocInAudio_GlobalThetaInVideo_B.csv,,,,,,,,,,,,,,,,,0,1,1,1,0,12,12,6,-0.375,-0.11388888888888889,1,0,0,4.644984500002465,call3,0.001388888888888889,0.075,1,0,0,5.0946022999996785,colour2,0.3736111111111111,-0.09166666666666666,1,0,0,5.536992000008468,number3,True,True,True,9,4,2019_Nov_12_1059,MA_Theta_Exp,3.0.7,60.13500308255712,
video/Experiment/zh_sp07_Ti_Gr_4_NVocInAudio_GlobalThetaInVideo.avi,vocoded,plusVideo,sp07,Ti,Gr,4,1,1,flow/blocks/NVocInAudio_GlobalThetaInVideo_B.csv,,,,,,,,,,,,,,,,,0,1,1,1,0,13,13,7,-0.43333333333333335,-0.125,1,0,0,4.890642099999241,call3,-0.03333333333333333,0.08333333333333333,1,0,0,5.291443199996138,colour2,0.39861111111111114,-0.2902777777777778,1,0,0,5.940676099999109,number4,True,True,True,9,4,2019_Nov_12_1059,MA_Theta_Exp,3.0.7,60.13500308255712,
video/Experiment/zh_sp01_Ti_Ge_1_NVocInAudio_GlobalThetaInVideo.avi,vocoded,plusVideo,sp01,Ti,Ge,1,1,1,flow/blocks/NVocInAudio_GlobalThetaInVideo_B.csv,,,,,,,,,,,,,,,,,0,1,1,1,0,14,14,0,-0.3625,-0.1388888888888889,1,0,0,5.245956200000364,call3,-0.009722222222222222,0.2986111111111111,1,0,0,5.784900099999504,colour1,0.3347222222222222,0.3,1,0,0,6.178937199991196,number1,True,True,True,9,4,2019_Nov_12_1059,MA_Theta_Exp,3.0.7,60.13500308255712,
