TrialID,NFB_digit1,NFB_digit2,NFB_digit3,Speaker_trial,NV_trial,Triggered_trial,Jitter_trial,practice_block.thisRepN,practice_block.thisTrialN,practice_block.thisN,practice_block.thisIndex,practice_trials.thisRepN,practice_trials.thisTrialN,practice_trials.thisN,practice_trials.thisIndex,response_practice.thisRepN,response_practice.thisTrialN,response_practice.thisN,response_practice.thisIndex,calibration_block.thisRepN,calibration_block.thisTrialN,calibration_block.thisN,calibration_block.thisIndex,exp_trials.thisRepN,exp_trials.thisTrialN,exp_trials.thisN,exp_trials.thisIndex,response_exp.thisRepN,response_exp.thisTrialN,response_exp.thisN,response_exp.thisIndex,Digit1_clear.started,Digit1_clear.stopped,Digit2_clear.started,Digit2_clear.stopped,Digit3_clear.started,Digit3_clear.stopped,response_practice_resp.keys,response_practice_resp.rt,response_practice_resp.started,response_practice_resp.stopped,text_practice_repeat.started,text_practice_repeat.stopped,text.started,text.stopped,text_calibration_repeat.started,text_calibration_repeat.stopped,text_break.started,text_break.stopped,Fixation.started,Fixation.stopped,text_6.started,text_6.stopped,Fixation_Play.started,Fixation_Play.stopped,sound_digit1.started,sound_digit1.stopped,sound_digit2.started,sound_digit2.stopped,sound_digit3.started,sound_digit3.stopped,key_resp.keys,key_resp.rt,key_resp.started,key_resp.stopped,text_nextblock.started,text_nextblock.stopped,response_nextblock.keys,response_nextblock.started,response_nextblock.stopped,response_nextblock.rt,participant,session,date,expName,psychopyVersion,frameRate,
0.0,6.0,2.0,4.0,33.0,,,,0,0,0,0,0,0,0,0,0,0,0,0,,,,,,,,,,,,,0.014996079999036738,None,0.49648747999890475,None,0.9796511799995642,None,['return'],[0.6522733000001608],20.399124699999447,None,,,,,,,,,,,,,,,,,,,,,,,,,,,,,,,1,001,2021_Nov_09_1155,eeg_contingent_digits,2021.2.3,60.036766515767845,
0.0,6.0,2.0,4.0,33.0,,,,0,0,0,0,0,0,0,0,1,0,1,0,,,,,,,,,,,,,,,,,,,['return'],[1.4398722000005364],21.11553549999917,None,,,,,,,,,,,,,,,,,,,,,,,,,,,,,,,1,001,2021_Nov_09_1155,eeg_contingent_digits,2021.2.3,60.036766515767845,
0.0,6.0,2.0,4.0,33.0,,,,0,0,0,0,0,0,0,0,2,0,2,0,,,,,,,,,,,,,,,,,,,['return'],[0.12507999999979802],22.598296899999696,None,,,,,,,,,,,,,,,,,,,,,,,,,,,,,,,1,001,2021_Nov_09_1155,eeg_contingent_digits,2021.2.3,60.036766515767845,
0.0,6.0,2.0,4.0,33.0,,,,0,0,0,0,0,0,0,0,,,,,,,,,,,,,,,,,,,,,,,,,,,,,,,,,,,,,,,,,,,,,,,,,,,,,,,,,1,001,2021_Nov_09_1155,eeg_contingent_digits,2021.2.3,60.036766515767845,
,,,,,,,,0,0,0,0,,,,,,,,,,,,,,,,,,,,,,,,,,,,,,,22.76492799999869,None,,,,,,,,,,,,,,,,,,,,,,,,,,,,,1,001,2021_Nov_09_1155,eeg_contingent_digits,2021.2.3,60.036766515767845,
,,,,,,,,,,,,,,,,,,,,0,0,0,0,,,,,,,,,,,,,,,,,,,,,24.84751209999922,None,45.17307609999989,None,,,,,,,,,,,,,,,,,,,,,,,,,1,001,2021_Nov_09_1155,eeg_contingent_digits,2021.2.3,60.036766515767845,
0.0,2.0,9.0,4.0,33.0,1.0,1.0,0.0,,,,,,,,,,,,,,,,,0,0,0,0,0,0,0,0,,,,,,,,,,,,,,,,,55.185961600000155,None,60.06745319999936,None,60.06745319999936,None,69.01407449999897,70.41357869999956,0.0026049600000987994,None,0.4883561599999666,None,0.9714807599993946,None,['return'],[1.5314877000000706],70.46351549999963,None,,,,,,,1,001,2021_Nov_09_1155,eeg_contingent_digits,2021.2.3,60.036766515767845,
0.0,2.0,9.0,4.0,33.0,1.0,1.0,0.0,,,,,,,,,,,,,,,,,0,0,0,0,1,0,1,0,,,,,,,,,,,,,,,,,,,,,,,,,,,,,,,['return'],[0.23740150000048743],72.0295718999987,None,,,,,,,1,001,2021_Nov_09_1155,eeg_contingent_digits,2021.2.3,60.036766515767845,
0.0,2.0,9.0,4.0,33.0,1.0,1.0,0.0,,,,,,,,,,,,,,,,,0,0,0,0,2,0,2,0,,,,,,,,,,,,,,,,,,,,,,,,,,,,,,,['return'],[0.18619509999916772],72.31282180000017,None,,,,,,,1,001,2021_Nov_09_1155,eeg_contingent_digits,2021.2.3,60.036766515767845,
0.0,2.0,9.0,4.0,33.0,1.0,1.0,0.0,,,,,,,,,,,,,,,,,0,0,0,0,,,,,,,,,,,,,,,,,,,,,,,,,,,,,,,,,,,,,,,None,None,None,None,None,,1,001,2021_Nov_09_1155,eeg_contingent_digits,2021.2.3,60.036766515767845,
1.0,1.0,3.0,5.0,33.0,1.0,0.0,0.0,,,,,,,,,,,,,,,,,0,1,1,1,0,0,0,0,,,,,,,,,,,,,,,,,,,72.56272639999952,None,72.56272639999952,None,81.55931719999899,82.95878619999894,0.000793159999375348,None,0.48478705999878,None,0.9678929599995172,None,['return'],[0.49025690000053146],83.00875950000045,None,,,,,,,1,001,2021_Nov_09_1155,eeg_contingent_digits,2021.2.3,60.036766515767845,
1.0,1.0,3.0,5.0,33.0,1.0,0.0,0.0,,,,,,,,,,,,,,,,,0,1,1,1,1,0,1,0,,,,,,,,,,,,,,,,,,,,,,,,,,,,,,,['return'],[0.2050013999996736],83.54187929999898,None,,,,,,,1,001,2021_Nov_09_1155,eeg_contingent_digits,2021.2.3,60.036766515767845,
1.0,1.0,3.0,5.0,33.0,1.0,0.0,0.0,,,,,,,,,,,,,,,,,0,1,1,1,2,0,2,0,,,,,,,,,,,,,,,,,,,,,,,,,,,,,,,['return'],[0.163097699998616],83.79179339999973,None,,,,,,,1,001,2021_Nov_09_1155,eeg_contingent_digits,2021.2.3,60.036766515767845,
1.0,1.0,3.0,5.0,33.0,1.0,0.0,0.0,,,,,,,,,,,,,,,,,0,1,1,1,,,,,,,,,,,,,,,,,,,,,,,,,,,,,,,,,,,,,,,None,None,None,None,None,,1,001,2021_Nov_09_1155,eeg_contingent_digits,2021.2.3,60.036766515767845,
2.0,4.0,8.0,5.0,21.0,1.0,1.0,0.0,,,,,,,,,,,,,,,,,0,2,2,2,0,0,0,0,,,,,,,,,,,,,,,,,,,84.00844599999982,None,84.00844599999982,None,88.97314939999887,90.37264729999879,0.0053495600004680455,None,0.47693575999983295,None,0.9768443600005412,None,['return'],[0.963533499998448],90.43930349999937,None,,,,,,,1,001,2021_Nov_09_1155,eeg_contingent_digits,2021.2.3,60.036766515767845,
2.0,4.0,8.0,5.0,21.0,1.0,1.0,0.0,,,,,,,,,,,,,,,,,0,2,2,2,1,0,1,0,,,,,,,,,,,,,,,,,,,,,,,,,,,,,,,['return'],[0.21996089999993274],91.43889359999957,None,,,,,,,1,001,2021_Nov_09_1155,eeg_contingent_digits,2021.2.3,60.036766515767845,
2.0,4.0,8.0,5.0,21.0,1.0,1.0,0.0,,,,,,,,,,,,,,,,,0,2,2,2,2,0,2,0,,,,,,,,,,,,,,,,,,,,,,,,,,,,,,,['return'],[0.18534789999830537],91.7054694999988,None,,,,,,,1,001,2021_Nov_09_1155,eeg_contingent_digits,2021.2.3,60.036766515767845,
2.0,4.0,8.0,5.0,21.0,1.0,1.0,0.0,,,,,,,,,,,,,,,,,0,2,2,2,,,,,,,,,,,,,,,,,,,,,,,,,,,,,,,,,,,,,,,None,None,None,None,None,,1,001,2021_Nov_09_1155,eeg_contingent_digits,2021.2.3,60.036766515767845,
3.0,3.0,9.0,8.0,14.0,1.0,0.0,1.0,,,,,,,,,,,,,,,,,0,3,3,3,0,0,0,0,,,,,,,,,,,,,,,,,,,91.9553896999987,None,91.9553896999987,None,98.00308649999897,99.40257720000045,0.006235499999093008,None,0.4789459999974497,None,0.9620908999986568,None,['return'],[0.3582791000008001],99.45252570000048,None,,,,,,,1,001,2021_Nov_09_1155,eeg_contingent_digits,2021.2.3,60.036766515767845,
3.0,3.0,9.0,8.0,14.0,1.0,0.0,1.0,,,,,,,,,,,,,,,,,0,3,3,3,1,0,1,0,,,,,,,,,,,,,,,,,,,,,,,,,,,,,,,['return'],[0.19039880000127596],99.85238969999955,None,,,,,,,1,001,2021_Nov_09_1155,eeg_contingent_digits,2021.2.3,60.036766515767845,
3.0,3.0,9.0,8.0,14.0,1.0,0.0,1.0,,,,,,,,,,,,,,,,,0,3,3,3,2,0,2,0,,,,,,,,,,,,,,,,,,,,,,,,,,,,,,,['return'],[0.18909940000048664],100.08567659999972,None,,,,,,,1,001,2021_Nov_09_1155,eeg_contingent_digits,2021.2.3,60.036766515767845,
3.0,3.0,9.0,8.0,14.0,1.0,0.0,1.0,,,,,,,,,,,,,,,,,0,3,3,3,,,,,,,,,,,,,,,,,,,,,,,,,,,,,,,,,,,,,,,None,None,None,None,None,,1,001,2021_Nov_09_1155,eeg_contingent_digits,2021.2.3,60.036766515767845,
4.0,1.0,5.0,2.0,61.0,1.0,1.0,0.0,,,,,,,,,,,,,,,,,0,4,4,4,0,0,0,0,,,,,,,,,,,,,,,,,,,100.33555279999928,None,100.33555279999928,None,104.91721609999877,106.31662089999918,0.01244589999987511,None,0.49140839999927266,None,0.9745315000000119,None,['return'],[0.699516799999401],106.38326260000031,None,,,,,,,1,001,2021_Nov_09_1155,eeg_contingent_digits,2021.2.3,60.036766515767845,
4.0,1.0,5.0,2.0,61.0,1.0,1.0,0.0,,,,,,,,,,,,,,,,,0,4,4,4,1,0,1,0,,,,,,,,,,,,,,,,,,,,,,,,,,,,,,,['return'],[0.21436260000155016],107.11629939999875,None,,,,,,,1,001,2021_Nov_09_1155,eeg_contingent_digits,2021.2.3,60.036766515767845,
4.0,1.0,5.0,2.0,61.0,1.0,1.0,0.0,,,,,,,,,,,,,,,,,0,4,4,4,2,0,2,0,,,,,,,,,,,,,,,,,,,,,,,,,,,,,,,['return'],[0.19663349999973434],107.36610289999953,None,,,,,,,1,001,2021_Nov_09_1155,eeg_contingent_digits,2021.2.3,60.036766515767845,
4.0,1.0,5.0,2.0,61.0,1.0,1.0,0.0,,,,,,,,,,,,,,,,,0,4,4,4,,,,,,,,,,,,,,,,,,,,,,,,,,,,,,,,,,,,,,,None,None,None,None,None,,1,001,2021_Nov_09_1155,eeg_contingent_digits,2021.2.3,60.036766515767845,
5.0,2.0,1.0,9.0,7.0,1.0,0.0,-0.0,,,,,,,,,,,,,,,,,0,5,5,5,0,0,0,0,,,,,,,,,,,,,,,,,,,107.61619959999916,None,107.61619959999916,None,112.2810386000001,113.68051709999963,0.015930800000205636,None,0.4983009999996284,None,0.9814642000001186,None,['return'],[0.27228199999990466],113.73042170000008,None,,,,,,,1,001,2021_Nov_09_1155,eeg_contingent_digits,2021.2.3,60.036766515767845,
5.0,2.0,1.0,9.0,7.0,1.0,0.0,-0.0,,,,,,,,,,,,,,,,,0,5,5,5,1,0,1,0,,,,,,,,,,,,,,,,,,,,,,,,,,,,,,,['return'],[0.2036129999996774],114.04705319999994,None,,,,,,,1,001,2021_Nov_09_1155,eeg_contingent_digits,2021.2.3,60.036766515767845,
5.0,2.0,1.0,9.0,7.0,1.0,0.0,-0.0,,,,,,,,,,,,,,,,,0,5,5,5,2,0,2,0,,,,,,,,,,,,,,,,,,,,,,,,,,,,,,,['return'],[0.18573290000131237],114.2969720000001,None,,,,,,,1,001,2021_Nov_09_1155,eeg_contingent_digits,2021.2.3,60.036766515767845,
5.0,2.0,1.0,9.0,7.0,1.0,0.0,-0.0,,,,,,,,,,,,,,,,,0,5,5,5,,,,,,,,,,,,,,,,,,,,,,,,,,,,,,,,,,,,,,,None,None,None,None,None,,1,001,2021_Nov_09_1155,eeg_contingent_digits,2021.2.3,60.036766515767845,
6.0,3.0,9.0,0.0,61.0,1.0,1.0,0.0,,,,,,,,,,,,,,,,,0,6,6,6,0,0,0,0,,,,,,,,,,,,,,,,,,,114.54683389999991,None,114.54683389999991,None,118.54536670000016,119.94485700000041,0.008823599999232101,None,0.48419040000044333,None,0.9672191999998176,None,['return'],[1.887861699999121],119.99477879999904,None,,,,,,,1,001,2021_Nov_09_1155,eeg_contingent_digits,2021.2.3,60.036766515767845,
6.0,3.0,9.0,0.0,61.0,1.0,1.0,0.0,,,,,,,,,,,,,,,,,0,6,6,6,1,0,1,0,,,,,,,,,,,,,,,,,,,,,,,,,,,,,,,['return'],[0.20324540000001434],121.92737010000019,None,,,,,,,1,001,2021_Nov_09_1155,eeg_contingent_digits,2021.2.3,60.036766515767845,
6.0,3.0,9.0,0.0,61.0,1.0,1.0,0.0,,,,,,,,,,,,,,,,,0,6,6,6,2,0,2,0,,,,,,,,,,,,,,,,,,,,,,,,,,,,,,,['return'],[0.16132800000013958],122.17729019999933,None,,,,,,,1,001,2021_Nov_09_1155,eeg_contingent_digits,2021.2.3,60.036766515767845,
6.0,3.0,9.0,0.0,61.0,1.0,1.0,0.0,,,,,,,,,,,,,,,,,0,6,6,6,,,,,,,,,,,,,,,,,,,,,,,,,,,,,,,,,,,,,,,None,None,None,None,None,,1,001,2021_Nov_09_1155,eeg_contingent_digits,2021.2.3,60.036766515767845,
7.0,1.0,8.0,6.0,10.0,1.0,0.0,1.0,,,,,,,,,,,,,,,,,0,7,7,7,0,0,0,0,,,,,,,,,,,,,,,,,,,122.3939008999987,None,122.3939008999987,None,127.5085951000001,128.9081604999992,0.009150700001555379,None,0.4847832000014023,None,0.9679337000015948,None,['return'],[0.4204429000001255],128.95809910000025,None,,,,,,,1,001,2021_Nov_09_1155,eeg_contingent_digits,2021.2.3,60.036766515767845,
7.0,1.0,8.0,6.0,10.0,1.0,0.0,1.0,,,,,,,,,,,,,,,,,0,7,7,7,1,0,1,0,,,,,,,,,,,,,,,,,,,,,,,,,,,,,,,['return'],[0.19402389999959269],129.4245439999995,None,,,,,,,1,001,2021_Nov_09_1155,eeg_contingent_digits,2021.2.3,60.036766515767845,
7.0,1.0,8.0,6.0,10.0,1.0,0.0,1.0,,,,,,,,,,,,,,,,,0,7,7,7,2,0,2,0,,,,,,,,,,,,,,,,,,,,,,,,,,,,,,,['return'],[0.18474690000039118],129.65777789999993,None,,,,,,,1,001,2021_Nov_09_1155,eeg_contingent_digits,2021.2.3,60.036766515767845,
7.0,1.0,8.0,6.0,10.0,1.0,0.0,1.0,,,,,,,,,,,,,,,,,0,7,7,7,,,,,,,,,,,,,,,,,,,,,,,,,,,,,,,,,,,,,,,129.9410558999989,None,return,129.9410558999989,None,0.893465400000423,1,001,2021_Nov_09_1155,eeg_contingent_digits,2021.2.3,60.036766515767845,
8.0,3.0,1.0,9.0,21.0,1.0,1.0,0.0,,,,,,,,,,,,,,,,,0,8,8,8,0,0,0,0,,,,,,,,,,,,,,,,,,,130.87406179999925,None,130.87406179999925,None,137.4215664000003,138.82099769999877,0.011592060000111815,None,0.48967436000020825,None,0.9728223599995545,None,['return'],[1.922829000001002],138.88766329999999,None,,,,,,,1,001,2021_Nov_09_1155,eeg_contingent_digits,2021.2.3,60.036766515767845,
8.0,3.0,1.0,9.0,21.0,1.0,1.0,0.0,,,,,,,,,,,,,,,,,0,8,8,8,1,0,1,0,,,,,,,,,,,,,,,,,,,,,,,,,,,,,,,['return'],[0.1889300999991974],140.8535541000001,None,,,,,,,1,001,2021_Nov_09_1155,eeg_contingent_digits,2021.2.3,60.036766515767845,
8.0,3.0,1.0,9.0,21.0,1.0,1.0,0.0,,,,,,,,,,,,,,,,,0,8,8,8,2,0,2,0,,,,,,,,,,,,,,,,,,,,,,,,,,,,,,,['return'],[0.17165400000158115],141.08679370000027,None,,,,,,,1,001,2021_Nov_09_1155,eeg_contingent_digits,2021.2.3,60.036766515767845,
8.0,3.0,1.0,9.0,21.0,1.0,1.0,0.0,,,,,,,,,,,,,,,,,0,8,8,8,,,,,,,,,,,,,,,,,,,,,,,,,,,,,,,,,,,,,,,None,None,None,None,None,,1,001,2021_Nov_09_1155,eeg_contingent_digits,2021.2.3,60.036766515767845,
9.0,3.0,8.0,4.0,10.0,1.0,0.0,-1.0,,,,,,,,,,,,,,,,,0,9,9,9,0,0,0,0,,,,,,,,,,,,,,,,,,,141.32009749999997,None,141.32009749999997,None,146.96821569999884,148.36738399999922,0.003907959999196464,None,0.4910273599980428,None,0.9741339599986532,None,['return'],[4.496996899999431],148.4173762999999,None,,,,,,,1,001,2021_Nov_09_1155,eeg_contingent_digits,2021.2.3,60.036766515767845,
9.0,3.0,8.0,4.0,10.0,1.0,0.0,-1.0,,,,,,,,,,,,,,,,,0,9,9,9,1,0,1,0,,,,,,,,,,,,,,,,,,,,,,,,,,,,,,,['return'],[0.15742610000052082],152.94897479999963,None,,,,,,,1,001,2021_Nov_09_1155,eeg_contingent_digits,2021.2.3,60.036766515767845,
9.0,3.0,8.0,4.0,10.0,1.0,0.0,-1.0,,,,,,,,,,,,,,,,,0,9,9,9,2,0,2,0,,,,,,,,,,,,,,,,,,,,,,,,,,,,,,,['return'],[0.1335717999991175],153.14888059999976,None,,,,,,,1,001,2021_Nov_09_1155,eeg_contingent_digits,2021.2.3,60.036766515767845,
9.0,3.0,8.0,4.0,10.0,1.0,0.0,-1.0,,,,,,,,,,,,,,,,,0,9,9,9,,,,,,,,,,,,,,,,,,,,,,,,,,,,,,,,,,,,,,,None,None,None,None,None,,1,001,2021_Nov_09_1155,eeg_contingent_digits,2021.2.3,60.036766515767845,
10.0,5.0,1.0,8.0,1.0,1.0,1.0,0.0,,,,,,,,,,,,,,,,,0,10,10,10,0,0,0,0,,,,,,,,,,,,,,,,,,,153.33227249999982,None,153.33227249999982,None,157.06408269999883,158.46356430000014,0.008617860001322697,None,0.48374776000127895,None,0.9669350600015605,None,['return'],[2.0087581999996473],158.51355239999975,None,,,,,,,1,001,2021_Nov_09_1155,eeg_contingent_digits,2021.2.3,60.036766515767845,
10.0,5.0,1.0,8.0,1.0,1.0,1.0,0.0,,,,,,,,,,,,,,,,,0,10,10,10,1,0,1,0,,,,,,,,,,,,,,,,,,,,,,,,,,,,,,,['return'],[0.21557539999957953],160.56279170000016,None,,,,,,,1,001,2021_Nov_09_1155,eeg_contingent_digits,2021.2.3,60.036766515767845,
10.0,5.0,1.0,8.0,1.0,1.0,1.0,0.0,,,,,,,,,,,,,,,,,0,10,10,10,2,0,2,0,,,,,,,,,,,,,,,,,,,,,,,,,,,,,,,['return'],[0.18176099999982398],160.81255359999886,None,,,,,,,1,001,2021_Nov_09_1155,eeg_contingent_digits,2021.2.3,60.036766515767845,
10.0,5.0,1.0,8.0,1.0,1.0,1.0,0.0,,,,,,,,,,,,,,,,,0,10,10,10,,,,,,,,,,,,,,,,,,,,,,,,,,,,,,,,,,,,,,,None,None,None,None,None,,1,001,2021_Nov_09_1155,eeg_contingent_digits,2021.2.3,60.036766515767845,
11.0,8.0,5.0,6.0,14.0,1.0,0.0,-0.0,,,,,,,,,,,,,,,,,0,11,11,11,0,0,0,0,,,,,,,,,,,,,,,,,,,161.04600899999969,None,161.04600899999969,None,164.8945007000002,166.2939475000003,0.0005823000010423129,None,0.48431950000122015,None,0.96758840000075,None,['return'],[0.6823206999997637],166.34391239999968,None,,,,,,,1,001,2021_Nov_09_1155,eeg_contingent_digits,2021.2.3,60.036766515767845,
11.0,8.0,5.0,6.0,14.0,1.0,0.0,-0.0,,,,,,,,,,,,,,,,,0,11,11,11,1,0,1,0,,,,,,,,,,,,,,,,,,,,,,,,,,,,,,,['return'],[0.19794270000056713],167.06033879999995,None,,,,,,,1,001,2021_Nov_09_1155,eeg_contingent_digits,2021.2.3,60.036766515767845,
11.0,8.0,5.0,6.0,14.0,1.0,0.0,-0.0,,,,,,,,,,,,,,,,,0,11,11,11,2,0,2,0,,,,,,,,,,,,,,,,,,,,,,,,,,,,,,,['return'],[0.16462329999922076],167.29361309999877,None,,,,,,,1,001,2021_Nov_09_1155,eeg_contingent_digits,2021.2.3,60.036766515767845,
11.0,8.0,5.0,6.0,14.0,1.0,0.0,-0.0,,,,,,,,,,,,,,,,,0,11,11,11,,,,,,,,,,,,,,,,,,,,,,,,,,,,,,,,,,,,,,,None,None,None,None,None,,1,001,2021_Nov_09_1155,eeg_contingent_digits,2021.2.3,60.036766515767845,
12.0,1.0,8.0,6.0,48.0,1.0,1.0,0.0,,,,,,,,,,,,,,,,,0,12,12,12,0,0,0,0,,,,,,,,,,,,,,,,,,,167.5102038999994,None,167.5102038999994,None,173.59122319999915,174.99064379999982,0.013687599997865618,None,0.4938652999971964,None,0.9770044999986567,None,['return'],[0.6089422999993985],175.0573016999988,None,,,,,,,1,001,2021_Nov_09_1155,eeg_contingent_digits,2021.2.3,60.036766515767845,
12.0,1.0,8.0,6.0,48.0,1.0,1.0,0.0,,,,,,,,,,,,,,,,,0,12,12,12,1,0,1,0,,,,,,,,,,,,,,,,,,,,,,,,,,,,,,,['return'],[0.18318400000134716],175.70703729999877,None,,,,,,,1,001,2021_Nov_09_1155,eeg_contingent_digits,2021.2.3,60.036766515767845,
12.0,1.0,8.0,6.0,48.0,1.0,1.0,0.0,,,,,,,,,,,,,,,,,0,12,12,12,2,0,2,0,,,,,,,,,,,,,,,,,,,,,,,,,,,,,,,['return'],[0.19060280000121566],175.92359399999987,None,,,,,,,1,001,2021_Nov_09_1155,eeg_contingent_digits,2021.2.3,60.036766515767845,
12.0,1.0,8.0,6.0,48.0,1.0,1.0,0.0,,,,,,,,,,,,,,,,,0,12,12,12,,,,,,,,,,,,,,,,,,,,,,,,,,,,,,,,,,,,,,,None,None,None,None,None,,1,001,2021_Nov_09_1155,eeg_contingent_digits,2021.2.3,60.036766515767845,
13.0,4.0,1.0,2.0,48.0,1.0,0.0,-1.0,,,,,,,,,,,,,,,,,0,13,13,13,0,0,0,0,,,,,,,,,,,,,,,,,,,176.17354089999935,None,176.17354089999935,None,181.3382462999998,182.7377486000005,0.0012810600001103012,None,0.48573186000066926,None,0.9688496599992504,None,['return'],[0.5343857999996544],182.78773019999971,None,,,,,,,1,001,2021_Nov_09_1155,eeg_contingent_digits,2021.2.3,60.036766515767845,
13.0,4.0,1.0,2.0,48.0,1.0,0.0,-1.0,,,,,,,,,,,,,,,,,0,13,13,13,1,0,1,0,,,,,,,,,,,,,,,,,,,,,,,,,,,,,,,['return'],[0.1679212999988522],183.354212799999,None,,,,,,,1,001,2021_Nov_09_1155,eeg_contingent_digits,2021.2.3,60.036766515767845,
13.0,4.0,1.0,2.0,48.0,1.0,0.0,-1.0,,,,,,,,,,,,,,,,,0,13,13,13,2,0,2,0,,,,,,,,,,,,,,,,,,,,,,,,,,,,,,,['return'],[1.2639772000002267],183.55411509999976,None,,,,,,,1,001,2021_Nov_09_1155,eeg_contingent_digits,2021.2.3,60.036766515767845,
13.0,4.0,1.0,2.0,48.0,1.0,0.0,-1.0,,,,,,,,,,,,,,,,,0,13,13,13,,,,,,,,,,,,,,,,,,,,,,,,,,,,,,,,,,,,,,,None,None,None,None,None,,1,001,2021_Nov_09_1155,eeg_contingent_digits,2021.2.3,60.036766515767845,
14.0,8.0,3.0,6.0,48.0,1.0,1.0,0.0,,,,,,,,,,,,,,,,,0,14,14,14,0,0,0,0,,,,,,,,,,,,,,,,,,,184.8702744000002,None,184.8702744000002,None,186.95276299999932,188.3522710999987,0.005523359997823718,None,0.4775489599978755,None,0.9774183599984099,None,['return'],[1.479808199999752],188.4022920999996,None,,,,,,,1,001,2021_Nov_09_1155,eeg_contingent_digits,2021.2.3,60.036766515767845,
14.0,8.0,3.0,6.0,48.0,1.0,1.0,0.0,,,,,,,,,,,,,,,,,0,14,14,14,1,0,1,0,,,,,,,,,,,,,,,,,,,,,,,,,,,,,,,['return'],[0.22774650000064867],189.9183224999997,None,,,,,,,1,001,2021_Nov_09_1155,eeg_contingent_digits,2021.2.3,60.036766515767845,
14.0,8.0,3.0,6.0,48.0,1.0,1.0,0.0,,,,,,,,,,,,,,,,,0,14,14,14,2,0,2,0,,,,,,,,,,,,,,,,,,,,,,,,,,,,,,,['return'],[0.2332377999991877],190.18489349999982,None,,,,,,,1,001,2021_Nov_09_1155,eeg_contingent_digits,2021.2.3,60.036766515767845,
14.0,8.0,3.0,6.0,48.0,1.0,1.0,0.0,,,,,,,,,,,,,,,,,0,14,14,14,,,,,,,,,,,,,,,,,,,,,,,,,,,,,,,,,,,,,,,None,None,None,None,None,,1,001,2021_Nov_09_1155,eeg_contingent_digits,2021.2.3,60.036766515767845,
15.0,5.0,9.0,0.0,33.0,1.0,0.0,-0.0,,,,,,,,,,,,,,,,,0,15,15,15,0,0,0,0,,,,,,,,,,,,,,,,,,,190.46814389999963,None,190.46814389999963,None,192.66736599999967,194.06681129999924,0.0015930600002320716,None,0.4863487599996006,None,0.9694849600000452,None,['return'],[0.5652904999988095],194.11680689999957,None,,,,,,,1,001,2021_Nov_09_1155,eeg_contingent_digits,2021.2.3,60.036766515767845,
15.0,5.0,9.0,0.0,33.0,1.0,0.0,-0.0,,,,,,,,,,,,,,,,,0,15,15,15,1,0,1,0,,,,,,,,,,,,,,,,,,,,,,,,,,,,,,,['return'],[0.18949260000044887],194.71655649999957,None,,,,,,,1,001,2021_Nov_09_1155,eeg_contingent_digits,2021.2.3,60.036766515767845,
15.0,5.0,9.0,0.0,33.0,1.0,0.0,-0.0,,,,,,,,,,,,,,,,,0,15,15,15,2,0,2,0,,,,,,,,,,,,,,,,,,,,,,,,,,,,,,,['return'],[0.15626630000042496],194.94981329999973,None,,,,,,,1,001,2021_Nov_09_1155,eeg_contingent_digits,2021.2.3,60.036766515767845,
15.0,5.0,9.0,0.0,33.0,1.0,0.0,-0.0,,,,,,,,,,,,,,,,,0,15,15,15,,,,,,,,,,,,,,,,,,,,,,,,,,,,,,,,,,,,,,,195.18300420000014,None,return,195.18300420000014,None,1.0830287999997381,1,001,2021_Nov_09_1155,eeg_contingent_digits,2021.2.3,60.036766515767845,
16.0,1.0,1.0,4.0,1.0,0.0,1.0,0.0,,,,,,,,,,,,,,,,,0,16,16,16,0,0,0,0,,,,,,,,,,,,,,,,,,,196.29926559999876,None,196.29926559999876,None,201.98045939999975,203.37992379999923,0.007302959998924052,None,0.46445716000016546,None,0.947618459998921,None,['return'],[0.6280042000016692],203.42993810000007,None,,,,,,,1,001,2021_Nov_09_1155,eeg_contingent_digits,2021.2.3,60.036766515767845,
16.0,1.0,1.0,4.0,1.0,0.0,1.0,0.0,,,,,,,,,,,,,,,,,0,16,16,16,1,0,1,0,,,,,,,,,,,,,,,,,,,,,,,,,,,,,,,['return'],[0.257670799999687],204.09630490000018,None,,,,,,,1,001,2021_Nov_09_1155,eeg_contingent_digits,2021.2.3,60.036766515767845,
16.0,1.0,1.0,4.0,1.0,0.0,1.0,0.0,,,,,,,,,,,,,,,,,0,16,16,16,2,0,2,0,,,,,,,,,,,,,,,,,,,,,,,,,,,,,,,['return'],[0.14190700000108336],204.39607459999934,None,,,,,,,1,001,2021_Nov_09_1155,eeg_contingent_digits,2021.2.3,60.036766515767845,
16.0,1.0,1.0,4.0,1.0,0.0,1.0,0.0,,,,,,,,,,,,,,,,,0,16,16,16,,,,,,,,,,,,,,,,,,,,,,,,,,,,,,,,,,,,,,,None,None,None,None,None,,1,001,2021_Nov_09_1155,eeg_contingent_digits,2021.2.3,60.036766515767845,
17.0,3.0,8.0,4.0,10.0,0.0,0.0,0.0,,,,,,,,,,,,,,,,,0,17,17,17,0,0,0,0,,,,,,,,,,,,,,,,,,,204.59614379999948,None,204.59614379999948,None,210.3272804999997,211.72676890000002,0.008577340000556433,None,0.483656840000549,None,0.9668071400010376,None,['return'],[0.5604464000007283],211.7934680999988,None,,,,,,,1,001,2021_Nov_09_1155,eeg_contingent_digits,2021.2.3,60.036766515767845,
17.0,3.0,8.0,4.0,10.0,0.0,0.0,0.0,,,,,,,,,,,,,,,,,0,17,17,17,1,0,1,0,,,,,,,,,,,,,,,,,,,,,,,,,,,,,,,['return'],[0.20876569999927597],212.39314129999912,None,,,,,,,1,001,2021_Nov_09_1155,eeg_contingent_digits,2021.2.3,60.036766515767845,
17.0,3.0,8.0,4.0,10.0,0.0,0.0,0.0,,,,,,,,,,,,,,,,,0,17,17,17,2,0,2,0,,,,,,,,,,,,,,,,,,,,,,,,,,,,,,,['return'],[0.15083839999897464],212.64308399999936,None,,,,,,,1,001,2021_Nov_09_1155,eeg_contingent_digits,2021.2.3,60.036766515767845,
17.0,3.0,8.0,4.0,10.0,0.0,0.0,0.0,,,,,,,,,,,,,,,,,0,17,17,17,,,,,,,,,,,,,,,,,,,,,,,,,,,,,,,,,,,,,,,None,None,None,None,None,,1,001,2021_Nov_09_1155,eeg_contingent_digits,2021.2.3,60.036766515767845,
18.0,3.0,8.0,6.0,10.0,0.0,1.0,0.0,,,,,,,,,,,,,,,,,0,18,18,18,0,0,0,0,,,,,,,,,,,,,,,,,,,212.84300780000012,None,212.84300780000012,None,215.87524549999944,217.2746565999987,0.010953359998893575,None,0.4884314599985373,None,0.9549357599989889,None,['return'],[1.5652342999983375],217.32464880000043,None,,,,,,,1,001,2021_Nov_09_1155,eeg_contingent_digits,2021.2.3,60.036766515767845,
18.0,3.0,8.0,6.0,10.0,0.0,1.0,0.0,,,,,,,,,,,,,,,,,0,18,18,18,1,0,1,0,,,,,,,,,,,,,,,,,,,,,,,,,,,,,,,['return'],[0.18989289999990433],218.9240095999994,None,,,,,,,1,001,2021_Nov_09_1155,eeg_contingent_digits,2021.2.3,60.036766515767845,
18.0,3.0,8.0,6.0,10.0,0.0,1.0,0.0,,,,,,,,,,,,,,,,,0,18,18,18,2,0,2,0,,,,,,,,,,,,,,,,,,,,,,,,,,,,,,,['return'],[0.15652849999969476],219.15730809999877,None,,,,,,,1,001,2021_Nov_09_1155,eeg_contingent_digits,2021.2.3,60.036766515767845,
18.0,3.0,8.0,6.0,10.0,0.0,1.0,0.0,,,,,,,,,,,,,,,,,0,18,18,18,,,,,,,,,,,,,,,,,,,,,,,,,,,,,,,,,,,,,,,None,None,None,None,None,,1,001,2021_Nov_09_1155,eeg_contingent_digits,2021.2.3,60.036766515767845,
19.0,1.0,3.0,6.0,1.0,0.0,0.0,-1.0,,,,,,,,,,,,,,,,,0,19,19,19,0,0,0,0,,,,,,,,,,,,,,,,,,,219.37386030000016,None,219.37386030000016,None,221.5063854,222.90585180000016,0.009097059999476187,None,0.4847150599998713,None,0.9679125599996041,None,['return'],[1.2299364000009518],222.9558875999992,None,,,,,,,1,001,2021_Nov_09_1155,eeg_contingent_digits,2021.2.3,60.036766515767845,
19.0,1.0,3.0,6.0,1.0,0.0,0.0,-1.0,,,,,,,,,,,,,,,,,0,19,19,19,1,0,1,0,,,,,,,,,,,,,,,,,,,,,,,,,,,,,,,['return'],[0.22779850000006263],224.22201440000026,None,,,,,,,1,001,2021_Nov_09_1155,eeg_contingent_digits,2021.2.3,60.036766515767845,
19.0,1.0,3.0,6.0,1.0,0.0,0.0,-1.0,,,,,,,,,,,,,,,,,0,19,19,19,2,0,2,0,,,,,,,,,,,,,,,,,,,,,,,,,,,,,,,['return'],[0.13717519999954675],224.4886147999987,None,,,,,,,1,001,2021_Nov_09_1155,eeg_contingent_digits,2021.2.3,60.036766515767845,
19.0,1.0,3.0,6.0,1.0,0.0,0.0,-1.0,,,,,,,,,,,,,,,,,0,19,19,19,,,,,,,,,,,,,,,,,,,,,,,,,,,,,,,,,,,,,,,None,None,None,None,None,,1,001,2021_Nov_09_1155,eeg_contingent_digits,2021.2.3,60.036766515767845,
20.0,1.0,3.0,0.0,13.0,0.0,1.0,0.0,,,,,,,,,,,,,,,,,0,20,20,20,0,0,0,0,,,,,,,,,,,,,,,,,,,224.6885156999997,None,224.6885156999997,None,229.63664599999902,231.03612599999906,0.013355060000321828,None,0.4765953599999193,None,0.9598109599992313,None,['return'],[1.476336399999127],231.0694201999995,None,,,,,,,1,001,2021_Nov_09_1155,eeg_contingent_digits,2021.2.3,60.036766515767845,
20.0,1.0,3.0,0.0,13.0,0.0,1.0,0.0,,,,,,,,,,,,,,,,,0,20,20,20,1,0,1,0,,,,,,,,,,,,,,,,,,,,,,,,,,,,,,,['return'],[0.17624799999975949],232.58551879999868,None,,,,,,,1,001,2021_Nov_09_1155,eeg_contingent_digits,2021.2.3,60.036766515767845,
20.0,1.0,3.0,0.0,13.0,0.0,1.0,0.0,,,,,,,,,,,,,,,,,0,20,20,20,2,0,2,0,,,,,,,,,,,,,,,,,,,,,,,,,,,,,,,['return'],[0.15173279999908118],232.80209060000016,None,,,,,,,1,001,2021_Nov_09_1155,eeg_contingent_digits,2021.2.3,60.036766515767845,
20.0,1.0,3.0,0.0,13.0,0.0,1.0,0.0,,,,,,,,,,,,,,,,,0,20,20,20,,,,,,,,,,,,,,,,,,,,,,,,,,,,,,,,,,,,,,,None,None,None,None,None,,1,001,2021_Nov_09_1155,eeg_contingent_digits,2021.2.3,60.036766515767845,
21.0,4.0,9.0,6.0,33.0,0.0,0.0,1.0,,,,,,,,,,,,,,,,,0,21,21,21,0,0,0,0,,,,,,,,,,,,,,,,,,,233.00208219999877,None,233.00208219999877,None,239.04975249999916,240.44925010000043,0.005042419998062542,None,0.4765969199979736,None,0.9764744199983397,None,['return'],[0.1984572000001208],240.49921240000003,None,,,,,,,1,001,2021_Nov_09_1155,eeg_contingent_digits,2021.2.3,60.036766515767845,
21.0,4.0,9.0,6.0,33.0,0.0,0.0,1.0,,,,,,,,,,,,,,,,,0,21,21,21,1,0,1,0,,,,,,,,,,,,,,,,,,,,,,,,,,,,,,,['return'],[0.17337619999852905],240.73232780000035,None,,,,,,,1,001,2021_Nov_09_1155,eeg_contingent_digits,2021.2.3,60.036766515767845,
21.0,4.0,9.0,6.0,33.0,0.0,0.0,1.0,,,,,,,,,,,,,,,,,0,21,21,21,2,0,2,0,,,,,,,,,,,,,,,,,,,,,,,,,,,,,,,['return'],[0.7486391000002186],240.9490625999988,None,,,,,,,1,001,2021_Nov_09_1155,eeg_contingent_digits,2021.2.3,60.036766515767845,
21.0,4.0,9.0,6.0,33.0,0.0,0.0,1.0,,,,,,,,,,,,,,,,,0,21,21,21,,,,,,,,,,,,,,,,,,,,,,,,,,,,,,,,,,,,,,,None,None,None,None,None,,1,001,2021_Nov_09_1155,eeg_contingent_digits,2021.2.3,60.036766515767845,
22.0,4.0,9.0,2.0,7.0,0.0,1.0,0.0,,,,,,,,,,,,,,,,,0,22,22,22,0,0,0,0,,,,,,,,,,,,,,,,,,,241.7487248999987,None,241.7487248999987,None,253.37767890000032,254.77714969999943,0.011229760000787792,None,0.47238805999950273,None,0.955449459999727,None,['return'],[0.29444280000097933],254.82710919999954,None,,,,,,,1,001,2021_Nov_09_1155,eeg_contingent_digits,2021.2.3,60.036766515767845,
22.0,4.0,9.0,2.0,7.0,0.0,1.0,0.0,,,,,,,,,,,,,,,,,0,22,22,22,1,0,1,0,,,,,,,,,,,,,,,,,,,,,,,,,,,,,,,['return'],[0.1852522000008321],255.16030759999921,None,,,,,,,1,001,2021_Nov_09_1155,eeg_contingent_digits,2021.2.3,60.036766515767845,
22.0,4.0,9.0,2.0,7.0,0.0,1.0,0.0,,,,,,,,,,,,,,,,,0,22,22,22,2,0,2,0,,,,,,,,,,,,,,,,,,,,,,,,,,,,,,,['return'],[0.18463540000084322],255.3769143999998,None,,,,,,,1,001,2021_Nov_09_1155,eeg_contingent_digits,2021.2.3,60.036766515767845,
22.0,4.0,9.0,2.0,7.0,0.0,1.0,0.0,,,,,,,,,,,,,,,,,0,22,22,22,,,,,,,,,,,,,,,,,,,,,,,,,,,,,,,,,,,,,,,None,None,None,None,None,,1,001,2021_Nov_09_1155,eeg_contingent_digits,2021.2.3,60.036766515767845,
23.0,1.0,9.0,8.0,13.0,0.0,0.0,2.0,,,,,,,,,,,,,,,,,0,23,23,23,0,0,0,0,,,,,,,,,,,,,,,,,,,255.62684679999984,None,255.62684679999984,None,262.7241448999994,264.12360269999954,0.00015281999912986066,None,0.4668241199997283,None,0.950001319999501,None,['return'],[0.34868619999906514],264.15681239999867,None,,,,,,,1,001,2021_Nov_09_1155,eeg_contingent_digits,2021.2.3,60.036766515767845,
23.0,1.0,9.0,8.0,13.0,0.0,0.0,2.0,,,,,,,,,,,,,,,,,0,23,23,23,1,0,1,0,,,,,,,,,,,,,,,,,,,,,,,,,,,,,,,['return'],[0.23742349999884027],264.5400919999993,None,,,,,,,1,001,2021_Nov_09_1155,eeg_contingent_digits,2021.2.3,60.036766515767845,
23.0,1.0,9.0,8.0,13.0,0.0,0.0,2.0,,,,,,,,,,,,,,,,,0,23,23,23,2,0,2,0,,,,,,,,,,,,,,,,,,,,,,,,,,,,,,,['return'],[0.1541162000012264],264.82335989999956,None,,,,,,,1,001,2021_Nov_09_1155,eeg_contingent_digits,2021.2.3,60.036766515767845,
23.0,1.0,9.0,8.0,13.0,0.0,0.0,2.0,,,,,,,,,,,,,,,,,0,23,23,23,,,,,,,,,,,,,,,,,,,,,,,,,,,,,,,,,,,,,,,265.0566015000004,None,return,265.0566015000004,None,2.4968996999996307,1,001,2021_Nov_09_1155,eeg_contingent_digits,2021.2.3,60.036766515767845,
24.0,3.0,9.0,9.0,49.0,0.0,1.0,0.0,,,,,,,,,,,,,,,,,0,24,24,24,0,0,0,0,,,,,,,,,,,,,,,,,,,267.58897849999994,None,267.58897849999994,None,274.7529063999991,276.15243329999976,0.01183275999937905,None,0.49021166000056837,None,0.9732763600004546,None,['return'],[1.0150049000003492],276.2023989999998,None,,,,,,,1,001,2021_Nov_09_1155,eeg_contingent_digits,2021.2.3,60.036766515767845,
24.0,3.0,9.0,9.0,49.0,0.0,1.0,0.0,,,,,,,,,,,,,,,,,0,24,24,24,1,0,1,0,,,,,,,,,,,,,,,,,,,,,,,,,,,,,,,['return'],[0.17348279999896477],277.25195089999943,None,,,,,,,1,001,2021_Nov_09_1155,eeg_contingent_digits,2021.2.3,60.036766515767845,
24.0,3.0,9.0,9.0,49.0,0.0,1.0,0.0,,,,,,,,,,,,,,,,,0,24,24,24,2,0,2,0,,,,,,,,,,,,,,,,,,,,,,,,,,,,,,,['return'],[0.15685490000032587],277.46854429999985,None,,,,,,,1,001,2021_Nov_09_1155,eeg_contingent_digits,2021.2.3,60.036766515767845,
24.0,3.0,9.0,9.0,49.0,0.0,1.0,0.0,,,,,,,,,,,,,,,,,0,24,24,24,,,,,,,,,,,,,,,,,,,,,,,,,,,,,,,,,,,,,,,None,None,None,None,None,,1,001,2021_Nov_09_1155,eeg_contingent_digits,2021.2.3,60.036766515767845,
