TrialID,NFB_digit1,NFB_digit2,NFB_digit3,Speaker_trial,NV_trial,Triggered_trial,Jitter_trial,practice_block.thisRepN,practice_block.thisTrialN,practice_block.thisN,practice_block.thisIndex,practice_trials.thisRepN,practice_trials.thisTrialN,practice_trials.thisN,practice_trials.thisIndex,response_practice.thisRepN,response_practice.thisTrialN,response_practice.thisN,response_practice.thisIndex,calibration_block.thisRepN,calibration_block.thisTrialN,calibration_block.thisN,calibration_block.thisIndex,exp_trials.thisRepN,exp_trials.thisTrialN,exp_trials.thisN,exp_trials.thisIndex,response_exp.thisRepN,response_exp.thisTrialN,response_exp.thisN,response_exp.thisIndex,text.started,text.stopped,Digit1_clear.started,Digit1_clear.stopped,Digit2_clear.started,Digit2_clear.stopped,Digit3_clear.started,Digit3_clear.stopped,response_practice_resp.keys,response_practice_resp.rt,response_practice_resp.started,response_practice_resp.stopped,text_practice_repeat.started,text_practice_repeat.stopped,text_calibration_repeat.started,text_calibration_repeat.stopped,text_2.started,text_2.stopped,text_break.started,text_break.stopped,Fixation.started,Fixation.stopped,text_6.started,text_6.stopped,sound_digit1.started,sound_digit1.stopped,sound_digit2.started,sound_digit2.stopped,sound_digit3.started,sound_digit3.stopped,key_resp.keys,key_resp.rt,key_resp.started,key_resp.stopped,text_nextblock.started,text_nextblock.stopped,response_nextblock.keys,response_nextblock.started,response_nextblock.stopped,response_nextblock.rt,participant,session,date,expName,psychopyVersion,frameRate,
0.0,6.0,2.0,4.0,33.0,,,,0,0,0,0,0,0,0,0,0,0,0,0,,,,,,,,,,,,,105.15490669999781,None,0.0026083300035679713,None,0.471763830002601,None,0.9548568300015177,None,"['num_6', 'return']","[1.1712784999981523, 1.875263999998424]",191.25550689999727,None,,,,,,,,,,,,,,,,,,,,,,,,,,,,,18,001,2021_Oct_28_1500,eeg_contingent_digits,2021.2.3,60.02573903679031,
0.0,6.0,2.0,4.0,33.0,,,,0,0,0,0,0,0,0,0,1,0,1,0,,,,,,,,,,,,,,,,,,,,,"['num_4', 'return']","[0.6793369999977585, 1.5593317999991996]",193.17142949999834,None,,,,,,,,,,,,,,,,,,,,,,,,,,,,,18,001,2021_Oct_28_1500,eeg_contingent_digits,2021.2.3,60.02573903679031,
0.0,6.0,2.0,4.0,33.0,,,,0,0,0,0,0,0,0,0,2,0,2,0,,,,,,,,,,,,,,,,,,,,,['return'],[23.87971800000014],194.77081299999918,None,,,,,,,,,,,,,,,,,,,,,,,,,,,,,18,001,2021_Oct_28_1500,eeg_contingent_digits,2021.2.3,60.02573903679031,
0.0,6.0,2.0,4.0,33.0,,,,0,0,0,0,0,0,0,0,,,,,,,,,,,,,,,,,,,,,,,,,,,,,,,,,,,,,,,,,,,,,,,,,,,,,,,,,18,001,2021_Oct_28_1500,eeg_contingent_digits,2021.2.3,60.02573903679031,
1.0,1.0,9.0,3.0,13.0,,,,0,0,0,0,0,1,1,1,0,0,0,0,,,,,,,,,,,,,,,0.007035519996861694,None,0.46381881999695906,None,0.9470895199956431,None,"['num_1', 'return']","[1.3613344000004872, 2.361337400001503]",220.16115719999652,None,,,,,,,,,,,,,,,,,,,,,,,,,,,,,18,001,2021_Oct_28_1500,eeg_contingent_digits,2021.2.3,60.02573903679031,
1.0,1.0,9.0,3.0,13.0,,,,0,0,0,0,0,1,1,1,1,0,1,0,,,,,,,,,,,,,,,,,,,,,"['num_9', 'return']","[0.49824399999852176, 1.0822464000011678]",222.56023239999922,None,,,,,,,,,,,,,,,,,,,,,,,,,,,,,18,001,2021_Oct_28_1500,eeg_contingent_digits,2021.2.3,60.02573903679031,
1.0,1.0,9.0,3.0,13.0,,,,0,0,0,0,0,1,1,1,2,0,2,0,,,,,,,,,,,,,,,,,,,,,"['num_3', 'return']","[0.43007139999826904, 0.8700204999986454]",223.67645499999708,None,,,,,,,,,,,,,,,,,,,,,,,,,,,,,18,001,2021_Oct_28_1500,eeg_contingent_digits,2021.2.3,60.02573903679031,
1.0,1.0,9.0,3.0,13.0,,,,0,0,0,0,0,1,1,1,,,,,,,,,,,,,,,,,,,,,,,,,,,,,,,,,,,,,,,,,,,,,,,,,,,,,,,,,18,001,2021_Oct_28_1500,eeg_contingent_digits,2021.2.3,60.02573903679031,
2.0,8.0,0.0,1.0,21.0,,,,0,0,0,0,0,2,2,2,0,0,0,0,,,,,,,,,,,,,,,0.0050185199979750905,None,0.4598742199996195,None,0.9430109199965955,None,"['num_8', 'return']","[0.8315379000014218, 1.5435270000016317]",226.05891769999653,None,,,,,,,,,,,,,,,,,,,,,,,,,,,,,18,001,2021_Oct_28_1500,eeg_contingent_digits,2021.2.3,60.02573903679031,
2.0,8.0,0.0,1.0,21.0,,,,0,0,0,0,0,2,2,2,1,0,1,0,,,,,,,,,,,,,,,,,,,,,"['num_0', 'return']","[0.9048595000022033, 1.896872600002098]",227.64161829999648,None,,,,,,,,,,,,,,,,,,,,,,,,,,,,,18,001,2021_Oct_28_1500,eeg_contingent_digits,2021.2.3,60.02573903679031,
2.0,8.0,0.0,1.0,21.0,,,,0,0,0,0,0,2,2,2,2,0,2,0,,,,,,,,,,,,,,,,,,,,,"['num_1', 'return']","[0.9003740999978618, 1.3563285999989603]",229.57412320000003,None,,,,,,,,,,,,,,,,,,,,,,,,,,,,,18,001,2021_Oct_28_1500,eeg_contingent_digits,2021.2.3,60.02573903679031,
2.0,8.0,0.0,1.0,21.0,,,,0,0,0,0,0,2,2,2,,,,,,,,,,,,,,,,,,,,,,,,,,,,,,,,,,,,,,,,,,,,,,,,,,,,,,,,,18,001,2021_Oct_28_1500,eeg_contingent_digits,2021.2.3,60.02573903679031,
3.0,9.0,6.0,1.0,61.0,,,,0,0,0,0,0,3,3,3,0,0,0,0,,,,,,,,,,,,,,,0.005317419996572426,None,0.4772152199984703,None,0.9604050199959602,None,"['num_9', 'return']","[0.706598099997791, 1.4905484999981127]",232.43983639999715,None,,,,,,,,,,,,,,,,,,,,,,,,,,,,,18,001,2021_Oct_28_1500,eeg_contingent_digits,2021.2.3,60.02573903679031,
3.0,9.0,6.0,1.0,61.0,,,,0,0,0,0,0,3,3,3,1,0,1,0,,,,,,,,,,,,,,,,,,,,,"['num_6', 'return']","[0.41387530000065453, 0.9338966000032087]",233.97253659999842,None,,,,,,,,,,,,,,,,,,,,,,,,,,,,,18,001,2021_Oct_28_1500,eeg_contingent_digits,2021.2.3,60.02573903679031,
3.0,9.0,6.0,1.0,61.0,,,,0,0,0,0,0,3,3,3,2,0,2,0,,,,,,,,,,,,,,,,,,,,,"['num_1', 'return']","[0.44750199999907636, 0.9115249999995285]",234.93888929999957,None,,,,,,,,,,,,,,,,,,,,,,,,,,,,,18,001,2021_Oct_28_1500,eeg_contingent_digits,2021.2.3,60.02573903679031,
3.0,9.0,6.0,1.0,61.0,,,,0,0,0,0,0,3,3,3,,,,,,,,,,,,,,,,,,,,,,,,,,,,,,,,,,,,,,,,,,,,,,,,,,,,,,,,,18,001,2021_Oct_28_1500,eeg_contingent_digits,2021.2.3,60.02573903679031,
4.0,8.0,1.0,5.0,7.0,,,,0,0,0,0,0,4,4,4,0,0,0,0,,,,,,,,,,,,,,,0.0054695199978596065,None,0.4775346200003696,None,0.9606512200007273,None,"['num_8', 'return']","[0.8477748000004794, 1.5917831000006117]",237.35461309999664,None,,,,,,,,,,,,,,,,,,,,,,,,,,,,,18,001,2021_Oct_28_1500,eeg_contingent_digits,2021.2.3,60.02573903679031,
4.0,8.0,1.0,5.0,7.0,,,,0,0,0,0,0,4,4,4,1,0,1,0,,,,,,,,,,,,,,,,,,,,,"['num_1', 'return']","[0.7750132000001031, 1.590977699997893]",238.98735699999816,None,,,,,,,,,,,,,,,,,,,,,,,,,,,,,18,001,2021_Oct_28_1500,eeg_contingent_digits,2021.2.3,60.02573903679031,
4.0,8.0,1.0,5.0,7.0,,,,0,0,0,0,0,4,4,4,2,0,2,0,,,,,,,,,,,,,,,,,,,,,"['num_5', 'return']","[0.414300500000536, 0.8543112000006658]",240.6200362999989,None,,,,,,,,,,,,,,,,,,,,,,,,,,,,,18,001,2021_Oct_28_1500,eeg_contingent_digits,2021.2.3,60.02573903679031,
4.0,8.0,1.0,5.0,7.0,,,,0,0,0,0,0,4,4,4,,,,,,,,,,,,,,,,,,,,,,,,,,,,,,,,,,,,,,,,,,,,,,,,,,,,,,,,,18,001,2021_Oct_28_1500,eeg_contingent_digits,2021.2.3,60.02573903679031,
5.0,4.0,1.0,0.0,33.0,,,,0,0,0,0,0,5,5,5,0,0,0,0,,,,,,,,,,,,,,,0.008607820000179345,None,0.48377332000018214,None,0.9670262199979334,None,"['num_4', 'return']","[0.6805168999999296, 1.3365611000008357]",242.98579139999856,None,,,,,,,,,,,,,,,,,,,,,,,,,,,,,18,001,2021_Oct_28_1500,eeg_contingent_digits,2021.2.3,60.02573903679031,
5.0,4.0,1.0,0.0,33.0,,,,0,0,0,0,0,5,5,5,1,0,1,0,,,,,,,,,,,,,,,,,,,,,"['num_1', 'return']","[0.5697090000030585, 1.169743300000846]",244.36859039999763,None,,,,,,,,,,,,,,,,,,,,,,,,,,,,,18,001,2021_Oct_28_1500,eeg_contingent_digits,2021.2.3,60.02573903679031,
5.0,4.0,1.0,0.0,33.0,,,,0,0,0,0,0,5,5,5,2,0,2,0,,,,,,,,,,,,,,,,,,,,,"['num_0', 'return']","[0.5775272999999288, 1.2095073999989836]",245.58478339999783,None,,,,,,,,,,,,,,,,,,,,,,,,,,,,,18,001,2021_Oct_28_1500,eeg_contingent_digits,2021.2.3,60.02573903679031,
5.0,4.0,1.0,0.0,33.0,,,,0,0,0,0,0,5,5,5,,,,,,,,,,,,,,,,,,,,,,,,,,,,,,,,,,,,,,,,,,,,,,,,,,,,,,,,,18,001,2021_Oct_28_1500,eeg_contingent_digits,2021.2.3,60.02573903679031,
6.0,9.0,2.0,6.0,13.0,,,,0,0,0,0,0,6,6,6,0,0,0,0,,,,,,,,,,,,,,,0.012181219994090497,None,0.4910404199945333,None,0.974078119994374,None,"['num_9', 'return']","[0.44584089999989374, 1.16585920000216]",248.30043509999814,None,,,,,,,,,,,,,,,,,,,,,,,,,,,,,18,001,2021_Oct_28_1500,eeg_contingent_digits,2021.2.3,60.02573903679031,
6.0,9.0,2.0,6.0,13.0,,,,0,0,0,0,0,6,6,6,1,0,1,0,,,,,,,,,,,,,,,,,,,,,"['num_2', 'return']","[1.5422689000006358, 2.062360700001591]",249.49999049999678,None,,,,,,,,,,,,,,,,,,,,,,,,,,,,,18,001,2021_Oct_28_1500,eeg_contingent_digits,2021.2.3,60.02573903679031,
6.0,9.0,2.0,6.0,13.0,,,,0,0,0,0,0,6,6,6,2,0,2,0,,,,,,,,,,,,,,,,,,,,,"['num_6', 'return']","[0.44307739999931073, 0.9710359999990033]",251.59919179999997,None,,,,,,,,,,,,,,,,,,,,,,,,,,,,,18,001,2021_Oct_28_1500,eeg_contingent_digits,2021.2.3,60.02573903679031,
6.0,9.0,2.0,6.0,13.0,,,,0,0,0,0,0,6,6,6,,,,,,,,,,,,,,,,,,,,,,,,,,,,,,,,,,,,,,,,,,,,,,,,,,,,,,,,,18,001,2021_Oct_28_1500,eeg_contingent_digits,2021.2.3,60.02573903679031,
7.0,2.0,3.0,0.0,10.0,,,,0,0,0,0,0,7,7,7,0,0,0,0,,,,,,,,,,,,,,,0.0038203199983399827,None,0.47427521999634337,None,0.9573339199960174,None,"['num_2', 'return']","[0.6486187000009522, 1.2566168000012112]",254.08158849999745,None,,,,,,,,,,,,,,,,,,,,,,,,,,,,,18,001,2021_Oct_28_1500,eeg_contingent_digits,2021.2.3,60.02573903679031,
7.0,2.0,3.0,0.0,10.0,,,,0,0,0,0,0,7,7,7,1,0,1,0,,,,,,,,,,,,,,,,,,,,,"['num_3', 'return']","[0.48513010000169743, 1.07715360000293]",255.3810670999992,None,,,,,,,,,,,,,,,,,,,,,,,,,,,,,18,001,2021_Oct_28_1500,eeg_contingent_digits,2021.2.3,60.02573903679031,
7.0,2.0,3.0,0.0,10.0,,,,0,0,0,0,0,7,7,7,2,0,2,0,,,,,,,,,,,,,,,,,,,,,"['num_0', 'return']","[0.48891890000231797, 1.0248584000000847]",256.49732689999655,None,,,,,,,,,,,,,,,,,,,,,,,,,,,,,18,001,2021_Oct_28_1500,eeg_contingent_digits,2021.2.3,60.02573903679031,
7.0,2.0,3.0,0.0,10.0,,,,0,0,0,0,0,7,7,7,,,,,,,,,,,,,,,,,,,,,,,,,,,,,,,,,,,,,,,,,,,,,,,,,,,,,,,,,18,001,2021_Oct_28_1500,eeg_contingent_digits,2021.2.3,60.02573903679031,
8.0,1.0,9.0,2.0,48.0,,,,0,0,0,0,0,8,8,8,0,0,0,0,,,,,,,,,,,,,,,0.00467012000081013,None,0.4760411200004455,None,0.9924418199989304,None,"['num_1', 'return']","[0.699140400000033, 1.3631309999982477]",259.06302519999736,None,,,,,,,,,,,,,,,,,,,,,,,,,,,,,18,001,2021_Oct_28_1500,eeg_contingent_digits,2021.2.3,60.02573903679031,
8.0,1.0,9.0,2.0,48.0,,,,0,0,0,0,0,8,8,8,1,0,1,0,,,,,,,,,,,,,,,,,,,,,"['num_9', 'return']","[0.5877076000033412, 1.1957311000005575]",260.46246379999866,None,,,,,,,,,,,,,,,,,,,,,,,,,,,,,18,001,2021_Oct_28_1500,eeg_contingent_digits,2021.2.3,60.02573903679031,
8.0,1.0,9.0,2.0,48.0,,,,0,0,0,0,0,8,8,8,2,0,2,0,,,,,,,,,,,,,,,,,,,,,"['num_2', 'return']","[0.4028063999976439, 1.0267875999998068]",261.69534889999704,None,,,,,,,,,,,,,,,,,,,,,,,,,,,,,18,001,2021_Oct_28_1500,eeg_contingent_digits,2021.2.3,60.02573903679031,
8.0,1.0,9.0,2.0,48.0,,,,0,0,0,0,0,8,8,8,,,,,,,,,,,,,,,,,,,,,,,,,,,,,,,,,,,,,,,,,,,,,,,,,,,,,,,,,18,001,2021_Oct_28_1500,eeg_contingent_digits,2021.2.3,60.02573903679031,
9.0,8.0,1.0,0.0,21.0,,,,0,0,0,0,0,9,9,9,0,0,0,0,,,,,,,,,,,,,,,0.006383710002410226,None,0.4793456100014737,None,0.9624916100037808,None,"['num_8', 'return']","[0.5350232000018877, 1.25501880000229]",264.2110969999994,None,,,,,,,,,,,,,,,,,,,,,,,,,,,,,18,001,2021_Oct_28_1500,eeg_contingent_digits,2021.2.3,60.02573903679031,
9.0,8.0,1.0,0.0,21.0,,,,0,0,0,0,0,9,9,9,1,0,1,0,,,,,,,,,,,,,,,,,,,,,"['num_1', 'return']","[0.4836104999994859, 1.0836061000009067]",265.5105515999967,None,,,,,,,,,,,,,,,,,,,,,,,,,,,,,18,001,2021_Oct_28_1500,eeg_contingent_digits,2021.2.3,60.02573903679031,
9.0,8.0,1.0,0.0,21.0,,,,0,0,0,0,0,9,9,9,2,0,2,0,,,,,,,,,,,,,,,,,,,,,"['num_0', 'return']","[0.4392991999993683, 0.9512826999998651]",266.62683379999726,None,,,,,,,,,,,,,,,,,,,,,,,,,,,,,18,001,2021_Oct_28_1500,eeg_contingent_digits,2021.2.3,60.02573903679031,
9.0,8.0,1.0,0.0,21.0,,,,0,0,0,0,0,9,9,9,,,,,,,,,,,,,,,,,,,,,,,,,,,,,,,,,,,,,,,,,,,,,,,,,,,,,,,,,18,001,2021_Oct_28_1500,eeg_contingent_digits,2021.2.3,60.02573903679031,
,,,,,,,,0,0,0,0,,,,,,,,,,,,,,,,,,,,,,,,,,,,,,,,,267.60977939999793,None,,,,,,,,,,,,,,,,,,,,,,,,,,,18,001,2021_Oct_28_1500,eeg_contingent_digits,2021.2.3,60.02573903679031,
,,,,,,,,,,,,,,,,,,,,0,0,0,0,,,,,,,,,,,,,,,,,,,,,,,467.9836602999967,None,467.9836602999967,471.9988386999976,,,,,,,,,,,,,,,,,,,,,,,18,001,2021_Oct_28_1500,eeg_contingent_digits,2021.2.3,60.02573903679031,
0.0,9.0,2.0,4.0,61.0,1.0,1.0,0.0,,,,,,,,,,,,,,,,,0,0,0,0,0,0,0,0,,,,,,,,,,,,,,,,,,,477.9798359999986,None,622.5082857999987,None,622.5082857999987,None,0.012400319996231701,None,0.49136411999643315,None,0.9745778199940105,None,"['num_1', 'return']","[6.303417700000864, 6.847398699999758]",637.119409699997,None,,,,,,,18,001,2021_Oct_28_1500,eeg_contingent_digits,2021.2.3,60.02573903679031,
0.0,9.0,2.0,4.0,61.0,1.0,1.0,0.0,,,,,,,,,,,,,,,,,0,0,0,0,1,0,1,0,,,,,,,,,,,,,,,,,,,,,,,,,,,,,,,"['num_2', 'return']","[0.38265420000243466, 0.8947009000003163]",644.0001092999992,None,,,,,,,18,001,2021_Oct_28_1500,eeg_contingent_digits,2021.2.3,60.02573903679031,
0.0,9.0,2.0,4.0,61.0,1.0,1.0,0.0,,,,,,,,,,,,,,,,,0,0,0,0,2,0,2,0,,,,,,,,,,,,,,,,,,,,,,,,,,,,,,,"['num_4', 'return']","[0.44165050000083284, 1.0496682000011788]",644.9331312999966,None,,,,,,,18,001,2021_Oct_28_1500,eeg_contingent_digits,2021.2.3,60.02573903679031,
0.0,9.0,2.0,4.0,61.0,1.0,1.0,0.0,,,,,,,,,,,,,,,,,0,0,0,0,,,,,,,,,,,,,,,,,,,,,,,,,,,,,,,,,,,,,,,None,None,None,None,None,,18,001,2021_Oct_28_1500,eeg_contingent_digits,2021.2.3,60.02573903679031,
1.0,4.0,8.0,5.0,10.0,1.0,0.0,-30.654770447632046,,,,,,,,,,,,,,,,,0,1,1,1,0,0,0,0,,,,,,,,,,,,,,,,,,,,,646.0493639999986,None,646.0493639999986,None,0.013040720001299633,None,0.4926869200025976,None,0.9758279199995741,None,"['num_4', 'return']","[4.21919490000073, 4.987236299999495]",649.531504999999,None,,,,,,,18,001,2021_Oct_28_1500,eeg_contingent_digits,2021.2.3,60.02573903679031,
1.0,4.0,8.0,5.0,10.0,1.0,0.0,-30.654770447632046,,,,,,,,,,,,,,,,,0,1,1,1,1,0,1,0,,,,,,,,,,,,,,,,,,,,,,,,,,,,,,,"['num_8', 'return']","[0.5638618999983009, 1.1078732999994827]",654.5628165999988,None,,,,,,,18,001,2021_Oct_28_1500,eeg_contingent_digits,2021.2.3,60.02573903679031,
1.0,4.0,8.0,5.0,10.0,1.0,0.0,-30.654770447632046,,,,,,,,,,,,,,,,,0,1,1,1,2,0,2,0,,,,,,,,,,,,,,,,,,,,,,,,,,,,,,,"['num_7', 'num_4', 'return']","[2.262328900000284, 4.390341300000728, 4.830362500000774]",655.7123098999982,None,,,,,,,18,001,2021_Oct_28_1500,eeg_contingent_digits,2021.2.3,60.02573903679031,
1.0,4.0,8.0,5.0,10.0,1.0,0.0,-30.654770447632046,,,,,,,,,,,,,,,,,0,1,1,1,,,,,,,,,,,,,,,,,,,,,,,,,,,,,,,,,,,,,,,None,None,None,None,None,,18,001,2021_Oct_28_1500,eeg_contingent_digits,2021.2.3,60.02573903679031,
2.0,8.0,3.0,2.0,13.0,0.0,1.0,0.0,,,,,,,,,,,,,,,,,0,2,2,2,0,0,0,0,,,,,,,,,,,,,,,,,,,,,660.5938711999988,None,660.5938711999988,None,0.010647009999956936,None,0.48788981000325293,None,0.971073710003111,None,"['num_0', 'return']","[6.349781600001734, 8.445759000001999]",665.2087505999989,None,,,,,,,18,001,2021_Oct_28_1500,eeg_contingent_digits,2021.2.3,60.02573903679031,
2.0,8.0,3.0,2.0,13.0,0.0,1.0,0.0,,,,,,,,,,,,,,,,,0,2,2,2,1,0,1,0,,,,,,,,,,,,,,,,,,,,,,,,,,,,,,,"['num_3', 'return']","[0.4616688999994949, 0.8377227999990282]",673.6888383999976,None,,,,,,,18,001,2021_Oct_28_1500,eeg_contingent_digits,2021.2.3,60.02573903679031,
2.0,8.0,3.0,2.0,13.0,0.0,1.0,0.0,,,,,,,,,,,,,,,,,0,2,2,2,2,0,2,0,,,,,,,,,,,,,,,,,,,,,,,,,,,,,,,"['num_2', 'return']","[0.3946875000001455, 0.8506784999990487]",674.5718446999999,None,,,,,,,18,001,2021_Oct_28_1500,eeg_contingent_digits,2021.2.3,60.02573903679031,
2.0,8.0,3.0,2.0,13.0,0.0,1.0,0.0,,,,,,,,,,,,,,,,,0,2,2,2,,,,,,,,,,,,,,,,,,,,,,,,,,,,,,,,,,,,,,,None,None,None,None,None,,18,001,2021_Oct_28_1500,eeg_contingent_digits,2021.2.3,60.02573903679031,
3.0,1.0,2.0,5.0,48.0,1.0,0.0,-28.87890975619583,,,,,,,,,,,,,,,,,0,3,3,3,0,0,0,0,,,,,,,,,,,,,,,,,,,,,675.4881772999979,None,675.4881772999979,None,0.009674220000306377,None,0.5026299199998903,None,0.9690878199980943,None,"['num_1', 'return']","[0.9082404000000679, 1.5082325000003038]",678.9702350999978,None,,,,,,,18,001,2021_Oct_28_1500,eeg_contingent_digits,2021.2.3,60.02573903679031,
3.0,1.0,2.0,5.0,48.0,1.0,0.0,-28.87890975619583,,,,,,,,,,,,,,,,,0,3,3,3,1,0,1,0,,,,,,,,,,,,,,,,,,,,,,,,,,,,,,,"['num_2', 'return']","[0.41486690000238013, 0.8628677000015159]",680.5195918999998,None,,,,,,,18,001,2021_Oct_28_1500,eeg_contingent_digits,2021.2.3,60.02573903679031,
3.0,1.0,2.0,5.0,48.0,1.0,0.0,-28.87890975619583,,,,,,,,,,,,,,,,,0,3,3,3,2,0,2,0,,,,,,,,,,,,,,,,,,,,,,,,,,,,,,,"['num_3', 'return']","[0.5871907000000647, 1.0192007000005106]",681.4192412999982,None,,,,,,,18,001,2021_Oct_28_1500,eeg_contingent_digits,2021.2.3,60.02573903679031,
3.0,1.0,2.0,5.0,48.0,1.0,0.0,-28.87890975619583,,,,,,,,,,,,,,,,,0,3,3,3,,,,,,,,,,,,,,,,,,,,,,,,,,,,,,,,,,,,,,,None,None,None,None,None,,18,001,2021_Oct_28_1500,eeg_contingent_digits,2021.2.3,60.02573903679031,
4.0,1.0,8.0,5.0,7.0,0.0,1.0,0.0,,,,,,,,,,,,,,,,,0,4,4,4,0,0,0,0,,,,,,,,,,,,,,,,,,,,,682.5021940999977,None,682.5021940999977,None,0.010244609999062959,None,0.4871527100003732,None,0.9702089099992008,None,"['num_1', 'return']","[1.7584179999976186, 2.3103881999995792]",688.2000234999978,None,,,,,,,18,001,2021_Oct_28_1500,eeg_contingent_digits,2021.2.3,60.02573903679031,
4.0,1.0,8.0,5.0,7.0,0.0,1.0,0.0,,,,,,,,,,,,,,,,,0,4,4,4,1,0,1,0,,,,,,,,,,,,,,,,,,,,,,,,,,,,,,,"['num_8', 'return']","[0.4573975999992399, 1.2254027000017231]",690.5489821999981,None,,,,,,,18,001,2021_Oct_28_1500,eeg_contingent_digits,2021.2.3,60.02573903679031,
4.0,1.0,8.0,5.0,7.0,0.0,1.0,0.0,,,,,,,,,,,,,,,,,0,4,4,4,2,0,2,0,,,,,,,,,,,,,,,,,,,,,,,,,,,,,,,"['num_0', 'return']","[0.3911791999998968, 0.9270868999992672]",691.8152930999968,None,,,,,,,18,001,2021_Oct_28_1500,eeg_contingent_digits,2021.2.3,60.02573903679031,
4.0,1.0,8.0,5.0,7.0,0.0,1.0,0.0,,,,,,,,,,,,,,,,,0,4,4,4,,,,,,,,,,,,,,,,,,,,,,,,,,,,,,,,,,,,,,,None,None,None,None,None,,18,001,2021_Oct_28_1500,eeg_contingent_digits,2021.2.3,60.02573903679031,
5.0,9.0,1.0,4.0,21.0,1.0,0.0,-21.629882084116872,,,,,,,,,,,,,,,,,0,5,5,5,0,0,0,0,,,,,,,,,,,,,,,,,,,,,692.814954999998,None,692.814954999998,None,0.011243920002016239,None,0.4890581200015731,None,0.9888678200004506,None,"['num_3', 'return']","[1.333375199999864, 2.0293874999988475]",696.2969311999987,None,,,,,,,18,001,2021_Oct_28_1500,eeg_contingent_digits,2021.2.3,60.02573903679031,
5.0,9.0,1.0,4.0,21.0,1.0,0.0,-21.629882084116872,,,,,,,,,,,,,,,,,0,5,5,5,1,0,1,0,,,,,,,,,,,,,,,,,,,,,,,,,,,,,,,"['num_8', 'return']","[2.659504100000049, 3.2834939999993367]",698.3628000999997,None,,,,,,,18,001,2021_Oct_28_1500,eeg_contingent_digits,2021.2.3,60.02573903679031,
5.0,9.0,1.0,4.0,21.0,1.0,0.0,-21.629882084116872,,,,,,,,,,,,,,,,,0,5,5,5,2,0,2,0,,,,,,,,,,,,,,,,,,,,,,,,,,,,,,,"['num_4', 'return']","[0.4153909000015119, 1.0074448000013945]",701.6948693999984,None,,,,,,,18,001,2021_Oct_28_1500,eeg_contingent_digits,2021.2.3,60.02573903679031,
5.0,9.0,1.0,4.0,21.0,1.0,0.0,-21.629882084116872,,,,,,,,,,,,,,,,,0,5,5,5,,,,,,,,,,,,,,,,,,,,,,,,,,,,,,,,,,,,,,,None,None,None,None,None,,18,001,2021_Oct_28_1500,eeg_contingent_digits,2021.2.3,60.02573903679031,
6.0,9.0,0.0,3.0,13.0,1.0,1.0,0.0,,,,,,,,,,,,,,,,,0,6,6,6,0,0,0,0,,,,,,,,,,,,,,,,,,,,,702.7778506999966,None,702.7778506999966,None,0.00826041999971494,None,0.4831125199998496,None,0.9662555199975031,None,"['num_8', 'return']","[3.2140861000007135, 3.766088399999717]",708.9921023999996,None,,,,,,,18,001,2021_Oct_28_1500,eeg_contingent_digits,2021.2.3,60.02573903679031,
6.0,9.0,0.0,3.0,13.0,1.0,1.0,0.0,,,,,,,,,,,,,,,,,0,6,6,6,1,0,1,0,,,,,,,,,,,,,,,,,,,,,,,,,,,,,,,"['num_0', 'return']","[0.43947879999905126, 0.9834644000002299]",712.7907052999981,None,,,,,,,18,001,2021_Oct_28_1500,eeg_contingent_digits,2021.2.3,60.02573903679031,
6.0,9.0,0.0,3.0,13.0,1.0,1.0,0.0,,,,,,,,,,,,,,,,,0,6,6,6,2,0,2,0,,,,,,,,,,,,,,,,,,,,,,,,,,,,,,,"['num_3', 'return']","[0.4632184999973106, 1.2152518000002601]",713.8069608999976,None,,,,,,,18,001,2021_Oct_28_1500,eeg_contingent_digits,2021.2.3,60.02573903679031,
6.0,9.0,0.0,3.0,13.0,1.0,1.0,0.0,,,,,,,,,,,,,,,,,0,6,6,6,,,,,,,,,,,,,,,,,,,,,,,,,,,,,,,,,,,,,,,None,None,None,None,None,,18,001,2021_Oct_28_1500,eeg_contingent_digits,2021.2.3,60.02573903679031,
7.0,0.0,4.0,5.0,49.0,0.0,0.0,9.582321691070376,,,,,,,,,,,,,,,,,0,7,7,7,0,0,0,0,,,,,,,,,,,,,,,,,,,,,715.0898744999977,None,715.0898744999977,None,0.010220510001090588,None,0.4870527100028994,None,0.9535015100045712,None,"['num_5', 'return']","[2.1955748000000312, 2.93159949999972]",718.5385092999968,None,,,,,,,18,001,2021_Oct_28_1500,eeg_contingent_digits,2021.2.3,60.02573903679031,
7.0,0.0,4.0,5.0,49.0,0.0,0.0,9.582321691070376,,,,,,,,,,,,,,,,,0,7,7,7,1,0,1,0,,,,,,,,,,,,,,,,,,,,,,,,,,,,,,,"['num_4', 'return']","[0.6860704999999143, 1.310103199997684]",721.5040351999996,None,,,,,,,18,001,2021_Oct_28_1500,eeg_contingent_digits,2021.2.3,60.02573903679031,
7.0,0.0,4.0,5.0,49.0,0.0,0.0,9.582321691070376,,,,,,,,,,,,,,,,,0,7,7,7,2,0,2,0,,,,,,,,,,,,,,,,,,,,,,,,,,,,,,,"['num_0', 'return']","[0.5125848999996379, 1.2245916000028956]",722.8535041999967,None,,,,,,,18,001,2021_Oct_28_1500,eeg_contingent_digits,2021.2.3,60.02573903679031,
7.0,0.0,4.0,5.0,49.0,0.0,0.0,9.582321691070376,,,,,,,,,,,,,,,,,0,7,7,7,,,,,,,,,,,,,,,,,,,,,,,,,,,,,,,,,,,,,,,None,None,None,None,None,,18,001,2021_Oct_28_1500,eeg_contingent_digits,2021.2.3,60.02573903679031,
8.0,9.0,5.0,1.0,1.0,0.0,1.0,0.0,,,,,,,,,,,,,,,,,0,8,8,8,0,0,0,0,,,,,,,,,,,,,,,,,,,,,724.1530333999981,None,724.1530333999981,None,0.009799510000448208,None,0.48617171000296366,None,0.9693332100032421,None,"['num_0', 'return']","[0.6963896000015666, 1.2803751999999804]",731.3336652999969,None,,,,,,,18,001,2021_Oct_28_1500,eeg_contingent_digits,2021.2.3,60.02573903679031,
8.0,9.0,5.0,1.0,1.0,0.0,1.0,0.0,,,,,,,,,,,,,,,,,0,8,8,8,1,0,1,0,,,,,,,,,,,,,,,,,,,,,,,,,,,,,,,"['num_5', 'return']","[0.4521649999987858, 1.1641764999985753]",732.6498182999967,None,,,,,,,18,001,2021_Oct_28_1500,eeg_contingent_digits,2021.2.3,60.02573903679031,
8.0,9.0,5.0,1.0,1.0,0.0,1.0,0.0,,,,,,,,,,,,,,,,,0,8,8,8,2,0,2,0,,,,,,,,,,,,,,,,,,,,,,,,,,,,,,,"['num_1', 'return']","[0.44467639999857056, 1.0446886999998242]",733.8493137999976,None,,,,,,,18,001,2021_Oct_28_1500,eeg_contingent_digits,2021.2.3,60.02573903679031,
8.0,9.0,5.0,1.0,1.0,0.0,1.0,0.0,,,,,,,,,,,,,,,,,0,8,8,8,,,,,,,,,,,,,,,,,,,,,,,,,,,,,,,,,,,,,,,None,None,None,None,None,,18,001,2021_Oct_28_1500,eeg_contingent_digits,2021.2.3,60.02573903679031,
9.0,0.0,5.0,3.0,10.0,0.0,0.0,31.890827215832438,,,,,,,,,,,,,,,,,0,9,9,9,0,0,0,0,,,,,,,,,,,,,,,,,,,,,734.948963699997,None,734.948963699997,None,0.010049309999885736,None,0.48672100999829127,None,0.9698113099984766,None,"['num_0', 'return']","[1.4056663999981538, 2.069661999998061]",738.4642669999994,None,,,,,,,18,001,2021_Oct_28_1500,eeg_contingent_digits,2021.2.3,60.02573903679031,
9.0,0.0,5.0,3.0,10.0,0.0,0.0,31.890827215832438,,,,,,,,,,,,,,,,,0,9,9,9,1,0,1,0,,,,,,,,,,,,,,,,,,,,,,,,,,,,,,,"['num_5', 'return']","[0.6978276000008918, 1.617791100001341]",740.5801154000001,None,,,,,,,18,001,2021_Oct_28_1500,eeg_contingent_digits,2021.2.3,60.02573903679031,
9.0,0.0,5.0,3.0,10.0,0.0,0.0,31.890827215832438,,,,,,,,,,,,,,,,,0,9,9,9,2,0,2,0,,,,,,,,,,,,,,,,,,,,,,,,,,,,,,,"['num_8', 'return']","[1.04787529999885, 2.623867300000711]",742.2460436999972,None,,,,,,,18,001,2021_Oct_28_1500,eeg_contingent_digits,2021.2.3,60.02573903679031,
9.0,0.0,5.0,3.0,10.0,0.0,0.0,31.890827215832438,,,,,,,,,,,,,,,,,0,9,9,9,,,,,,,,,,,,,,,,,,,,,,,,,,,,,,,,,,,,,,,None,None,None,None,None,,18,001,2021_Oct_28_1500,eeg_contingent_digits,2021.2.3,60.02573903679031,
10.0,3.0,9.0,4.0,10.0,0.0,1.0,0.0,,,,,,,,,,,,,,,,,0,10,10,10,0,0,0,0,,,,,,,,,,,,,,,,,,,,,744.9284588999981,None,744.9284588999981,None,0.009625310001865728,None,0.4858168100035982,None,0.9689620100034517,None,"['num_8', 'return']","[1.8602121000003535, 2.8601665000023786]",757.8735751999993,None,,,,,,,18,001,2021_Oct_28_1500,eeg_contingent_digits,2021.2.3,60.02573903679031,
10.0,3.0,9.0,4.0,10.0,0.0,1.0,0.0,,,,,,,,,,,,,,,,,0,10,10,10,1,0,1,0,,,,,,,,,,,,,,,,,,,,,,,,,,,,,,,"['num_0', 'return']","[0.48929949999728706, 0.9932967999993707]",760.7724481999976,None,,,,,,,18,001,2021_Oct_28_1500,eeg_contingent_digits,2021.2.3,60.02573903679031,
10.0,3.0,9.0,4.0,10.0,0.0,1.0,0.0,,,,,,,,,,,,,,,,,0,10,10,10,2,0,2,0,,,,,,,,,,,,,,,,,,,,,,,,,,,,,,,"['num_4', 'return']","[0.5043847000015376, 1.160438200000499]",761.8054004999976,None,,,,,,,18,001,2021_Oct_28_1500,eeg_contingent_digits,2021.2.3,60.02573903679031,
10.0,3.0,9.0,4.0,10.0,0.0,1.0,0.0,,,,,,,,,,,,,,,,,0,10,10,10,,,,,,,,,,,,,,,,,,,,,,,,,,,,,,,,,,,,,,,None,None,None,None,None,,18,001,2021_Oct_28_1500,eeg_contingent_digits,2021.2.3,60.02573903679031,
11.0,6.0,2.0,1.0,1.0,0.0,0.0,8.54754909629564,,,,,,,,,,,,,,,,,0,11,11,11,0,0,0,0,,,,,,,,,,,,,,,,,,,,,763.038395399999,None,763.038395399999,None,0.009911910001392243,None,0.4863447100033227,None,0.9528932100038219,None,"['num_6', 'return']","[1.094744100002572, 1.6387372999997751]",766.486955999997,None,,,,,,,18,001,2021_Oct_28_1500,eeg_contingent_digits,2021.2.3,60.02573903679031,
11.0,6.0,2.0,1.0,1.0,0.0,0.0,8.54754909629564,,,,,,,,,,,,,,,,,0,11,11,11,1,0,1,0,,,,,,,,,,,,,,,,,,,,,,,,,,,,,,,"['num_2', 'return']","[0.4040136000003258, 0.932081200000539]",768.1696385999967,None,,,,,,,18,001,2021_Oct_28_1500,eeg_contingent_digits,2021.2.3,60.02573903679031,
11.0,6.0,2.0,1.0,1.0,0.0,0.0,8.54754909629564,,,,,,,,,,,,,,,,,0,11,11,11,2,0,2,0,,,,,,,,,,,,,,,,,,,,,,,,,,,,,,,"['num_1', 'return']","[0.4617457000022114, 1.2057493000029353]",769.1359382999981,None,,,,,,,18,001,2021_Oct_28_1500,eeg_contingent_digits,2021.2.3,60.02573903679031,
11.0,6.0,2.0,1.0,1.0,0.0,0.0,8.54754909629564,,,,,,,,,,,,,,,,,0,11,11,11,,,,,,,,,,,,,,,,,,,,,,,,,,,,,,,,,,,,,,,None,None,None,None,None,,18,001,2021_Oct_28_1500,eeg_contingent_digits,2021.2.3,60.02573903679031,
12.0,2.0,9.0,3.0,14.0,1.0,1.0,0.0,,,,,,,,,,,,,,,,,0,12,12,12,0,0,0,0,,,,,,,,,,,,,,,,,,,,,770.4188000999966,None,770.4188000999966,None,0.012721420003799722,None,0.4920670200008317,None,0.9586440200037032,None,"['num_8', 'return']","[2.737784900000406, 3.3937719000023208]",789.411666,None,,,,,,,18,001,2021_Oct_28_1500,eeg_contingent_digits,2021.2.3,60.02573903679031,
12.0,2.0,9.0,3.0,14.0,1.0,1.0,0.0,,,,,,,,,,,,,,,,,0,12,12,12,1,0,1,0,,,,,,,,,,,,,,,,,,,,,,,,,,,,,,,"['num_0', 'return']","[0.4178530999997747, 0.9378887000020768]",792.8435922999997,None,,,,,,,18,001,2021_Oct_28_1500,eeg_contingent_digits,2021.2.3,60.02573903679031,
12.0,2.0,9.0,3.0,14.0,1.0,1.0,0.0,,,,,,,,,,,,,,,,,0,12,12,12,2,0,2,0,,,,,,,,,,,,,,,,,,,,,,,,,,,,,,,"['num_3', 'return']","[0.386789600001066, 0.8988003000013123]",793.8266479999984,None,,,,,,,18,001,2021_Oct_28_1500,eeg_contingent_digits,2021.2.3,60.02573903679031,
12.0,2.0,9.0,3.0,14.0,1.0,1.0,0.0,,,,,,,,,,,,,,,,,0,12,12,12,,,,,,,,,,,,,,,,,,,,,,,,,,,,,,,,,,,,,,,None,None,None,None,None,,18,001,2021_Oct_28_1500,eeg_contingent_digits,2021.2.3,60.02573903679031,
13.0,5.0,8.0,2.0,1.0,1.0,0.0,29.81519998292619,,,,,,,,,,,,,,,,,0,13,13,13,0,0,0,0,,,,,,,,,,,,,,,,,,,,,794.7928735999994,None,794.7928735999994,None,0.01420272000177647,None,0.49501772000076016,None,0.9781403199995111,None,"['num_8', 'return']","[3.7551374999966356, 5.331209199997829]",798.2582417999984,None,,,,,,,18,001,2021_Oct_28_1500,eeg_contingent_digits,2021.2.3,60.02573903679031,
13.0,5.0,8.0,2.0,1.0,1.0,0.0,29.81519998292619,,,,,,,,,,,,,,,,,0,13,13,13,1,0,1,0,,,,,,,,,,,,,,,,,,,,,,,,,,,,,,,"['num_3', 'return']","[13.414414099999703, 13.782461599999806]",803.6228448999973,None,,,,,,,18,001,2021_Oct_28_1500,eeg_contingent_digits,2021.2.3,60.02573903679031,
13.0,5.0,8.0,2.0,1.0,1.0,0.0,29.81519998292619,,,,,,,,,,,,,,,,,0,13,13,13,2,0,2,0,,,,,,,,,,,,,,,,,,,,,,,,,,,,,,,"['num_2', 'return']","[0.2423716000012064, 0.47437440000067]",817.4508648999981,None,,,,,,,18,001,2021_Oct_28_1500,eeg_contingent_digits,2021.2.3,60.02573903679031,
13.0,5.0,8.0,2.0,1.0,1.0,0.0,29.81519998292619,,,,,,,,,,,,,,,,,0,13,13,13,,,,,,,,,,,,,,,,,,,,,,,,,,,,,,,,,,,,,,,None,None,None,None,None,,18,001,2021_Oct_28_1500,eeg_contingent_digits,2021.2.3,60.02573903679031,
14.0,3.0,8.0,0.0,48.0,0.0,1.0,0.0,,,,,,,,,,,,,,,,,0,14,14,14,0,0,0,0,,,,,,,,,,,,,,,,,,,,,818.0007839999998,None,818.0007839999998,None,0.010506810001970734,None,0.4876008100036415,None,0.9707907100018929,None,"['num_3', 'return']","[0.7193010999981198, 1.199338099999295]",823.7818763999967,None,,,,,,,18,001,2021_Oct_28_1500,eeg_contingent_digits,2021.2.3,60.02573903679031,
14.0,3.0,8.0,0.0,48.0,0.0,1.0,0.0,,,,,,,,,,,,,,,,,0,14,14,14,1,0,1,0,,,,,,,,,,,,,,,,,,,,,,,,,,,,,,,"['num_8', 'return']","[0.43042330000025686, 0.9584403000008024]",825.0147382999967,None,,,,,,,18,001,2021_Oct_28_1500,eeg_contingent_digits,2021.2.3,60.02573903679031,
14.0,3.0,8.0,0.0,48.0,0.0,1.0,0.0,,,,,,,,,,,,,,,,,0,14,14,14,2,0,2,0,,,,,,,,,,,,,,,,,,,,,,,,,,,,,,,"['num_0', 'return']","[0.3668930999992881, 0.7589240000015707]",826.0142784999989,None,,,,,,,18,001,2021_Oct_28_1500,eeg_contingent_digits,2021.2.3,60.02573903679031,
14.0,3.0,8.0,0.0,48.0,0.0,1.0,0.0,,,,,,,,,,,,,,,,,0,14,14,14,,,,,,,,,,,,,,,,,,,,,,,,,,,,,,,,,,,,,,,None,None,None,None,None,,18,001,2021_Oct_28_1500,eeg_contingent_digits,2021.2.3,60.02573903679031,
15.0,6.0,2.0,4.0,61.0,0.0,0.0,-22.485144169194086,,,,,,,,,,,,,,,,,0,15,15,15,0,0,0,0,,,,,,,,,,,,,,,,,,,,,826.8474396999991,None,826.8474396999991,None,0.010037309999461286,None,0.47006610999960685,None,0.9531847100006416,None,"['num_6', 'return']","[0.949011699998664, 1.4610186999998405]",830.296123199998,None,,,,,,,18,001,2021_Oct_28_1500,eeg_contingent_digits,2021.2.3,60.02573903679031,
15.0,6.0,2.0,4.0,61.0,0.0,0.0,-22.485144169194086,,,,,,,,,,,,,,,,,0,15,15,15,1,0,1,0,,,,,,,,,,,,,,,,,,,,,,,,,,,,,,,"['num_2', 'return']","[0.4016215999981796, 0.8816317999990133]",831.795487899999,None,,,,,,,18,001,2021_Oct_28_1500,eeg_contingent_digits,2021.2.3,60.02573903679031,
15.0,6.0,2.0,4.0,61.0,0.0,0.0,-22.485144169194086,,,,,,,,,,,,,,,,,0,15,15,15,2,0,2,0,,,,,,,,,,,,,,,,,,,,,,,,,,,,,,,"['num_4', 'return']","[0.4212445999983174, 0.9012504999991506]",832.7118646999988,None,,,,,,,18,001,2021_Oct_28_1500,eeg_contingent_digits,2021.2.3,60.02573903679031,
15.0,6.0,2.0,4.0,61.0,0.0,0.0,-22.485144169194086,,,,,,,,,,,,,,,,,0,15,15,15,,,,,,,,,,,,,,,,,,,,,,,,,,,,,,,,,,,,,,,None,None,None,None,None,,18,001,2021_Oct_28_1500,eeg_contingent_digits,2021.2.3,60.02573903679031,
16.0,1.0,3.0,5.0,49.0,0.0,1.0,0.0,,,,,,,,,,,,,,,,,0,16,16,16,0,0,0,0,,,,,,,,,,,,,,,,,,,,,833.6781037999972,None,833.6781037999972,None,0.010517910002818098,None,0.487598710002203,None,0.9541754100027902,None,"['num_1', 'return']","[0.7509501999993518, 1.3668990999976813]",838.7261975999972,None,,,,,,,18,001,2021_Oct_28_1500,eeg_contingent_digits,2021.2.3,60.02573903679031,
16.0,1.0,3.0,5.0,49.0,0.0,1.0,0.0,,,,,,,,,,,,,,,,,0,16,16,16,1,0,1,0,,,,,,,,,,,,,,,,,,,,,,,,,,,,,,,"['num_3', 'return']","[0.367319499997393, 0.8233846000002814]",840.1257351999993,None,,,,,,,18,001,2021_Oct_28_1500,eeg_contingent_digits,2021.2.3,60.02573903679031,
16.0,1.0,3.0,5.0,49.0,0.0,1.0,0.0,,,,,,,,,,,,,,,,,0,16,16,16,2,0,2,0,,,,,,,,,,,,,,,,,,,,,,,,,,,,,,,"['num_4', 'return']","[0.41315039999972214, 0.9171709999973245]",840.9919352999968,None,,,,,,,18,001,2021_Oct_28_1500,eeg_contingent_digits,2021.2.3,60.02573903679031,
16.0,1.0,3.0,5.0,49.0,0.0,1.0,0.0,,,,,,,,,,,,,,,,,0,16,16,16,,,,,,,,,,,,,,,,,,,,,,,,,,,,,,,,,,,,,,,None,None,None,None,None,,18,001,2021_Oct_28_1500,eeg_contingent_digits,2021.2.3,60.02573903679031,
17.0,1.0,2.0,0.0,49.0,0.0,0.0,-25.389459138358973,,,,,,,,,,,,,,,,,0,17,17,17,0,0,0,0,,,,,,,,,,,,,,,,,,,,,841.9583267999988,None,841.9583267999988,None,0.010254910001094686,None,0.4870495100003609,None,0.9701469100036775,None,"['num_1', 'return']","[0.566105099998822, 1.0700957000008202]",845.4069062999988,None,,,,,,,18,001,2021_Oct_28_1500,eeg_contingent_digits,2021.2.3,60.02573903679031,
17.0,1.0,2.0,0.0,49.0,0.0,0.0,-25.389459138358973,,,,,,,,,,,,,,,,,0,17,17,17,1,0,1,0,,,,,,,,,,,,,,,,,,,,,,,,,,,,,,,"['num_2', 'return']","[0.3217684000010195, 0.7457534999994095]",846.5232354,None,,,,,,,18,001,2021_Oct_28_1500,eeg_contingent_digits,2021.2.3,60.02573903679031,
17.0,1.0,2.0,0.0,49.0,0.0,0.0,-25.389459138358973,,,,,,,,,,,,,,,,,0,17,17,17,2,0,2,0,,,,,,,,,,,,,,,,,,,,,,,,,,,,,,,"['num_0', 'return']","[0.4027048999996623, 0.8187056999995548]",847.3062879999998,None,,,,,,,18,001,2021_Oct_28_1500,eeg_contingent_digits,2021.2.3,60.02573903679031,
17.0,1.0,2.0,0.0,49.0,0.0,0.0,-25.389459138358973,,,,,,,,,,,,,,,,,0,17,17,17,,,,,,,,,,,,,,,,,,,,,,,,,,,,,,,,,,,,,,,None,None,None,None,None,,18,001,2021_Oct_28_1500,eeg_contingent_digits,2021.2.3,60.02573903679031,
18.0,3.0,5.0,6.0,1.0,0.0,1.0,0.0,,,,,,,,,,,,,,,,,0,18,18,18,0,0,0,0,,,,,,,,,,,,,,,,,,,,,848.1892726999977,None,848.1892726999977,None,0.010462410005857237,None,0.48754391000329633,None,0.9706392100051744,None,"['num_3', 'return']","[0.8928491000006034, 1.388859600003343]",856.7360384999993,None,,,,,,,18,001,2021_Oct_28_1500,eeg_contingent_digits,2021.2.3,60.02573903679031,
18.0,3.0,5.0,6.0,1.0,0.0,1.0,0.0,,,,,,,,,,,,,,,,,0,18,18,18,1,0,1,0,,,,,,,,,,,,,,,,,,,,,,,,,,,,,,,"['num_5', 'return']","[0.4680860999978904, 1.0120581999981368]",858.1688345999974,None,,,,,,,18,001,2021_Oct_28_1500,eeg_contingent_digits,2021.2.3,60.02573903679031,
18.0,3.0,5.0,6.0,1.0,0.0,1.0,0.0,,,,,,,,,,,,,,,,,0,18,18,18,2,0,2,0,,,,,,,,,,,,,,,,,,,,,,,,,,,,,,,"['num_6', 'return']","[0.37047780000284547, 0.850475400002324]",859.2184230999992,None,,,,,,,18,001,2021_Oct_28_1500,eeg_contingent_digits,2021.2.3,60.02573903679031,
18.0,3.0,5.0,6.0,1.0,0.0,1.0,0.0,,,,,,,,,,,,,,,,,0,18,18,18,,,,,,,,,,,,,,,,,,,,,,,,,,,,,,,,,,,,,,,None,None,None,None,None,,18,001,2021_Oct_28_1500,eeg_contingent_digits,2021.2.3,60.02573903679031,
19.0,0.0,9.0,4.0,1.0,0.0,0.0,-2.620491704694686,,,,,,,,,,,,,,,,,0,19,19,19,0,0,0,0,,,,,,,,,,,,,,,,,,,,,860.1180797999987,None,860.1180797999987,None,0.010143310002604267,None,0.4868251100015186,None,0.9700761100029922,None,"['num_0', 'return']","[0.8381351999996696, 1.2620911999983946]",863.5667448999993,None,,,,,,,18,001,2021_Oct_28_1500,eeg_contingent_digits,2021.2.3,60.02573903679031,
19.0,0.0,9.0,4.0,1.0,0.0,0.0,-2.620491704694686,,,,,,,,,,,,,,,,,0,19,19,19,1,0,1,0,,,,,,,,,,,,,,,,,,,,,,,,,,,,,,,"['num_9', 'return']","[0.46668590000263066, 0.9466506999997364]",864.8662104999967,None,,,,,,,18,001,2021_Oct_28_1500,eeg_contingent_digits,2021.2.3,60.02573903679031,
19.0,0.0,9.0,4.0,1.0,0.0,0.0,-2.620491704694686,,,,,,,,,,,,,,,,,0,19,19,19,2,0,2,0,,,,,,,,,,,,,,,,,,,,,,,,,,,,,,,"['num_4', 'return']","[0.41962229999990086, 0.8995780000004743]",865.8492501000001,None,,,,,,,18,001,2021_Oct_28_1500,eeg_contingent_digits,2021.2.3,60.02573903679031,
19.0,0.0,9.0,4.0,1.0,0.0,0.0,-2.620491704694686,,,,,,,,,,,,,,,,,0,19,19,19,,,,,,,,,,,,,,,,,,,,,,,,,,,,,,,,,,,,,,,None,None,None,None,None,,18,001,2021_Oct_28_1500,eeg_contingent_digits,2021.2.3,60.02573903679031,
20.0,6.0,0.0,3.0,7.0,1.0,1.0,0.0,,,,,,,,,,,,,,,,,0,20,20,20,0,0,0,0,,,,,,,,,,,,,,,,,,,,,866.8155810999997,None,866.8155810999997,None,0.008359619998373091,None,0.4834232200009865,None,0.9664217200006533,None,"['num_6', 'return']","[0.9412329000006139, 1.5492586000000301]",872.0635379999985,None,,,,,,,18,001,2021_Oct_28_1500,eeg_contingent_digits,2021.2.3,60.02573903679031,
20.0,6.0,0.0,3.0,7.0,1.0,1.0,0.0,,,,,,,,,,,,,,,,,0,20,20,20,1,0,1,0,,,,,,,,,,,,,,,,,,,,,,,,,,,,,,,"['num_5', 'return']","[0.4224951999967743, 0.9984883999968588]",873.6462855999998,None,,,,,,,18,001,2021_Oct_28_1500,eeg_contingent_digits,2021.2.3,60.02573903679031,
20.0,6.0,0.0,3.0,7.0,1.0,1.0,0.0,,,,,,,,,,,,,,,,,0,20,20,20,2,0,2,0,,,,,,,,,,,,,,,,,,,,,,,,,,,,,,,"['num_3', 'return']","[0.4055493000014394, 0.8295423999988998]",874.6792031999976,None,,,,,,,18,001,2021_Oct_28_1500,eeg_contingent_digits,2021.2.3,60.02573903679031,
20.0,6.0,0.0,3.0,7.0,1.0,1.0,0.0,,,,,,,,,,,,,,,,,0,20,20,20,,,,,,,,,,,,,,,,,,,,,,,,,,,,,,,,,,,,,,,None,None,None,None,None,,18,001,2021_Oct_28_1500,eeg_contingent_digits,2021.2.3,60.02573903679031,
21.0,8.0,6.0,2.0,13.0,1.0,0.0,19.823475155537785,,,,,,,,,,,,,,,,,0,21,21,21,0,0,0,0,,,,,,,,,,,,,,,,,,,,,875.5788762999982,None,875.5788762999982,None,0.012261120002222015,None,0.49106942000071285,None,0.9575497200021346,None,"['num_8', 'return']","[0.9524774999990768, 1.6084699999992154]",879.0442378999978,None,,,,,,,18,001,2021_Oct_28_1500,eeg_contingent_digits,2021.2.3,60.02573903679031,
21.0,8.0,6.0,2.0,13.0,1.0,0.0,19.823475155537785,,,,,,,,,,,,,,,,,0,21,21,21,1,0,1,0,,,,,,,,,,,,,,,,,,,,,,,,,,,,,,,"['num_6', 'return']","[0.37504030000127386, 0.9590796000011323]",880.6936742999969,None,,,,,,,18,001,2021_Oct_28_1500,eeg_contingent_digits,2021.2.3,60.02573903679031,
21.0,8.0,6.0,2.0,13.0,1.0,0.0,19.823475155537785,,,,,,,,,,,,,,,,,0,21,21,21,2,0,2,0,,,,,,,,,,,,,,,,,,,,,,,,,,,,,,,"['num_2', 'return']","[0.33543339999960153, 0.727434300002642]",881.6932516999987,None,,,,,,,18,001,2021_Oct_28_1500,eeg_contingent_digits,2021.2.3,60.02573903679031,
21.0,8.0,6.0,2.0,13.0,1.0,0.0,19.823475155537785,,,,,,,,,,,,,,,,,0,21,21,21,,,,,,,,,,,,,,,,,,,,,,,,,,,,,,,,,,,,,,,None,None,None,None,None,,18,001,2021_Oct_28_1500,eeg_contingent_digits,2021.2.3,60.02573903679031,
22.0,5.0,8.0,9.0,10.0,1.0,1.0,0.0,,,,,,,,,,,,,,,,,0,22,22,22,0,0,0,0,,,,,,,,,,,,,,,,,,,,,882.4762768999972,None,882.4762768999972,None,0.007806620000337716,None,0.4821894200031238,None,0.9819780200014065,None,"['num_6', 'return']","[1.252455399997416, 1.7245046999996703]",891.6561204999998,None,,,,,,,18,001,2021_Oct_28_1500,eeg_contingent_digits,2021.2.3,60.02573903679031,
22.0,5.0,8.0,9.0,10.0,1.0,1.0,0.0,,,,,,,,,,,,,,,,,0,22,22,22,1,0,1,0,,,,,,,,,,,,,,,,,,,,,,,,,,,,,,,"['num_8', 'return']","[0.39047199999913573, 0.8784580999999889]",893.4221123999996,None,,,,,,,18,001,2021_Oct_28_1500,eeg_contingent_digits,2021.2.3,60.02573903679031,
22.0,5.0,8.0,9.0,10.0,1.0,1.0,0.0,,,,,,,,,,,,,,,,,0,22,22,22,2,0,2,0,,,,,,,,,,,,,,,,,,,,,,,,,,,,,,,"['num_9', 'return']","[0.45013470000048983, 0.9941352999994706]",894.3384213999998,None,,,,,,,18,001,2021_Oct_28_1500,eeg_contingent_digits,2021.2.3,60.02573903679031,
22.0,5.0,8.0,9.0,10.0,1.0,1.0,0.0,,,,,,,,,,,,,,,,,0,22,22,22,,,,,,,,,,,,,,,,,,,,,,,,,,,,,,,,,,,,,,,None,None,None,None,None,,18,001,2021_Oct_28_1500,eeg_contingent_digits,2021.2.3,60.02573903679031,
23.0,6.0,8.0,9.0,13.0,0.0,0.0,18.534155508710256,,,,,,,,,,,,,,,,,0,23,23,23,0,0,0,0,,,,,,,,,,,,,,,,,,,,,895.3880510999988,None,895.3880510999988,None,0.00974821000272641,None,0.4859981100053119,None,0.9524887100051274,None,"['num_6', 'return']","[1.8572727999999188, 2.433261300000595]",899.2032610999995,None,,,,,,,18,001,2021_Oct_28_1500,eeg_contingent_digits,2021.2.3,60.02573903679031,
23.0,6.0,8.0,9.0,13.0,0.0,0.0,18.534155508710256,,,,,,,,,,,,,,,,,0,23,23,23,1,0,1,0,,,,,,,,,,,,,,,,,,,,,,,,,,,,,,,"['num_1', 'return']","[0.9276418999979796, 1.4715926999997464]",901.6689211999983,None,,,,,,,18,001,2021_Oct_28_1500,eeg_contingent_digits,2021.2.3,60.02573903679031,
23.0,6.0,8.0,9.0,13.0,0.0,0.0,18.534155508710256,,,,,,,,,,,,,,,,,0,23,23,23,2,0,2,0,,,,,,,,,,,,,,,,,,,,,,,,,,,,,,,"['num_9', 'return']","[0.7073129000018525, 1.1233433000015793]",903.1852067999971,None,,,,,,,18,001,2021_Oct_28_1500,eeg_contingent_digits,2021.2.3,60.02573903679031,
23.0,6.0,8.0,9.0,13.0,0.0,0.0,18.534155508710256,,,,,,,,,,,,,,,,,0,23,23,23,,,,,,,,,,,,,,,,,,,,,,,,,,,,,,,,,,,,,,,None,None,None,None,None,,18,001,2021_Oct_28_1500,eeg_contingent_digits,2021.2.3,60.02573903679031,
24.0,4.0,1.0,0.0,14.0,0.0,1.0,0.0,,,,,,,,,,,,,,,,,0,24,24,24,0,0,0,0,,,,,,,,,,,,,,,,,,,,,904.3846309,None,904.3846309,None,0.010361310003645485,None,0.4872303100019053,None,0.9703909100026067,None,"['num_4', 'return']","[0.6217695999985153, 1.1417613000012352]",911.1986690999984,None,,,,,,,18,001,2021_Oct_28_1500,eeg_contingent_digits,2021.2.3,60.02573903679031,
24.0,4.0,1.0,0.0,14.0,0.0,1.0,0.0,,,,,,,,,,,,,,,,,0,24,24,24,1,0,1,0,,,,,,,,,,,,,,,,,,,,,,,,,,,,,,,"['num_1', 'return']","[0.3908625000003667, 0.8788301999993564]",912.3815733999982,None,,,,,,,18,001,2021_Oct_28_1500,eeg_contingent_digits,2021.2.3,60.02573903679031,
24.0,4.0,1.0,0.0,14.0,0.0,1.0,0.0,,,,,,,,,,,,,,,,,0,24,24,24,2,0,2,0,,,,,,,,,,,,,,,,,,,,,,,,,,,,,,,"['num_0', 'return']","[0.4025132999995549, 0.8024999000008393]",913.2979061999977,None,,,,,,,18,001,2021_Oct_28_1500,eeg_contingent_digits,2021.2.3,60.02573903679031,
24.0,4.0,1.0,0.0,14.0,0.0,1.0,0.0,,,,,,,,,,,,,,,,,0,24,24,24,,,,,,,,,,,,,,,,,,,,,,,,,,,,,,,,,,,,,,,None,None,None,None,None,,18,001,2021_Oct_28_1500,eeg_contingent_digits,2021.2.3,60.02573903679031,
25.0,1.0,4.0,0.0,13.0,0.0,0.0,1.8748927344992339,,,,,,,,,,,,,,,,,0,25,25,25,0,0,0,0,,,,,,,,,,,,,,,,,,,,,914.1642310999996,None,914.1642310999996,None,0.010436709999339655,None,0.48741180999786593,None,0.9705509099985647,None,"['num_1', 'return']","[0.519385700001294, 1.055376399999659]",917.6129826999968,None,,,,,,,18,001,2021_Oct_28_1500,eeg_contingent_digits,2021.2.3,60.02573903679031,
25.0,1.0,4.0,0.0,13.0,0.0,0.0,1.8748927344992339,,,,,,,,,,,,,,,,,0,25,25,25,1,0,1,0,,,,,,,,,,,,,,,,,,,,,,,,,,,,,,,"['num_4', 'return']","[0.395883799999865, 0.8839264000016556]",918.7124868999999,None,,,,,,,18,001,2021_Oct_28_1500,eeg_contingent_digits,2021.2.3,60.02573903679031,
25.0,1.0,4.0,0.0,13.0,0.0,0.0,1.8748927344992339,,,,,,,,,,,,,,,,,0,25,25,25,2,0,2,0,,,,,,,,,,,,,,,,,,,,,,,,,,,,,,,"['num_0', 'return']","[0.42354469999918365, 0.8635212999979558]",919.6288155999973,None,,,,,,,18,001,2021_Oct_28_1500,eeg_contingent_digits,2021.2.3,60.02573903679031,
25.0,1.0,4.0,0.0,13.0,0.0,0.0,1.8748927344992339,,,,,,,,,,,,,,,,,0,25,25,25,,,,,,,,,,,,,,,,,,,,,,,,,,,,,,,,,,,,,,,None,None,None,None,None,,18,001,2021_Oct_28_1500,eeg_contingent_digits,2021.2.3,60.02573903679031,
26.0,3.0,5.0,8.0,61.0,1.0,1.0,0.0,,,,,,,,,,,,,,,,,0,26,26,26,0,0,0,0,,,,,,,,,,,,,,,,,,,,,920.5618234999965,None,920.5618234999965,None,0.01026122000257601,None,0.4870420200022636,None,0.9701944200023718,None,"['num_8', 'return']","[2.1933184000008623, 2.769294000001537]",926.2429751999989,None,,,,,,,18,001,2021_Oct_28_1500,eeg_contingent_digits,2021.2.3,60.02573903679031,
26.0,3.0,5.0,8.0,61.0,1.0,1.0,0.0,,,,,,,,,,,,,,,,,0,26,26,26,1,0,1,0,,,,,,,,,,,,,,,,,,,,,,,,,,,,,,,"['num_5', 'return']","[0.5696406000024581, 1.0656318000001193]",929.0586459999977,None,,,,,,,18,001,2021_Oct_28_1500,eeg_contingent_digits,2021.2.3,60.02573903679031,
26.0,3.0,5.0,8.0,61.0,1.0,1.0,0.0,,,,,,,,,,,,,,,,,0,26,26,26,2,0,2,0,,,,,,,,,,,,,,,,,,,,,,,,,,,,,,,"['num_8', 'return']","[0.5021300000007614, 0.9900990000023739]",930.1581512999983,None,,,,,,,18,001,2021_Oct_28_1500,eeg_contingent_digits,2021.2.3,60.02573903679031,
26.0,3.0,5.0,8.0,61.0,1.0,1.0,0.0,,,,,,,,,,,,,,,,,0,26,26,26,,,,,,,,,,,,,,,,,,,,,,,,,,,,,,,,,,,,,,,None,None,None,None,None,,18,001,2021_Oct_28_1500,eeg_contingent_digits,2021.2.3,60.02573903679031,
27.0,6.0,3.0,0.0,13.0,1.0,0.0,21.81059595918847,,,,,,,,,,,,,,,,,0,27,27,27,0,0,0,0,,,,,,,,,,,,,,,,,,,,,931.207774399998,None,931.207774399998,None,0.014414319997740677,None,0.49537921999944956,None,0.9785411199991358,None,"['num_6', 'return']","[0.7385183999977016, 1.1944892999999865]",934.6897908999999,None,,,,,,,18,001,2021_Oct_28_1500,eeg_contingent_digits,2021.2.3,60.02573903679031,
27.0,6.0,3.0,0.0,13.0,1.0,0.0,21.81059595918847,,,,,,,,,,,,,,,,,0,27,27,27,1,0,1,0,,,,,,,,,,,,,,,,,,,,,,,,,,,,,,,"['num_3', 'return']","[0.35359650000100373, 0.8176088000000163]",935.9226206999992,None,,,,,,,18,001,2021_Oct_28_1500,eeg_contingent_digits,2021.2.3,60.02573903679031,
27.0,6.0,3.0,0.0,13.0,1.0,0.0,21.81059595918847,,,,,,,,,,,,,,,,,0,27,27,27,2,0,2,0,,,,,,,,,,,,,,,,,,,,,,,,,,,,,,,"['num_0', 'return']","[0.3919023999987985, 0.9678647000000637]",936.772318299998,None,,,,,,,18,001,2021_Oct_28_1500,eeg_contingent_digits,2021.2.3,60.02573903679031,
27.0,6.0,3.0,0.0,13.0,1.0,0.0,21.81059595918847,,,,,,,,,,,,,,,,,0,27,27,27,,,,,,,,,,,,,,,,,,,,,,,,,,,,,,,,,,,,,,,None,None,None,None,None,,18,001,2021_Oct_28_1500,eeg_contingent_digits,2021.2.3,60.02573903679031,
28.0,3.0,1.0,0.0,33.0,1.0,1.0,0.0,,,,,,,,,,,,,,,,,0,28,28,28,0,0,0,0,,,,,,,,,,,,,,,,,,,,,937.8219608999971,None,937.8219608999971,None,0.014852849999442697,None,0.49639925000155927,None,0.9795978500005731,None,"['num_6', 'return']","[1.3902458000011393, 1.9503229000001738]",973.9416342999975,None,,,,,,,18,001,2021_Oct_28_1500,eeg_contingent_digits,2021.2.3,60.02573903679031,
28.0,3.0,1.0,0.0,33.0,1.0,1.0,0.0,,,,,,,,,,,,,,,,,0,28,28,28,1,0,1,0,,,,,,,,,,,,,,,,,,,,,,,,,,,,,,,"['num_1', 'return']","[0.37575099999958184, 0.863734900001873]",975.9241070999997,None,,,,,,,18,001,2021_Oct_28_1500,eeg_contingent_digits,2021.2.3,60.02573903679031,
28.0,3.0,1.0,0.0,33.0,1.0,1.0,0.0,,,,,,,,,,,,,,,,,0,28,28,28,2,0,2,0,,,,,,,,,,,,,,,,,,,,,,,,,,,,,,,"['num_0', 'return']","[0.39609009999912814, 0.7801108999992721]",976.8237649999974,None,,,,,,,18,001,2021_Oct_28_1500,eeg_contingent_digits,2021.2.3,60.02573903679031,
28.0,3.0,1.0,0.0,33.0,1.0,1.0,0.0,,,,,,,,,,,,,,,,,0,28,28,28,,,,,,,,,,,,,,,,,,,,,,,,,,,,,,,,,,,,,,,None,None,None,None,None,,18,001,2021_Oct_28_1500,eeg_contingent_digits,2021.2.3,60.02573903679031,
29.0,2.0,3.0,5.0,7.0,0.0,0.0,-14.158839480711684,,,,,,,,,,,,,,,,,0,29,29,29,0,0,0,0,,,,,,,,,,,,,,,,,,,,,977.6734655,None,977.6734655,None,0.0017798300032154657,None,0.470180430002074,None,0.953324430003704,None,"['num_2', 'return']","[0.8703959000013128, 1.2864394999996875]",981.2054448999988,None,,,,,,,18,001,2021_Oct_28_1500,eeg_contingent_digits,2021.2.3,60.02573903679031,
29.0,2.0,3.0,5.0,7.0,0.0,0.0,-14.158839480711684,,,,,,,,,,,,,,,,,0,29,29,29,1,0,1,0,,,,,,,,,,,,,,,,,,,,,,,,,,,,,,,"['num_3', 'return']","[0.34553129999767407, 0.7695269999967422]",982.5382704999975,None,,,,,,,18,001,2021_Oct_28_1500,eeg_contingent_digits,2021.2.3,60.02573903679031,
29.0,2.0,3.0,5.0,7.0,0.0,0.0,-14.158839480711684,,,,,,,,,,,,,,,,,0,29,29,29,2,0,2,0,,,,,,,,,,,,,,,,,,,,,,,,,,,,,,,"['num_0', 'return']","[0.40917890000127954, 0.9691505000009784]",983.3546362999987,None,,,,,,,18,001,2021_Oct_28_1500,eeg_contingent_digits,2021.2.3,60.02573903679031,
29.0,2.0,3.0,5.0,7.0,0.0,0.0,-14.158839480711684,,,,,,,,,,,,,,,,,0,29,29,29,,,,,,,,,,,,,,,,,,,,,,,,,,,,,,,,,,,,,,,None,None,None,None,None,,18,001,2021_Oct_28_1500,eeg_contingent_digits,2021.2.3,60.02573903679031,
30.0,3.0,9.0,1.0,49.0,0.0,1.0,0.0,,,,,,,,,,,,,,,,,0,30,30,30,0,0,0,0,,,,,,,,,,,,,,,,,,,,,984.3876047999984,None,984.3876047999984,None,0.004601530003128573,None,0.4761070300010033,None,0.9589545300004829,None,"['num_3', 'return']","[0.6871189999983471, 1.1991223000004538]",1001.3645085999997,None,,,,,,,18,001,2021_Oct_28_1500,eeg_contingent_digits,2021.2.3,60.02573903679031,
30.0,3.0,9.0,1.0,49.0,0.0,1.0,0.0,,,,,,,,,,,,,,,,,0,30,30,30,1,0,1,0,,,,,,,,,,,,,,,,,,,,,,,,,,,,,,,"['num_0', 'return']","[0.3664348999991489, 0.7744701000010537]",1002.5972150999987,None,,,,,,,18,001,2021_Oct_28_1500,eeg_contingent_digits,2021.2.3,60.02573903679031,
30.0,3.0,9.0,1.0,49.0,0.0,1.0,0.0,,,,,,,,,,,,,,,,,0,30,30,30,2,0,2,0,,,,,,,,,,,,,,,,,,,,,,,,,,,,,,,"['num_1', 'return']","[0.42192200000135927, 0.9019021000021894]",1003.4136955999966,None,,,,,,,18,001,2021_Oct_28_1500,eeg_contingent_digits,2021.2.3,60.02573903679031,
30.0,3.0,9.0,1.0,49.0,0.0,1.0,0.0,,,,,,,,,,,,,,,,,0,30,30,30,,,,,,,,,,,,,,,,,,,,,,,,,,,,,,,,,,,,,,,None,None,None,None,None,,18,001,2021_Oct_28_1500,eeg_contingent_digits,2021.2.3,60.02573903679031,
31.0,9.0,6.0,5.0,13.0,1.0,0.0,3.2562435100494653,,,,,,,,,,,,,,,,,0,31,31,31,0,0,0,0,,,,,,,,,,,,,,,,,,,,,1004.3800478999983,None,1004.3800478999983,None,0.006908240000484511,None,0.4804468399997859,None,0.9636353399982909,None,"['num_9', 'return']","[1.1678205999996862, 1.687811600000714]",1008.6117658999974,None,,,,,,,18,001,2021_Oct_28_1500,eeg_contingent_digits,2021.2.3,60.02573903679031,
31.0,9.0,6.0,5.0,13.0,1.0,0.0,3.2562435100494653,,,,,,,,,,,,,,,,,0,31,31,31,1,0,1,0,,,,,,,,,,,,,,,,,,,,,,,,,,,,,,,"['num_6', 'return']","[0.347160299999814, 0.8672179999994114]",1010.3444042999981,None,,,,,,,18,001,2021_Oct_28_1500,eeg_contingent_digits,2021.2.3,60.02573903679031,
31.0,9.0,6.0,5.0,13.0,1.0,0.0,3.2562435100494653,,,,,,,,,,,,,,,,,0,31,31,31,2,0,2,0,,,,,,,,,,,,,,,,,,,,,,,,,,,,,,,"['num_5', 'return']","[0.4074791000020923, 0.831496300001163]",1011.2440839999981,None,,,,,,,18,001,2021_Oct_28_1500,eeg_contingent_digits,2021.2.3,60.02573903679031,
31.0,9.0,6.0,5.0,13.0,1.0,0.0,3.2562435100494653,,,,,,,,,,,,,,,,,0,31,31,31,,,,,,,,,,,,,,,,,,,,,,,,,,,,,,,,,,,,,,,None,None,None,None,None,,18,001,2021_Oct_28_1500,eeg_contingent_digits,2021.2.3,60.02573903679031,
32.0,1.0,0.0,9.0,49.0,1.0,1.0,0.0,,,,,,,,,,,,,,,,,0,32,32,32,0,0,0,0,,,,,,,,,,,,,,,,,,,,,1012.1437398999988,None,1012.1437398999988,None,0.0009981099974538665,None,0.4855099099986546,None,0.968512509996799,None,"['num_1', 'return']","[0.5884550999981002, 1.132388300000457]",1028.2709856999973,None,,,,,,,18,001,2021_Oct_28_1500,eeg_contingent_digits,2021.2.3,60.02573903679031,
32.0,1.0,0.0,9.0,49.0,1.0,1.0,0.0,,,,,,,,,,,,,,,,,0,32,32,32,1,0,1,0,,,,,,,,,,,,,,,,,,,,,,,,,,,,,,,"['num_0', 'return']","[0.3663297000020975, 0.9182675000010931]",1029.4371356999982,None,,,,,,,18,001,2021_Oct_28_1500,eeg_contingent_digits,2021.2.3,60.02573903679031,
32.0,1.0,0.0,9.0,49.0,1.0,1.0,0.0,,,,,,,,,,,,,,,,,0,32,32,32,2,0,2,0,,,,,,,,,,,,,,,,,,,,,,,,,,,,,,,"['num_9', 'return']","[0.49587350000001607, 1.223901500001375]",1030.4034882999986,None,,,,,,,18,001,2021_Oct_28_1500,eeg_contingent_digits,2021.2.3,60.02573903679031,
32.0,1.0,0.0,9.0,49.0,1.0,1.0,0.0,,,,,,,,,,,,,,,,,0,32,32,32,,,,,,,,,,,,,,,,,,,,,,,,,,,,,,,,,,,,,,,None,None,None,None,None,,18,001,2021_Oct_28_1500,eeg_contingent_digits,2021.2.3,60.02573903679031,
33.0,1.0,9.0,0.0,61.0,0.0,0.0,-2.1395596548442555,,,,,,,,,,,,,,,,,0,33,33,33,0,0,0,0,,,,,,,,,,,,,,,,,,,,,1031.686346399998,None,1031.686346399998,None,0.004536330001428723,None,0.4756828300014604,None,0.9588733300006425,None,"['num_1', 'return']","[0.651783900000737, 1.2598182000001543]",1035.5515148999984,None,,,,,,,18,001,2021_Oct_28_1500,eeg_contingent_digits,2021.2.3,60.02573903679031,
33.0,1.0,9.0,0.0,61.0,0.0,0.0,-2.1395596548442555,,,,,,,,,,,,,,,,,0,33,33,33,1,0,1,0,,,,,,,,,,,,,,,,,,,,,,,,,,,,,,,"['num_9', 'return']","[0.47243499999967753, 0.9444379999986268]",1036.8508753999995,None,,,,,,,18,001,2021_Oct_28_1500,eeg_contingent_digits,2021.2.3,60.02573903679031,
33.0,1.0,9.0,0.0,61.0,0.0,0.0,-2.1395596548442555,,,,,,,,,,,,,,,,,0,33,33,33,2,0,2,0,,,,,,,,,,,,,,,,,,,,,,,,,,,,,,,"['num_0', 'return']","[0.4173360999993747, 0.9052972999998019]",1037.8340002999976,None,,,,,,,18,001,2021_Oct_28_1500,eeg_contingent_digits,2021.2.3,60.02573903679031,
33.0,1.0,9.0,0.0,61.0,0.0,0.0,-2.1395596548442555,,,,,,,,,,,,,,,,,0,33,33,33,,,,,,,,,,,,,,,,,,,,,,,,,,,,,,,,,,,,,,,None,None,None,None,None,,18,001,2021_Oct_28_1500,eeg_contingent_digits,2021.2.3,60.02573903679031,
34.0,2.0,8.0,0.0,14.0,1.0,1.0,0.0,,,,,,,,,,,,,,,,,0,34,34,34,0,0,0,0,,,,,,,,,,,,,,,,,,,,,1038.8169318,None,1038.8169318,None,0.014572449999832315,None,0.495800650001911,None,0.9623088500011363,None,"['num_2', 'return']","[0.8357409000018379, 1.4997969000032754]",1062.3913215999964,None,,,,,,,18,001,2021_Oct_28_1500,eeg_contingent_digits,2021.2.3,60.02573903679031,
34.0,2.0,8.0,0.0,14.0,1.0,1.0,0.0,,,,,,,,,,,,,,,,,0,34,34,34,1,0,1,0,,,,,,,,,,,,,,,,,,,,,,,,,,,,,,,"['num_8', 'return']","[0.5029829000013706, 1.03103689999989]",1063.9240661999975,None,,,,,,,18,001,2021_Oct_28_1500,eeg_contingent_digits,2021.2.3,60.02573903679031,
34.0,2.0,8.0,0.0,14.0,1.0,1.0,0.0,,,,,,,,,,,,,,,,,0,34,34,34,2,0,2,0,,,,,,,,,,,,,,,,,,,,,,,,,,,,,,,"['num_0', 'return']","[0.3647092999999586, 0.7887317999993684]",1064.9903582999978,None,,,,,,,18,001,2021_Oct_28_1500,eeg_contingent_digits,2021.2.3,60.02573903679031,
34.0,2.0,8.0,0.0,14.0,1.0,1.0,0.0,,,,,,,,,,,,,,,,,0,34,34,34,,,,,,,,,,,,,,,,,,,,,,,,,,,,,,,,,,,,,,,None,None,None,None,None,,18,001,2021_Oct_28_1500,eeg_contingent_digits,2021.2.3,60.02573903679031,
35.0,5.0,1.0,9.0,13.0,1.0,0.0,-11.847361491042356,,,,,,,,,,,,,,,,,0,35,35,35,0,0,0,0,,,,,,,,,,,,,,,,,,,,,1065.8399939999981,None,1065.8399939999981,None,0.010719039997638902,None,0.4880360399984056,None,0.9711915400002908,None,"['num_5', 'return']","[0.5091194000015093, 1.6211015000008047]",1069.6218993999973,None,,,,,,,18,001,2021_Oct_28_1500,eeg_contingent_digits,2021.2.3,60.02573903679031,
35.0,5.0,1.0,9.0,13.0,1.0,0.0,-11.847361491042356,,,,,,,,,,,,,,,,,0,35,35,35,1,0,1,0,,,,,,,,,,,,,,,,,,,,,,,,,,,,,,,"['num_1', 'return']","[0.3710971000000427, 0.8751245000021299]",1071.2879091999966,None,,,,,,,18,001,2021_Oct_28_1500,eeg_contingent_digits,2021.2.3,60.02573903679031,
35.0,5.0,1.0,9.0,13.0,1.0,0.0,-11.847361491042356,,,,,,,,,,,,,,,,,0,35,35,35,2,0,2,0,,,,,,,,,,,,,,,,,,,,,,,,,,,,,,,"['num_0', 'return']","[0.3427211999987776, 0.7748062999999092]",1072.2042587999968,None,,,,,,,18,001,2021_Oct_28_1500,eeg_contingent_digits,2021.2.3,60.02573903679031,
35.0,5.0,1.0,9.0,13.0,1.0,0.0,-11.847361491042356,,,,,,,,,,,,,,,,,0,35,35,35,,,,,,,,,,,,,,,,,,,,,,,,,,,,,,,,,,,,,,,None,None,None,None,None,,18,001,2021_Oct_28_1500,eeg_contingent_digits,2021.2.3,60.02573903679031,
36.0,5.0,3.0,6.0,61.0,1.0,1.0,0.0,,,,,,,,,,,,,,,,,0,36,36,36,0,0,0,0,,,,,,,,,,,,,,,,,,,,,1073.0372816999989,None,1073.0372816999989,None,0.016041219998442102,None,0.49871301999883144,None,0.9817372199977399,None,"['num_5', 'return']","[0.6495223000019905, 1.2094379000009212]",1083.0335110999986,None,,,,,,,18,001,2021_Oct_28_1500,eeg_contingent_digits,2021.2.3,60.02573903679031,
36.0,5.0,3.0,6.0,61.0,1.0,1.0,0.0,,,,,,,,,,,,,,,,,0,36,36,36,1,0,1,0,,,,,,,,,,,,,,,,,,,,,,,,,,,,,,,"['num_8', 'return']","[0.39190880000023753, 0.8879234999985783]",1084.2829888999986,None,,,,,,,18,001,2021_Oct_28_1500,eeg_contingent_digits,2021.2.3,60.02573903679031,
36.0,5.0,3.0,6.0,61.0,1.0,1.0,0.0,,,,,,,,,,,,,,,,,0,36,36,36,2,0,2,0,,,,,,,,,,,,,,,,,,,,,,,,,,,,,,,"['num_6', 'return']","[0.36299589999907766, 0.8029634000013175]",1085.2159186999997,None,,,,,,,18,001,2021_Oct_28_1500,eeg_contingent_digits,2021.2.3,60.02573903679031,
36.0,5.0,3.0,6.0,61.0,1.0,1.0,0.0,,,,,,,,,,,,,,,,,0,36,36,36,,,,,,,,,,,,,,,,,,,,,,,,,,,,,,,,,,,,,,,None,None,None,None,None,,18,001,2021_Oct_28_1500,eeg_contingent_digits,2021.2.3,60.02573903679031,
37.0,2.0,1.0,9.0,49.0,1.0,0.0,15.439258834112657,,,,,,,,,,,,,,,,,0,37,37,37,0,0,0,0,,,,,,,,,,,,,,,,,,,,,1086.0823186999987,None,1086.0823186999987,None,0.011630739998508943,None,0.48986523999701603,None,0.9731267399984063,None,"['num_2', 'return']","[0.5921444999985397, 1.0321158000006108]",1092.1466931999967,None,,,,,,,18,001,2021_Oct_28_1500,eeg_contingent_digits,2021.2.3,60.02573903679031,
37.0,2.0,1.0,9.0,49.0,1.0,0.0,15.439258834112657,,,,,,,,,,,,,,,,,0,37,37,37,1,0,1,0,,,,,,,,,,,,,,,,,,,,,,,,,,,,,,,"['num_1', 'return']","[0.37389600000096834, 0.877932300001703]",1093.212912199997,None,,,,,,,18,001,2021_Oct_28_1500,eeg_contingent_digits,2021.2.3,60.02573903679031,
37.0,2.0,1.0,9.0,49.0,1.0,0.0,15.439258834112657,,,,,,,,,,,,,,,,,0,37,37,37,2,0,2,0,,,,,,,,,,,,,,,,,,,,,,,,,,,,,,,"['num_0', 'return']","[0.3855493999981263, 0.8415437999974529]",1094.1292605999988,None,,,,,,,18,001,2021_Oct_28_1500,eeg_contingent_digits,2021.2.3,60.02573903679031,
37.0,2.0,1.0,9.0,49.0,1.0,0.0,15.439258834112657,,,,,,,,,,,,,,,,,0,37,37,37,,,,,,,,,,,,,,,,,,,,,,,,,,,,,,,,,,,,,,,None,None,None,None,None,,18,001,2021_Oct_28_1500,eeg_contingent_digits,2021.2.3,60.02573903679031,
38.0,0.0,3.0,9.0,1.0,1.0,1.0,0.0,,,,,,,,,,,,,,,,,0,38,38,38,0,0,0,0,,,,,,,,,,,,,,,,,,,,,1095.0456305999978,None,1095.0456305999978,None,0.005562950002058642,None,0.4778648500032432,None,0.9612683500017738,None,"['num_0', 'return']","[0.6790621000000101, 1.2470522000003257]",1128.6994737999994,None,,,,,,,18,001,2021_Oct_28_1500,eeg_contingent_digits,2021.2.3,60.02573903679031,
38.0,0.0,3.0,9.0,1.0,1.0,1.0,0.0,,,,,,,,,,,,,,,,,0,38,38,38,1,0,1,0,,,,,,,,,,,,,,,,,,,,,,,,,,,,,,,"['num_8', 'return']","[0.7002385999985563, 1.1561961000006704]",1129.9822995999966,None,,,,,,,18,001,2021_Oct_28_1500,eeg_contingent_digits,2021.2.3,60.02573903679031,
38.0,0.0,3.0,9.0,1.0,1.0,1.0,0.0,,,,,,,,,,,,,,,,,0,38,38,38,2,0,2,0,,,,,,,,,,,,,,,,,,,,,,,,,,,,,,,"['num_9', 'return']","[0.3806040999988909, 0.7726117999991402]",1131.1818821999987,None,,,,,,,18,001,2021_Oct_28_1500,eeg_contingent_digits,2021.2.3,60.02573903679031,
38.0,0.0,3.0,9.0,1.0,1.0,1.0,0.0,,,,,,,,,,,,,,,,,0,38,38,38,,,,,,,,,,,,,,,,,,,,,,,,,,,,,,,,,,,,,,,None,None,None,None,None,,18,001,2021_Oct_28_1500,eeg_contingent_digits,2021.2.3,60.02573903679031,
39.0,4.0,5.0,9.0,21.0,1.0,0.0,8.069970610462057,,,,,,,,,,,,,,,,,0,39,39,39,0,0,0,0,,,,,,,,,,,,,,,,,,,,,1132.0149103999975,None,1132.0149103999975,None,0.00610293999852729,None,0.4788352399991709,None,0.9620066399984353,None,"['num_4', 'return']","[0.5123544000016409, 1.0563689000009617]",1135.930100999998,None,,,,,,,18,001,2021_Oct_28_1500,eeg_contingent_digits,2021.2.3,60.02573903679031,
39.0,4.0,5.0,9.0,21.0,1.0,0.0,8.069970610462057,,,,,,,,,,,,,,,,,0,39,39,39,1,0,1,0,,,,,,,,,,,,,,,,,,,,,,,,,,,,,,,"['num_5', 'return']","[0.4128141000001051, 0.8688172000001941]",1137.0296320999987,None,,,,,,,18,001,2021_Oct_28_1500,eeg_contingent_digits,2021.2.3,60.02573903679031,
39.0,4.0,5.0,9.0,21.0,1.0,0.0,8.069970610462057,,,,,,,,,,,,,,,,,0,39,39,39,2,0,2,0,,,,,,,,,,,,,,,,,,,,,,,,,,,,,,,"['num_9', 'return']","[0.39251819999844884, 0.8245119999992312]",1137.9459272999993,None,,,,,,,18,001,2021_Oct_28_1500,eeg_contingent_digits,2021.2.3,60.02573903679031,
39.0,4.0,5.0,9.0,21.0,1.0,0.0,8.069970610462057,,,,,,,,,,,,,,,,,0,39,39,39,,,,,,,,,,,,,,,,,,,,,,,,,,,,,,,,,,,,,,,None,None,None,None,None,,18,001,2021_Oct_28_1500,eeg_contingent_digits,2021.2.3,60.02573903679031,
40.0,0.0,3.0,4.0,48.0,1.0,1.0,0.0,,,,,,,,,,,,,,,,,0,40,40,40,0,0,0,0,,,,,,,,,,,,,,,,,,,,,1138.8456189999997,None,1138.8456189999997,None,0.013272020001750207,None,0.49313292000078945,None,0.9762221199998748,None,"['num_0', 'return']","[1.8102808999974513, 2.250318399997923]",1162.7198936999994,None,,,,,,,18,001,2021_Oct_28_1500,eeg_contingent_digits,2021.2.3,60.02573903679031,
40.0,0.0,3.0,4.0,48.0,1.0,1.0,0.0,,,,,,,,,,,,,,,,,0,40,40,40,1,0,1,0,,,,,,,,,,,,,,,,,,,,,,,,,,,,,,,"['num_8', 'return']","[0.4398661999985052, 0.8958834000004572]",1165.0023293999984,None,,,,,,,18,001,2021_Oct_28_1500,eeg_contingent_digits,2021.2.3,60.02573903679031,
40.0,0.0,3.0,4.0,48.0,1.0,1.0,0.0,,,,,,,,,,,,,,,,,0,40,40,40,2,0,2,0,,,,,,,,,,,,,,,,,,,,,,,,,,,,,,,"['num_4', 'return']","[0.3788698000025761, 0.8108279000007315]",1165.9353410999975,None,,,,,,,18,001,2021_Oct_28_1500,eeg_contingent_digits,2021.2.3,60.02573903679031,
40.0,0.0,3.0,4.0,48.0,1.0,1.0,0.0,,,,,,,,,,,,,,,,,0,40,40,40,,,,,,,,,,,,,,,,,,,,,,,,,,,,,,,,,,,,,,,None,None,None,None,None,,18,001,2021_Oct_28_1500,eeg_contingent_digits,2021.2.3,60.02573903679031,
41.0,6.0,8.0,0.0,21.0,1.0,0.0,-26.830970085209977,,,,,,,,,,,,,,,,,0,41,41,41,0,0,0,0,,,,,,,,,,,,,,,,,,,,,1166.8183316999966,None,1166.8183316999966,None,0.011838419999548933,None,0.4902412199990067,None,0.9734152199962409,None,"['num_6', 'return']","[0.678449000002729, 1.134448100001464]",1170.283703699999,None,,,,,,,18,001,2021_Oct_28_1500,eeg_contingent_digits,2021.2.3,60.02573903679031,
41.0,6.0,8.0,0.0,21.0,1.0,0.0,-26.830970085209977,,,,,,,,,,,,,,,,,0,41,41,41,1,0,1,0,,,,,,,,,,,,,,,,,,,,,,,,,,,,,,,"['num_8', 'return']","[0.40833309999652556, 0.904330099998333]",1171.4498067999994,None,,,,,,,18,001,2021_Oct_28_1500,eeg_contingent_digits,2021.2.3,60.02573903679031,
41.0,6.0,8.0,0.0,21.0,1.0,0.0,-26.830970085209977,,,,,,,,,,,,,,,,,0,41,41,41,2,0,2,0,,,,,,,,,,,,,,,,,,,,,,,,,,,,,,,"['num_0', 'return']","[0.3545884999984992, 0.7466318999977375]",1172.399523699998,None,,,,,,,18,001,2021_Oct_28_1500,eeg_contingent_digits,2021.2.3,60.02573903679031,
41.0,6.0,8.0,0.0,21.0,1.0,0.0,-26.830970085209977,,,,,,,,,,,,,,,,,0,41,41,41,,,,,,,,,,,,,,,,,,,,,,,,,,,,,,,,,,,,,,,None,None,None,None,None,,18,001,2021_Oct_28_1500,eeg_contingent_digits,2021.2.3,60.02573903679031,
42.0,9.0,3.0,2.0,10.0,0.0,1.0,0.0,,,,,,,,,,,,,,,,,0,42,42,42,0,0,0,0,,,,,,,,,,,,,,,,,,,,,1173.1992449999998,None,1173.1992449999998,None,0.005876630002603633,None,0.47838693000085186,None,0.9448356300017622,None,"['num_9', 'return']","[1.0732213000010233, 1.601198000000295]",1213.6005631999979,None,,,,,,,18,001,2021_Oct_28_1500,eeg_contingent_digits,2021.2.3,60.02573903679031,
42.0,9.0,3.0,2.0,10.0,0.0,1.0,0.0,,,,,,,,,,,,,,,,,0,42,42,42,1,0,1,0,,,,,,,,,,,,,,,,,,,,,,,,,,,,,,,"['num_3', 'return']","[0.3204892000030668, 0.7845642000029329]",1215.2332760999998,None,,,,,,,18,001,2021_Oct_28_1500,eeg_contingent_digits,2021.2.3,60.02573903679031,
42.0,9.0,3.0,2.0,10.0,0.0,1.0,0.0,,,,,,,,,,,,,,,,,0,42,42,42,2,0,2,0,,,,,,,,,,,,,,,,,,,,,,,,,,,,,,,"['num_2', 'return']","[0.7120424000022467, 1.144049400001677]",1216.0496870999996,None,,,,,,,18,001,2021_Oct_28_1500,eeg_contingent_digits,2021.2.3,60.02573903679031,
42.0,9.0,3.0,2.0,10.0,0.0,1.0,0.0,,,,,,,,,,,,,,,,,0,42,42,42,,,,,,,,,,,,,,,,,,,,,,,,,,,,,,,,,,,,,,,None,None,None,None,None,,18,001,2021_Oct_28_1500,eeg_contingent_digits,2021.2.3,60.02573903679031,
43.0,5.0,2.0,8.0,61.0,0.0,0.0,15.329712810529742,,,,,,,,,,,,,,,,,0,43,43,43,0,0,0,0,,,,,,,,,,,,,,,,,,,,,1217.2658883999975,None,1217.2658883999975,None,0.006486829999630572,None,0.47958283000116353,None,0.9627380300007644,None,"['num_5', 'return']","[0.9519067000001087, 2.271942499999568]",1220.897784599998,None,,,,,,,18,001,2021_Oct_28_1500,eeg_contingent_digits,2021.2.3,60.02573903679031,
43.0,5.0,2.0,8.0,61.0,0.0,0.0,15.329712810529742,,,,,,,,,,,,,,,,,0,43,43,43,1,0,1,0,,,,,,,,,,,,,,,,,,,,,,,,,,,,,,,"['num_2', 'return']","[0.34015419999923324, 0.9561042999994243]",1223.2135563999982,None,,,,,,,18,001,2021_Oct_28_1500,eeg_contingent_digits,2021.2.3,60.02573903679031,
43.0,5.0,2.0,8.0,61.0,0.0,0.0,15.329712810529742,,,,,,,,,,,,,,,,,0,43,43,43,2,0,2,0,,,,,,,,,,,,,,,,,,,,,,,,,,,,,,,"['num_8', 'return']","[0.5484571999986656, 1.0845711999972991]",1224.2132063999998,None,,,,,,,18,001,2021_Oct_28_1500,eeg_contingent_digits,2021.2.3,60.02573903679031,
43.0,5.0,2.0,8.0,61.0,0.0,0.0,15.329712810529742,,,,,,,,,,,,,,,,,0,43,43,43,,,,,,,,,,,,,,,,,,,,,,,,,,,,,,,,,,,,,,,None,None,None,None,None,,18,001,2021_Oct_28_1500,eeg_contingent_digits,2021.2.3,60.02573903679031,
44.0,4.0,0.0,6.0,13.0,0.0,1.0,0.0,,,,,,,,,,,,,,,,,0,44,44,44,0,0,0,0,,,,,,,,,,,,,,,,,,,,,1225.3461003999982,None,1225.3461003999982,None,0.008251939998444868,None,0.48313083999892115,None,0.9662607399986882,None,"['num_4', 'return']","[0.7637314999992668, 1.2677149999981339]",1229.4778744999967,None,,,,,,,18,001,2021_Oct_28_1500,eeg_contingent_digits,2021.2.3,60.02573903679031,
44.0,4.0,0.0,6.0,13.0,0.0,1.0,0.0,,,,,,,,,,,,,,,,,0,44,44,44,1,0,1,0,,,,,,,,,,,,,,,,,,,,,,,,,,,,,,,"['num_0', 'return']","[0.40829350000058184, 0.8562822000021697]",1230.777317,None,,,,,,,18,001,2021_Oct_28_1500,eeg_contingent_digits,2021.2.3,60.02573903679031,
44.0,4.0,0.0,6.0,13.0,0.0,1.0,0.0,,,,,,,,,,,,,,,,,0,44,44,44,2,0,2,0,,,,,,,,,,,,,,,,,,,,,,,,,,,,,,,"['num_6', 'return']","[0.3805514999985462, 0.7726135999982944]",1231.6770356999987,None,,,,,,,18,001,2021_Oct_28_1500,eeg_contingent_digits,2021.2.3,60.02573903679031,
44.0,4.0,0.0,6.0,13.0,0.0,1.0,0.0,,,,,,,,,,,,,,,,,0,44,44,44,,,,,,,,,,,,,,,,,,,,,,,,,,,,,,,,,,,,,,,None,None,None,None,None,,18,001,2021_Oct_28_1500,eeg_contingent_digits,2021.2.3,60.02573903679031,
45.0,1.0,8.0,6.0,33.0,1.0,0.0,14.84677290599366,,,,,,,,,,,,,,,,,0,45,45,45,0,0,0,0,,,,,,,,,,,,,,,,,,,,,1232.5100585,None,1232.5100585,None,0.012317350003286265,None,0.49131895000391523,None,0.9744418500013126,None,"['num_1', 'return']","[0.8917469000007259, 1.419784099998651]",1236.7417831999992,None,,,,,,,18,001,2021_Oct_28_1500,eeg_contingent_digits,2021.2.3,60.02573903679031,
45.0,1.0,8.0,6.0,33.0,1.0,0.0,14.84677290599366,,,,,,,,,,,,,,,,,0,45,45,45,1,0,1,0,,,,,,,,,,,,,,,,,,,,,,,,,,,,,,,"['num_8', 'return']","[0.48967650000122376, 0.9216642999999749]",1238.207868399997,None,,,,,,,18,001,2021_Oct_28_1500,eeg_contingent_digits,2021.2.3,60.02573903679031,
45.0,1.0,8.0,6.0,33.0,1.0,0.0,14.84677290599366,,,,,,,,,,,,,,,,,0,45,45,45,2,0,2,0,,,,,,,,,,,,,,,,,,,,,,,,,,,,,,,"['num_6', 'return']","[0.5552827999999863, 2.491287299999385]",1239.1742206999988,None,,,,,,,18,001,2021_Oct_28_1500,eeg_contingent_digits,2021.2.3,60.02573903679031,
45.0,1.0,8.0,6.0,33.0,1.0,0.0,14.84677290599366,,,,,,,,,,,,,,,,,0,45,45,45,,,,,,,,,,,,,,,,,,,,,,,,,,,,,,,,,,,,,,,None,None,None,None,None,,18,001,2021_Oct_28_1500,eeg_contingent_digits,2021.2.3,60.02573903679031,
46.0,2.0,6.0,8.0,21.0,1.0,1.0,0.0,,,,,,,,,,,,,,,,,0,46,46,46,0,0,0,0,,,,,,,,,,,,,,,,,,,,,1241.7232635,None,1241.7232635,None,0.0099890499986941,None,0.48672554999939166,None,0.9698229499990703,None,"['num_3', 'return']","[0.870571799998288, 1.3345750999978918]",1274.8106531999983,None,,,,,,,18,001,2021_Oct_28_1500,eeg_contingent_digits,2021.2.3,60.02573903679031,
46.0,2.0,6.0,8.0,21.0,1.0,1.0,0.0,,,,,,,,,,,,,,,,,0,46,46,46,1,0,1,0,,,,,,,,,,,,,,,,,,,,,,,,,,,,,,,"['num_6', 'return']","[0.38449279999986175, 0.8724419999998645]",1276.1768201999985,None,,,,,,,18,001,2021_Oct_28_1500,eeg_contingent_digits,2021.2.3,60.02573903679031,
46.0,2.0,6.0,8.0,21.0,1.0,1.0,0.0,,,,,,,,,,,,,,,,,0,46,46,46,2,0,2,0,,,,,,,,,,,,,,,,,,,,,,,,,,,,,,,"['num_8', 'return']","[0.3640913000017463, 0.9241347999995924]",1277.093116,None,,,,,,,18,001,2021_Oct_28_1500,eeg_contingent_digits,2021.2.3,60.02573903679031,
46.0,2.0,6.0,8.0,21.0,1.0,1.0,0.0,,,,,,,,,,,,,,,,,0,46,46,46,,,,,,,,,,,,,,,,,,,,,,,,,,,,,,,,,,,,,,,None,None,None,None,None,,18,001,2021_Oct_28_1500,eeg_contingent_digits,2021.2.3,60.02573903679031,
47.0,3.0,5.0,1.0,10.0,1.0,0.0,11.24242084856074,,,,,,,,,,,,,,,,,0,47,47,47,0,0,0,0,,,,,,,,,,,,,,,,,,,,,1278.0927497999983,None,1278.0927497999983,None,0.006733849997544894,None,0.48024604999955045,None,0.963405349997629,None,"['num_5', 'return']","[1.448585699999967, 1.9205938000013703]",1282.0245673999998,None,,,,,,,18,001,2021_Oct_28_1500,eeg_contingent_digits,2021.2.3,60.02573903679031,
47.0,3.0,5.0,1.0,10.0,1.0,0.0,11.24242084856074,,,,,,,,,,,,,,,,,0,47,47,47,1,0,1,0,,,,,,,,,,,,,,,,,,,,,,,,,,,,,,,"['num_4', 'return']","[0.41061989999798243, 0.9146267999967677]",1283.9904792999987,None,,,,,,,18,001,2021_Oct_28_1500,eeg_contingent_digits,2021.2.3,60.02573903679031,
47.0,3.0,5.0,1.0,10.0,1.0,0.0,11.24242084856074,,,,,,,,,,,,,,,,,0,47,47,47,2,0,2,0,,,,,,,,,,,,,,,,,,,,,,,,,,,,,,,"['num_5', 'return']","[0.3569220999997924, 0.8690342999980203]",1284.9401839999991,None,,,,,,,18,001,2021_Oct_28_1500,eeg_contingent_digits,2021.2.3,60.02573903679031,
47.0,3.0,5.0,1.0,10.0,1.0,0.0,11.24242084856074,,,,,,,,,,,,,,,,,0,47,47,47,,,,,,,,,,,,,,,,,,,,,,,,,,,,,,,,,,,,,,,None,None,None,None,None,,18,001,2021_Oct_28_1500,eeg_contingent_digits,2021.2.3,60.02573903679031,
48.0,3.0,0.0,9.0,13.0,1.0,1.0,0.0,,,,,,,,,,,,,,,,,0,48,48,48,0,0,0,0,,,,,,,,,,,,,,,,,,,,,1285.8731271999968,None,1285.8731271999968,None,0.0017398399977537338,None,0.486810839996906,None,0.9700497399971937,None,"['num_3', 'return']","[0.9096380000009958, 1.3016659999993863]",1299.2513617999975,None,,,,,,,18,001,2021_Oct_28_1500,eeg_contingent_digits,2021.2.3,60.02573903679031,
48.0,3.0,0.0,9.0,13.0,1.0,1.0,0.0,,,,,,,,,,,,,,,,,0,48,48,48,1,0,1,0,,,,,,,,,,,,,,,,,,,,,,,,,,,,,,,"['num_0', 'return']","[0.3600752000020293, 0.8001456000019971]",1300.600894299998,None,,,,,,,18,001,2021_Oct_28_1500,eeg_contingent_digits,2021.2.3,60.02573903679031,
48.0,3.0,0.0,9.0,13.0,1.0,1.0,0.0,,,,,,,,,,,,,,,,,0,48,48,48,2,0,2,0,,,,,,,,,,,,,,,,,,,,,,,,,,,,,,,"['num_0', 'return']","[0.35123250000106054, 0.7513041000020166]",1301.4337639999976,None,,,,,,,18,001,2021_Oct_28_1500,eeg_contingent_digits,2021.2.3,60.02573903679031,
48.0,3.0,0.0,9.0,13.0,1.0,1.0,0.0,,,,,,,,,,,,,,,,,0,48,48,48,,,,,,,,,,,,,,,,,,,,,,,,,,,,,,,,,,,,,,,None,None,None,None,None,,18,001,2021_Oct_28_1500,eeg_contingent_digits,2021.2.3,60.02573903679031,
49.0,4.0,9.0,3.0,21.0,1.0,0.0,15.457087645793123,,,,,,,,,,,,,,,,,0,49,49,49,0,0,0,0,,,,,,,,,,,,,,,,,,,,,1302.233578299998,None,1302.233578299998,None,0.00299864000044181,None,0.48944244000085746,None,0.9724854400010372,None,"['num_4', 'return']","[0.5482932999984769, 1.0683107000004384]",1306.5486648999977,None,,,,,,,18,001,2021_Oct_28_1500,eeg_contingent_digits,2021.2.3,60.02573903679031,
49.0,4.0,9.0,3.0,21.0,1.0,0.0,15.457087645793123,,,,,,,,,,,,,,,,,0,49,49,49,1,0,1,0,,,,,,,,,,,,,,,,,,,,,,,,,,,,,,,"['num_9', 'return']","[0.37605509999775677, 0.8081082999997307]",1307.664878399999,None,,,,,,,18,001,2021_Oct_28_1500,eeg_contingent_digits,2021.2.3,60.02573903679031,
49.0,4.0,9.0,3.0,21.0,1.0,0.0,15.457087645793123,,,,,,,,,,,,,,,,,0,49,49,49,2,0,2,0,,,,,,,,,,,,,,,,,,,,,,,,,,,,,,,"['num_2', 'return']","[0.3424368999985745, 0.726448999997956]",1308.5145041999967,None,,,,,,,18,001,2021_Oct_28_1500,eeg_contingent_digits,2021.2.3,60.02573903679031,
49.0,4.0,9.0,3.0,21.0,1.0,0.0,15.457087645793123,,,,,,,,,,,,,,,,,0,49,49,49,,,,,,,,,,,,,,,,,,,,,,,,,,,,,,,,,,,,,,,None,None,None,None,None,,18,001,2021_Oct_28_1500,eeg_contingent_digits,2021.2.3,60.02573903679031,
50.0,9.0,8.0,3.0,10.0,1.0,1.0,0.0,,,,,,,,,,,,,,,,,0,50,50,50,0,0,0,0,,,,,,,,,,,,,,,,,,,,,1309.2975499999993,None,1309.2975499999993,None,0.0063494399983028416,None,0.4793061399977887,None,0.9624903399999312,None,"['num_0', 'return']","[1.900650700001279, 2.4126491000024544]",1339.8359741999993,None,,,,,,,18,001,2021_Oct_28_1500,eeg_contingent_digits,2021.2.3,60.02573903679031,
50.0,9.0,8.0,3.0,10.0,1.0,1.0,0.0,,,,,,,,,,,,,,,,,0,50,50,50,1,0,1,0,,,,,,,,,,,,,,,,,,,,,,,,,,,,,,,"['num_8', 'return']","[1.203723099999479, 1.9717067999990832]",1342.2849137999983,None,,,,,,,18,001,2021_Oct_28_1500,eeg_contingent_digits,2021.2.3,60.02573903679031,
50.0,9.0,8.0,3.0,10.0,1.0,1.0,0.0,,,,,,,,,,,,,,,,,0,50,50,50,2,0,2,0,,,,,,,,,,,,,,,,,,,,,,,,,,,,,,,"['num_0', 'return']","[0.715659899997263, 1.0516795000003185]",1344.300935299998,None,,,,,,,18,001,2021_Oct_28_1500,eeg_contingent_digits,2021.2.3,60.02573903679031,
50.0,9.0,8.0,3.0,10.0,1.0,1.0,0.0,,,,,,,,,,,,,,,,,0,50,50,50,,,,,,,,,,,,,,,,,,,,,,,,,,,,,,,,,,,,,,,None,None,None,None,None,,18,001,2021_Oct_28_1500,eeg_contingent_digits,2021.2.3,60.02573903679031,
51.0,8.0,1.0,2.0,49.0,0.0,0.0,-29.583973611362232,,,,,,,,,,,,,,,,,0,51,51,51,0,0,0,0,,,,,,,,,,,,,,,,,,,,,1345.417195799997,None,1345.417195799997,None,0.009640310003305785,None,0.48578871000063373,None,0.952302410001721,None,"['num_0', 'return']","[2.990696699998807, 3.4786996000002546]",1348.8658558999996,None,,,,,,,18,001,2021_Oct_28_1500,eeg_contingent_digits,2021.2.3,60.02573903679031,
51.0,8.0,1.0,2.0,49.0,0.0,0.0,-29.583973611362232,,,,,,,,,,,,,,,,,0,51,51,51,1,0,1,0,,,,,,,,,,,,,,,,,,,,,,,,,,,,,,,"['num_1', 'return']","[0.5554494999996678, 0.8914249999979802]",1352.3810862999999,None,,,,,,,18,001,2021_Oct_28_1500,eeg_contingent_digits,2021.2.3,60.02573903679031,
51.0,8.0,1.0,2.0,49.0,0.0,0.0,-29.583973611362232,,,,,,,,,,,,,,,,,0,51,51,51,2,0,2,0,,,,,,,,,,,,,,,,,,,,,,,,,,,,,,,"['num_2', 'return']","[0.5583783000001858, 0.9263883000021451]",1353.314148399997,None,,,,,,,18,001,2021_Oct_28_1500,eeg_contingent_digits,2021.2.3,60.02573903679031,
51.0,8.0,1.0,2.0,49.0,0.0,0.0,-29.583973611362232,,,,,,,,,,,,,,,,,0,51,51,51,,,,,,,,,,,,,,,,,,,,,,,,,,,,,,,,,,,,,,,None,None,None,None,None,,18,001,2021_Oct_28_1500,eeg_contingent_digits,2021.2.3,60.02573903679031,
52.0,1.0,9.0,3.0,21.0,1.0,1.0,0.0,,,,,,,,,,,,,,,,,0,52,52,52,0,0,0,0,,,,,,,,,,,,,,,,,,,,,1354.2971246999987,None,1354.2971246999987,None,0.0032831499993335456,None,0.48992934999841964,None,0.9730711499978497,None,"['num_1', 'return']","[0.8969323000019358, 1.3369354999995267]",1376.4553948999965,None,,,,,,,18,001,2021_Oct_28_1500,eeg_contingent_digits,2021.2.3,60.02573903679031,
52.0,1.0,9.0,3.0,21.0,1.0,1.0,0.0,,,,,,,,,,,,,,,,,0,52,52,52,1,0,1,0,,,,,,,,,,,,,,,,,,,,,,,,,,,,,,,"['num_9', 'return']","[0.4020770999995875, 0.810198200000741]",1377.8382225999994,None,,,,,,,18,001,2021_Oct_28_1500,eeg_contingent_digits,2021.2.3,60.02573903679031,
52.0,1.0,9.0,3.0,21.0,1.0,1.0,0.0,,,,,,,,,,,,,,,,,0,52,52,52,2,0,2,0,,,,,,,,,,,,,,,,,,,,,,,,,,,,,,,"['num_2', 'return']","[0.36045390000072075, 0.7204865000021528]",1378.6878771999982,None,,,,,,,18,001,2021_Oct_28_1500,eeg_contingent_digits,2021.2.3,60.02573903679031,
52.0,1.0,9.0,3.0,21.0,1.0,1.0,0.0,,,,,,,,,,,,,,,,,0,52,52,52,,,,,,,,,,,,,,,,,,,,,,,,,,,,,,,,,,,,,,,None,None,None,None,None,,18,001,2021_Oct_28_1500,eeg_contingent_digits,2021.2.3,60.02573903679031,
53.0,3.0,4.0,1.0,14.0,0.0,0.0,18.23140939356876,,,,,,,,,,,,,,,,,0,53,53,53,0,0,0,0,,,,,,,,,,,,,,,,,,,,,1379.4709151999996,None,1379.4709151999996,None,0.012312139999266947,None,0.5079664400000183,None,0.974397139998473,None,"['num_3', 'return']","[0.5709321000031196, 0.9229465000025812]",1383.6693266999973,None,,,,,,,18,001,2021_Oct_28_1500,eeg_contingent_digits,2021.2.3,60.02573903679031,
53.0,3.0,4.0,1.0,14.0,0.0,0.0,18.23140939356876,,,,,,,,,,,,,,,,,0,53,53,53,1,0,1,0,,,,,,,,,,,,,,,,,,,,,,,,,,,,,,,"['num_4', 'return']","[0.3726686999980302, 0.7566748999997799]",1384.6355896999994,None,,,,,,,18,001,2021_Oct_28_1500,eeg_contingent_digits,2021.2.3,60.02573903679031,
53.0,3.0,4.0,1.0,14.0,0.0,0.0,18.23140939356876,,,,,,,,,,,,,,,,,0,53,53,53,2,0,2,0,,,,,,,,,,,,,,,,,,,,,,,,,,,,,,,"['num_1', 'return']","[0.33298389999981737, 0.6929466000001412]",1385.4352820999993,None,,,,,,,18,001,2021_Oct_28_1500,eeg_contingent_digits,2021.2.3,60.02573903679031,
53.0,3.0,4.0,1.0,14.0,0.0,0.0,18.23140939356876,,,,,,,,,,,,,,,,,0,53,53,53,,,,,,,,,,,,,,,,,,,,,,,,,,,,,,,,,,,,,,,None,None,None,None,None,,18,001,2021_Oct_28_1500,eeg_contingent_digits,2021.2.3,60.02573903679031,
54.0,1.0,9.0,6.0,10.0,0.0,1.0,0.0,,,,,,,,,,,,,,,,,0,54,54,54,0,0,0,0,,,,,,,,,,,,,,,,,,,,,1386.1850051999972,None,1386.1850051999972,None,0.01211244000296574,None,0.49086374000034994,None,0.9573835400005919,None,"['num_2', 'return']","[6.9905768000026, 7.374612499999785]",1392.0495256999966,None,,,,,,,18,001,2021_Oct_28_1500,eeg_contingent_digits,2021.2.3,60.02573903679031,
54.0,1.0,9.0,6.0,10.0,0.0,1.0,0.0,,,,,,,,,,,,,,,,,0,54,54,54,1,0,1,0,,,,,,,,,,,,,,,,,,,,,,,,,,,,,,,"['num_0', 'return']","[0.6487873000005493, 1.1287469999988389]",1399.463378999997,None,,,,,,,18,001,2021_Oct_28_1500,eeg_contingent_digits,2021.2.3,60.02573903679031,
54.0,1.0,9.0,6.0,10.0,0.0,1.0,0.0,,,,,,,,,,,,,,,,,0,54,54,54,2,0,2,0,,,,,,,,,,,,,,,,,,,,,,,,,,,,,,,"['num_6', 'return']","[0.6024785000008706, 1.0104652000009082]",1400.6296330999976,None,,,,,,,18,001,2021_Oct_28_1500,eeg_contingent_digits,2021.2.3,60.02573903679031,
54.0,1.0,9.0,6.0,10.0,0.0,1.0,0.0,,,,,,,,,,,,,,,,,0,54,54,54,,,,,,,,,,,,,,,,,,,,,,,,,,,,,,,,,,,,,,,None,None,None,None,None,,18,001,2021_Oct_28_1500,eeg_contingent_digits,2021.2.3,60.02573903679031,
55.0,0.0,2.0,3.0,21.0,0.0,0.0,9.926660414775228,,,,,,,,,,,,,,,,,0,55,55,55,0,0,0,0,,,,,,,,,,,,,,,,,,,,,1401.7125006999995,None,1401.7125006999995,None,0.010592210001050262,None,0.5044753100009984,None,0.9709626100011519,None,"['num_0', 'return']","[0.5341895999990811, 0.9501842999998189]",1405.1778767999967,None,,,,,,,18,001,2021_Oct_28_1500,eeg_contingent_digits,2021.2.3,60.02573903679031,
55.0,0.0,2.0,3.0,21.0,0.0,0.0,9.926660414775228,,,,,,,,,,,,,,,,,0,55,55,55,1,0,1,0,,,,,,,,,,,,,,,,,,,,,,,,,,,,,,,"['num_3', 'return']","[0.37527879999834113, 0.7352710000013758]",1406.1607852999987,None,,,,,,,18,001,2021_Oct_28_1500,eeg_contingent_digits,2021.2.3,60.02573903679031,
55.0,0.0,2.0,3.0,21.0,0.0,0.0,9.926660414775228,,,,,,,,,,,,,,,,,0,55,55,55,2,0,2,0,,,,,,,,,,,,,,,,,,,,,,,,,,,,,,,"['num_2', 'return']","[0.32825039999806904, 0.664212799998495]",1406.9438378999985,None,,,,,,,18,001,2021_Oct_28_1500,eeg_contingent_digits,2021.2.3,60.02573903679031,
55.0,0.0,2.0,3.0,21.0,0.0,0.0,9.926660414775228,,,,,,,,,,,,,,,,,0,55,55,55,,,,,,,,,,,,,,,,,,,,,,,,,,,,,,,,,,,,,,,None,None,None,None,None,,18,001,2021_Oct_28_1500,eeg_contingent_digits,2021.2.3,60.02573903679031,
56.0,0.0,1.0,8.0,61.0,0.0,1.0,0.0,,,,,,,,,,,,,,,,,0,56,56,56,0,0,0,0,,,,,,,,,,,,,,,,,,,,,1407.6602037999983,None,1407.6602037999983,None,0.005054620000009891,None,0.47667751999688335,None,0.9431799199992383,None,"['num_0', 'return']","[0.9196085000003222, 1.2876401000030455]",1430.5682290999976,None,,,,,,,18,001,2021_Oct_28_1500,eeg_contingent_digits,2021.2.3,60.02573903679031,
56.0,0.0,1.0,8.0,61.0,0.0,1.0,0.0,,,,,,,,,,,,,,,,,0,56,56,56,1,0,1,0,,,,,,,,,,,,,,,,,,,,,,,,,,,,,,,"['num_1', 'return']","[0.3628774999997404, 0.7868616000014299]",1431.900979099999,None,,,,,,,18,001,2021_Oct_28_1500,eeg_contingent_digits,2021.2.3,60.02573903679031,
56.0,0.0,1.0,8.0,61.0,0.0,1.0,0.0,,,,,,,,,,,,,,,,,0,56,56,56,2,0,2,0,,,,,,,,,,,,,,,,,,,,,,,,,,,,,,,"['num_8', 'return']","[0.3858521000001929, 0.7538497000023199]",1432.733999,None,,,,,,,18,001,2021_Oct_28_1500,eeg_contingent_digits,2021.2.3,60.02573903679031,
56.0,0.0,1.0,8.0,61.0,0.0,1.0,0.0,,,,,,,,,,,,,,,,,0,56,56,56,,,,,,,,,,,,,,,,,,,,,,,,,,,,,,,,,,,,,,,None,None,None,None,None,,18,001,2021_Oct_28_1500,eeg_contingent_digits,2021.2.3,60.02573903679031,
57.0,5.0,6.0,8.0,13.0,0.0,0.0,-2.650129110616078,,,,,,,,,,,,,,,,,0,57,57,57,0,0,0,0,,,,,,,,,,,,,,,,,,,,,1433.5504060999992,None,1433.5504060999992,None,0.005433939997601556,None,0.47763993999978993,None,0.9607425399990461,None,"['num_5', 'return']","[0.510359799998696, 0.8543675999972038]",1437.8654238999989,None,,,,,,,18,001,2021_Oct_28_1500,eeg_contingent_digits,2021.2.3,60.02573903679031,
57.0,5.0,6.0,8.0,13.0,0.0,0.0,-2.650129110616078,,,,,,,,,,,,,,,,,0,57,57,57,1,0,1,0,,,,,,,,,,,,,,,,,,,,,,,,,,,,,,,"['num_6', 'return']","[0.36275840000234894, 0.7467429000025732]",1438.7650452999987,None,,,,,,,18,001,2021_Oct_28_1500,eeg_contingent_digits,2021.2.3,60.02573903679031,
57.0,5.0,6.0,8.0,13.0,0.0,0.0,-2.650129110616078,,,,,,,,,,,,,,,,,0,57,57,57,2,0,2,0,,,,,,,,,,,,,,,,,,,,,,,,,,,,,,,"['num_8', 'return']","[0.5476741999991646, 0.9077056999994966]",1439.5480790999973,None,,,,,,,18,001,2021_Oct_28_1500,eeg_contingent_digits,2021.2.3,60.02573903679031,
57.0,5.0,6.0,8.0,13.0,0.0,0.0,-2.650129110616078,,,,,,,,,,,,,,,,,0,57,57,57,,,,,,,,,,,,,,,,,,,,,,,,,,,,,,,,,,,,,,,None,None,None,None,None,,18,001,2021_Oct_28_1500,eeg_contingent_digits,2021.2.3,60.02573903679031,
58.0,2.0,4.0,1.0,14.0,0.0,1.0,0.0,,,,,,,,,,,,,,,,,0,58,58,58,0,0,0,0,,,,,,,,,,,,,,,,,,,,,1440.514384799997,None,1440.514384799997,None,0.014030340000317665,None,0.4948118400025123,None,0.9778743400020176,None,"['num_2', 'return']","[0.5173022999988461, 0.8852488000011363]",1445.5624696999985,None,,,,,,,18,001,2021_Oct_28_1500,eeg_contingent_digits,2021.2.3,60.02573903679031,
58.0,2.0,4.0,1.0,14.0,0.0,1.0,0.0,,,,,,,,,,,,,,,,,0,58,58,58,1,0,1,0,,,,,,,,,,,,,,,,,,,,,,,,,,,,,,,"['num_4', 'return']","[0.3682550999983505, 0.696230800000194]",1446.495473699997,None,,,,,,,18,001,2021_Oct_28_1500,eeg_contingent_digits,2021.2.3,60.02573903679031,
58.0,2.0,4.0,1.0,14.0,0.0,1.0,0.0,,,,,,,,,,,,,,,,,0,58,58,58,2,0,2,0,,,,,,,,,,,,,,,,,,,,,,,,,,,,,,,"['num_1', 'return']","[0.30724759999793605, 0.6512250000014319]",1447.228485599997,None,,,,,,,18,001,2021_Oct_28_1500,eeg_contingent_digits,2021.2.3,60.02573903679031,
58.0,2.0,4.0,1.0,14.0,0.0,1.0,0.0,,,,,,,,,,,,,,,,,0,58,58,58,,,,,,,,,,,,,,,,,,,,,,,,,,,,,,,,,,,,,,,None,None,None,None,None,,18,001,2021_Oct_28_1500,eeg_contingent_digits,2021.2.3,60.02573903679031,
59.0,2.0,4.0,3.0,1.0,1.0,0.0,-21.616577633407438,,,,,,,,,,,,,,,,,0,59,59,59,0,0,0,0,,,,,,,,,,,,,,,,,,,,,1447.928240199999,None,1447.928240199999,None,0.010560350001469487,None,0.48781105000307434,None,0.970928950002417,None,"['num_8', 'return']","[0.7906135000012, 1.166589100001147]",1452.793076599999,None,,,,,,,18,001,2021_Oct_28_1500,eeg_contingent_digits,2021.2.3,60.02573903679031,
59.0,2.0,4.0,3.0,1.0,1.0,0.0,-21.616577633407438,,,,,,,,,,,,,,,,,0,59,59,59,1,0,1,0,,,,,,,,,,,,,,,,,,,,,,,,,,,,,,,"['num_4', 'return']","[0.34298860000126297, 0.7030040999998164]",1453.992631699999,None,,,,,,,18,001,2021_Oct_28_1500,eeg_contingent_digits,2021.2.3,60.02573903679031,
59.0,2.0,4.0,3.0,1.0,1.0,0.0,-21.616577633407438,,,,,,,,,,,,,,,,,0,59,59,59,2,0,2,0,,,,,,,,,,,,,,,,,,,,,,,,,,,,,,,"['num_8', 'return']","[0.3693156999979692, 0.6733798999994178]",1454.742294599997,None,,,,,,,18,001,2021_Oct_28_1500,eeg_contingent_digits,2021.2.3,60.02573903679031,
59.0,2.0,4.0,3.0,1.0,1.0,0.0,-21.616577633407438,,,,,,,,,,,,,,,,,0,59,59,59,,,,,,,,,,,,,,,,,,,,,,,,,,,,,,,,,,,,,,,None,None,None,None,None,,18,001,2021_Oct_28_1500,eeg_contingent_digits,2021.2.3,60.02573903679031,
60.0,0.0,1.0,9.0,13.0,0.0,1.0,0.0,,,,,,,,,,,,,,,,,0,60,60,60,0,0,0,0,,,,,,,,,,,,,,,,,,,,,1455.4753775999998,None,1455.4753775999998,None,0.011509439995279536,None,0.47307013999670744,None,0.9562725399955525,None,"['num_0', 'return']","[1.6601996999997937, 2.1401936000002024]",1538.0106929999965,None,,,,,,,18,001,2021_Oct_28_1500,eeg_contingent_digits,2021.2.3,60.02573903679031,
60.0,0.0,1.0,9.0,13.0,0.0,1.0,0.0,,,,,,,,,,,,,,,,,0,60,60,60,1,0,1,0,,,,,,,,,,,,,,,,,,,,,,,,,,,,,,,"['num_1', 'return']","[0.325645999997505, 0.6456727000004321]",1540.1932527999998,None,,,,,,,18,001,2021_Oct_28_1500,eeg_contingent_digits,2021.2.3,60.02573903679031,
60.0,0.0,1.0,9.0,13.0,0.0,1.0,0.0,,,,,,,,,,,,,,,,,0,60,60,60,2,0,2,0,,,,,,,,,,,,,,,,,,,,,,,,,,,,,,,"['num_9', 'return']","[0.3866411999988486, 0.794578699998965]",1540.8763192999977,None,,,,,,,18,001,2021_Oct_28_1500,eeg_contingent_digits,2021.2.3,60.02573903679031,
60.0,0.0,1.0,9.0,13.0,0.0,1.0,0.0,,,,,,,,,,,,,,,,,0,60,60,60,,,,,,,,,,,,,,,,,,,,,,,,,,,,,,,,,,,,,,,None,None,None,None,None,,18,001,2021_Oct_28_1500,eeg_contingent_digits,2021.2.3,60.02573903679031,
61.0,9.0,6.0,3.0,61.0,0.0,0.0,10.118609016089017,,,,,,,,,,,,,,,,,0,61,61,61,0,0,0,0,,,,,,,,,,,,,,,,,,,,,1541.7259541999993,None,1541.7259541999993,None,0.007048340001347242,None,0.4808939399990777,None,0.9473690400009218,None,"['num_0', 'return']","[0.8209201999998186, 1.3568892000002961]",1545.2579402999982,None,,,,,,,18,001,2021_Oct_28_1500,eeg_contingent_digits,2021.2.3,60.02573903679031,
61.0,9.0,6.0,3.0,61.0,0.0,0.0,10.118609016089017,,,,,,,,,,,,,,,,,0,61,61,61,1,0,1,0,,,,,,,,,,,,,,,,,,,,,,,,,,,,,,,"['num_6', 'return']","[0.3973210000003746, 0.7174654000009468]",1546.6574911999996,None,,,,,,,18,001,2021_Oct_28_1500,eeg_contingent_digits,2021.2.3,60.02573903679031,
61.0,9.0,6.0,3.0,61.0,0.0,0.0,10.118609016089017,,,,,,,,,,,,,,,,,0,61,61,61,2,0,2,0,,,,,,,,,,,,,,,,,,,,,,,,,,,,,,,"['num_3', 'return']","[0.3757115000007616, 0.8237103999999817]",1547.407121999997,None,,,,,,,18,001,2021_Oct_28_1500,eeg_contingent_digits,2021.2.3,60.02573903679031,
61.0,9.0,6.0,3.0,61.0,0.0,0.0,10.118609016089017,,,,,,,,,,,,,,,,,0,61,61,61,,,,,,,,,,,,,,,,,,,,,,,,,,,,,,,,,,,,,,,None,None,None,None,None,,18,001,2021_Oct_28_1500,eeg_contingent_digits,2021.2.3,60.02573903679031,
62.0,8.0,9.0,1.0,49.0,1.0,1.0,0.0,,,,,,,,,,,,,,,,,0,62,62,62,0,0,0,0,,,,,,,,,,,,,,,,,,,,,1548.2901579999998,None,1548.2901579999998,None,0.014134350003587315,None,0.4949214500011294,None,0.9781347500029369,None,"['num_8', 'return']","[0.9069882000003417, 1.4029508999992686]",1592.3234464999987,None,,,,,,,18,001,2021_Oct_28_1500,eeg_contingent_digits,2021.2.3,60.02573903679031,
62.0,8.0,9.0,1.0,49.0,1.0,1.0,0.0,,,,,,,,,,,,,,,,,0,62,62,62,1,0,1,0,,,,,,,,,,,,,,,,,,,,,,,,,,,,,,,"['num_0', 'return']","[0.3295765000002575, 0.6815190000015718]",1593.7728770999965,None,,,,,,,18,001,2021_Oct_28_1500,eeg_contingent_digits,2021.2.3,60.02573903679031,
62.0,8.0,9.0,1.0,49.0,1.0,1.0,0.0,,,,,,,,,,,,,,,,,0,62,62,62,2,0,2,0,,,,,,,,,,,,,,,,,,,,,,,,,,,,,,,"['num_1', 'return']","[0.3411740999981703, 0.6451927999987674]",1594.489227099999,None,,,,,,,18,001,2021_Oct_28_1500,eeg_contingent_digits,2021.2.3,60.02573903679031,
62.0,8.0,9.0,1.0,49.0,1.0,1.0,0.0,,,,,,,,,,,,,,,,,0,62,62,62,,,,,,,,,,,,,,,,,,,,,,,,,,,,,,,,,,,,,,,None,None,None,None,None,,18,001,2021_Oct_28_1500,eeg_contingent_digits,2021.2.3,60.02573903679031,
63.0,4.0,0.0,2.0,61.0,0.0,0.0,-5.6703911331422745,,,,,,,,,,,,,,,,,0,63,63,63,0,0,0,0,,,,,,,,,,,,,,,,,,,,,1595.1889804999992,None,1595.1889804999992,None,0.006234720000065863,None,0.4790578200008895,None,0.9622214200026065,None,"['num_0', 'return']","[0.40436200000112876, 0.6763792000019748]",1599.5539966999968,None,,,,,,,18,001,2021_Oct_28_1500,eeg_contingent_digits,2021.2.3,60.02573903679031,
63.0,4.0,0.0,2.0,61.0,0.0,0.0,-5.6703911331422745,,,,,,,,,,,,,,,,,0,63,63,63,1,0,1,0,,,,,,,,,,,,,,,,,,,,,,,,,,,,,,,"['num_0', 'return']","[0.2960674999994808, 0.6079810000010184]",1600.270378199999,None,,,,,,,18,001,2021_Oct_28_1500,eeg_contingent_digits,2021.2.3,60.02573903679031,
63.0,4.0,0.0,2.0,61.0,0.0,0.0,-5.6703911331422745,,,,,,,,,,,,,,,,,0,63,63,63,2,0,2,0,,,,,,,,,,,,,,,,,,,,,,,,,,,,,,,"['num_2', 'return']","[0.334182000002329, 0.6141845000020112]",1600.9201392999967,None,,,,,,,18,001,2021_Oct_28_1500,eeg_contingent_digits,2021.2.3,60.02573903679031,
63.0,4.0,0.0,2.0,61.0,0.0,0.0,-5.6703911331422745,,,,,,,,,,,,,,,,,0,63,63,63,,,,,,,,,,,,,,,,,,,,,,,,,,,,,,,,,,,,,,,None,None,None,None,None,,18,001,2021_Oct_28_1500,eeg_contingent_digits,2021.2.3,60.02573903679031,
64.0,3.0,0.0,5.0,49.0,0.0,1.0,0.0,,,,,,,,,,,,,,,,,0,64,64,64,0,0,0,0,,,,,,,,,,,,,,,,,,,,,1601.5865565999993,None,1601.5865565999993,None,0.009626050003134878,None,0.48595885000395356,None,0.9690978500038909,None,"['num_3', 'return']","[0.7191029000023264, 1.0631150000008347]",1642.8708505999966,None,,,,,,,18,001,2021_Oct_28_1500,eeg_contingent_digits,2021.2.3,60.02573903679031,
64.0,3.0,0.0,5.0,49.0,0.0,1.0,0.0,,,,,,,,,,,,,,,,,0,64,64,64,1,0,1,0,,,,,,,,,,,,,,,,,,,,,,,,,,,,,,,"['num_0', 'return']","[0.34744210000280873, 0.6674566000001505]",1643.970511899999,None,,,,,,,18,001,2021_Oct_28_1500,eeg_contingent_digits,2021.2.3,60.02573903679031,
64.0,3.0,0.0,5.0,49.0,0.0,1.0,0.0,,,,,,,,,,,,,,,,,0,64,64,64,2,0,2,0,,,,,,,,,,,,,,,,,,,,,,,,,,,,,,,"['num_5', 'return']","[0.34380569999848376, 0.6557797999994364]",1644.6701656999976,None,,,,,,,18,001,2021_Oct_28_1500,eeg_contingent_digits,2021.2.3,60.02573903679031,
64.0,3.0,0.0,5.0,49.0,0.0,1.0,0.0,,,,,,,,,,,,,,,,,0,64,64,64,,,,,,,,,,,,,,,,,,,,,,,,,,,,,,,,,,,,,,,None,None,None,None,None,,18,001,2021_Oct_28_1500,eeg_contingent_digits,2021.2.3,60.02573903679031,
65.0,0.0,6.0,8.0,21.0,0.0,0.0,-5.677240402811357,,,,,,,,,,,,,,,,,0,65,65,65,0,0,0,0,,,,,,,,,,,,,,,,,,,,,1645.3866046999974,None,1645.3866046999974,None,0.009917049999785377,None,0.4865621499993722,None,0.9696784500010835,None,"['num_0', 'return']","[0.44577879999997094, 0.9257465999980923]",1650.1681648999984,None,,,,,,,18,001,2021_Oct_28_1500,eeg_contingent_digits,2021.2.3,60.02573903679031,
65.0,0.0,6.0,8.0,21.0,0.0,0.0,-5.677240402811357,,,,,,,,,,,,,,,,,0,65,65,65,1,0,1,0,,,,,,,,,,,,,,,,,,,,,,,,,,,,,,,"['num_6', 'return']","[0.3435262999992119, 0.6715669000004709]",1651.1343828999998,None,,,,,,,18,001,2021_Oct_28_1500,eeg_contingent_digits,2021.2.3,60.02573903679031,
65.0,0.0,6.0,8.0,21.0,0.0,0.0,-5.677240402811357,,,,,,,,,,,,,,,,,0,65,65,65,2,0,2,0,,,,,,,,,,,,,,,,,,,,,,,,,,,,,,,"['num_8', 'return']","[0.37911699999676785, 0.7231431999971392]",1651.8507748999982,None,,,,,,,18,001,2021_Oct_28_1500,eeg_contingent_digits,2021.2.3,60.02573903679031,
65.0,0.0,6.0,8.0,21.0,0.0,0.0,-5.677240402811357,,,,,,,,,,,,,,,,,0,65,65,65,,,,,,,,,,,,,,,,,,,,,,,,,,,,,,,,,,,,,,,None,None,None,None,None,,18,001,2021_Oct_28_1500,eeg_contingent_digits,2021.2.3,60.02573903679031,
66.0,0.0,2.0,1.0,1.0,0.0,1.0,0.0,,,,,,,,,,,,,,,,,0,66,66,66,0,0,0,0,,,,,,,,,,,,,,,,,,,,,1652.6338497999968,None,1652.6338497999968,None,0.0024485299982188735,None,0.4881372300005751,None,0.9546319299988681,None,"['num_0', 'return']","[0.8216250000004948, 1.2457132000017737]",1671.1601207999993,None,,,,,,,18,001,2021_Oct_28_1500,eeg_contingent_digits,2021.2.3,60.02573903679031,
66.0,0.0,2.0,1.0,1.0,0.0,1.0,0.0,,,,,,,,,,,,,,,,,0,66,66,66,1,0,1,0,,,,,,,,,,,,,,,,,,,,,,,,,,,,,,,"['num_2', 'return']","[0.2987998999997217, 0.706780799999251]",1672.442955999999,None,,,,,,,18,001,2021_Oct_28_1500,eeg_contingent_digits,2021.2.3,60.02573903679031,
66.0,0.0,2.0,1.0,1.0,0.0,1.0,0.0,,,,,,,,,,,,,,,,,0,66,66,66,2,0,2,0,,,,,,,,,,,,,,,,,,,,,,,,,,,,,,,"['num_1', 'return']","[0.9809863999980735, 1.7089740999981586]",1673.1927153999968,None,,,,,,,18,001,2021_Oct_28_1500,eeg_contingent_digits,2021.2.3,60.02573903679031,
66.0,0.0,2.0,1.0,1.0,0.0,1.0,0.0,,,,,,,,,,,,,,,,,0,66,66,66,,,,,,,,,,,,,,,,,,,,,,,,,,,,,,,,,,,,,,,None,None,None,None,None,,18,001,2021_Oct_28_1500,eeg_contingent_digits,2021.2.3,60.02573903679031,
67.0,5.0,2.0,9.0,49.0,1.0,0.0,6.803127031071959,,,,,,,,,,,,,,,,,0,67,67,67,0,0,0,0,,,,,,,,,,,,,,,,,,,,,1674.9586678999985,None,1674.9586678999985,None,0.015580020000925288,None,0.4975716199987801,None,0.9807596200007538,None,"['num_5', 'return']","[0.8935654000015347, 1.509541800001898]",1678.4240907999992,None,,,,,,,18,001,2021_Oct_28_1500,eeg_contingent_digits,2021.2.3,60.02573903679031,
67.0,5.0,2.0,9.0,49.0,1.0,0.0,6.803127031071959,,,,,,,,,,,,,,,,,0,67,67,67,1,0,1,0,,,,,,,,,,,,,,,,,,,,,,,,,,,,,,,"['num_3', 'num_2', 'return']","[0.5762287999968976, 3.4001818999968236, 3.712190799997188]",1679.9734389999976,None,,,,,,,18,001,2021_Oct_28_1500,eeg_contingent_digits,2021.2.3,60.02573903679031,
67.0,5.0,2.0,9.0,49.0,1.0,0.0,6.803127031071959,,,,,,,,,,,,,,,,,0,67,67,67,2,0,2,0,,,,,,,,,,,,,,,,,,,,,,,,,,,,,,,"['num_9', 'return']","[0.41163500000038766, 0.76361960000213]",1683.722010399997,None,,,,,,,18,001,2021_Oct_28_1500,eeg_contingent_digits,2021.2.3,60.02573903679031,
67.0,5.0,2.0,9.0,49.0,1.0,0.0,6.803127031071959,,,,,,,,,,,,,,,,,0,67,67,67,,,,,,,,,,,,,,,,,,,,,,,,,,,,,,,,,,,,,,,None,None,None,None,None,,18,001,2021_Oct_28_1500,eeg_contingent_digits,2021.2.3,60.02573903679031,
68.0,5.0,0.0,8.0,61.0,0.0,1.0,0.0,,,,,,,,,,,,,,,,,0,68,68,68,0,0,0,0,,,,,,,,,,,,,,,,,,,,,1684.5384165999967,None,1684.5384165999967,None,0.009900639997795224,None,0.4865272399983951,None,0.9696718399973179,None,"['num_5', 'return']","[1.4502959999990708, 1.9223989999991318]",1699.6992533999983,None,,,,,,,18,001,2021_Oct_28_1500,eeg_contingent_digits,2021.2.3,60.02573903679031,
68.0,5.0,0.0,8.0,61.0,0.0,1.0,0.0,,,,,,,,,,,,,,,,,0,68,68,68,1,0,1,0,,,,,,,,,,,,,,,,,,,,,,,,,,,,,,,"['num_1', 'num_0', 'return']","[0.3963144999979704, 10.604193499999383, 12.156192899998132]",1701.665189299998,None,,,,,,,18,001,2021_Oct_28_1500,eeg_contingent_digits,2021.2.3,60.02573903679031,
68.0,5.0,0.0,8.0,61.0,0.0,1.0,0.0,,,,,,,,,,,,,,,,,0,68,68,68,2,0,2,0,,,,,,,,,,,,,,,,,,,,,,,,,,,,,,,"['num_8', 'return']","[1.0887320000001637, 1.3767595999997866]",1713.8605944999981,None,,,,,,,18,001,2021_Oct_28_1500,eeg_contingent_digits,2021.2.3,60.02573903679031,
68.0,5.0,0.0,8.0,61.0,0.0,1.0,0.0,,,,,,,,,,,,,,,,,0,68,68,68,,,,,,,,,,,,,,,,,,,,,,,,,,,,,,,,,,,,,,,None,None,None,None,None,,18,001,2021_Oct_28_1500,eeg_contingent_digits,2021.2.3,60.02573903679031,
69.0,2.0,9.0,1.0,21.0,0.0,0.0,6.6840246486576405,,,,,,,,,,,,,,,,,0,69,69,69,0,0,0,0,,,,,,,,,,,,,,,,,,,,,1715.293345799997,None,1715.293345799997,None,0.009860910002316814,None,0.48626631000297493,None,0.9694075100014743,None,"['num_2', 'return']","[0.18333329999950365, 0.9033001999996486]",1718.742030399997,None,,,,,,,18,001,2021_Oct_28_1500,eeg_contingent_digits,2021.2.3,60.02573903679031,
69.0,2.0,9.0,1.0,21.0,0.0,0.0,6.6840246486576405,,,,,,,,,,,,,,,,,0,69,69,69,1,0,1,0,,,,,,,,,,,,,,,,,,,,,,,,,,,,,,,"['num_9', 'return']","[0.3776046999992104, 0.761645700000372]",1719.6916687999983,None,,,,,,,18,001,2021_Oct_28_1500,eeg_contingent_digits,2021.2.3,60.02573903679031,
69.0,2.0,9.0,1.0,21.0,0.0,0.0,6.6840246486576405,,,,,,,,,,,,,,,,,0,69,69,69,2,0,2,0,,,,,,,,,,,,,,,,,,,,,,,,,,,,,,,"['num_1', 'return']","[0.4259375000001455, 0.8259427000011783]",1720.4913630999981,None,,,,,,,18,001,2021_Oct_28_1500,eeg_contingent_digits,2021.2.3,60.02573903679031,
69.0,2.0,9.0,1.0,21.0,0.0,0.0,6.6840246486576405,,,,,,,,,,,,,,,,,0,69,69,69,,,,,,,,,,,,,,,,,,,,,,,,,,,,,,,,,,,,,,,1721.4077240999977,None,return,1721.4077240999977,None,82.0128267,18,001,2021_Oct_28_1500,eeg_contingent_digits,2021.2.3,60.02573903679031,
70.0,2.0,1.0,3.0,10.0,0.0,1.0,0.0,,,,,,,,,,,,,,,,,0,70,70,70,0,0,0,0,,,,,,,,,,,,,,,,,,,,,1803.459877399997,None,1803.459877399997,None,0.009698009998828638,None,0.4859554099966772,None,0.985743809997075,None,"['num_2', 'return']","[0.73188300000038, 1.1639117000013357]",1812.0566029999973,None,,,,,,,18,001,2021_Oct_28_1500,eeg_contingent_digits,2021.2.3,60.02573903679031,
70.0,2.0,1.0,3.0,10.0,0.0,1.0,0.0,,,,,,,,,,,,,,,,,0,70,70,70,1,0,1,0,,,,,,,,,,,,,,,,,,,,,,,,,,,,,,,"['num_1', 'return']","[0.3723389999977371, 0.724340900000243]",1813.2561410999988,None,,,,,,,18,001,2021_Oct_28_1500,eeg_contingent_digits,2021.2.3,60.02573903679031,
70.0,2.0,1.0,3.0,10.0,0.0,1.0,0.0,,,,,,,,,,,,,,,,,0,70,70,70,2,0,2,0,,,,,,,,,,,,,,,,,,,,,,,,,,,,,,,"['num_3', 'return']","[0.30200870000044233, 0.7020158999985142]",1814.0224513999965,None,,,,,,,18,001,2021_Oct_28_1500,eeg_contingent_digits,2021.2.3,60.02573903679031,
70.0,2.0,1.0,3.0,10.0,0.0,1.0,0.0,,,,,,,,,,,,,,,,,0,70,70,70,,,,,,,,,,,,,,,,,,,,,,,,,,,,,,,,,,,,,,,None,None,None,None,None,,18,001,2021_Oct_28_1500,eeg_contingent_digits,2021.2.3,60.02573903679031,
71.0,6.0,2.0,5.0,21.0,1.0,0.0,-8.795376303043874,,,,,,,,,,,,,,,,,0,71,71,71,0,0,0,0,,,,,,,,,,,,,,,,,,,,,1814.7889313999985,None,1814.7889313999985,None,0.015707020000263583,None,0.49798201999874436,None,0.981162719999702,None,"['num_6', 'return']","[0.4542449000000488, 0.9982637000030081]",1818.2541977999972,None,,,,,,,18,001,2021_Oct_28_1500,eeg_contingent_digits,2021.2.3,60.02573903679031,
71.0,6.0,2.0,5.0,21.0,1.0,0.0,-8.795376303043874,,,,,,,,,,,,,,,,,0,71,71,71,1,0,1,0,,,,,,,,,,,,,,,,,,,,,,,,,,,,,,,"['num_3', 'return']","[0.5812289999994391, 0.877179499999329]",1819.2872192999967,None,,,,,,,18,001,2021_Oct_28_1500,eeg_contingent_digits,2021.2.3,60.02573903679031,
71.0,6.0,2.0,5.0,21.0,1.0,0.0,-8.795376303043874,,,,,,,,,,,,,,,,,0,71,71,71,2,0,2,0,,,,,,,,,,,,,,,,,,,,,,,,,,,,,,,"['num_5', 'return']","[0.3609424999995099, 0.7289034000023094]",1820.2034940999984,None,,,,,,,18,001,2021_Oct_28_1500,eeg_contingent_digits,2021.2.3,60.02573903679031,
71.0,6.0,2.0,5.0,21.0,1.0,0.0,-8.795376303043874,,,,,,,,,,,,,,,,,0,71,71,71,,,,,,,,,,,,,,,,,,,,,,,,,,,,,,,,,,,,,,,None,None,None,None,None,,18,001,2021_Oct_28_1500,eeg_contingent_digits,2021.2.3,60.02573903679031,
72.0,1.0,6.0,4.0,13.0,0.0,1.0,0.0,,,,,,,,,,,,,,,,,0,72,72,72,0,0,0,0,,,,,,,,,,,,,,,,,,,,,1820.986602699999,None,1820.986602699999,None,0.00974531000611023,None,0.48604691000582534,None,0.9692044100047497,None,"['num_1', 'return']","[0.6352862999992794, 1.027272899998934]",1826.8010484999977,None,,,,,,,18,001,2021_Oct_28_1500,eeg_contingent_digits,2021.2.3,60.02573903679031,
72.0,1.0,6.0,4.0,13.0,0.0,1.0,0.0,,,,,,,,,,,,,,,,,0,72,72,72,1,0,1,0,,,,,,,,,,,,,,,,,,,,,,,,,,,,,,,"['num_6', 'return']","[0.32908189999943716, 0.6490653000000748]",1827.8672743999996,None,,,,,,,18,001,2021_Oct_28_1500,eeg_contingent_digits,2021.2.3,60.02573903679031,
72.0,1.0,6.0,4.0,13.0,0.0,1.0,0.0,,,,,,,,,,,,,,,,,0,72,72,72,2,0,2,0,,,,,,,,,,,,,,,,,,,,,,,,,,,,,,,"['num_4', 'return']","[0.32597979999991367, 0.7260032999984105]",1828.5503445999966,None,,,,,,,18,001,2021_Oct_28_1500,eeg_contingent_digits,2021.2.3,60.02573903679031,
72.0,1.0,6.0,4.0,13.0,0.0,1.0,0.0,,,,,,,,,,,,,,,,,0,72,72,72,,,,,,,,,,,,,,,,,,,,,,,,,,,,,,,,,,,,,,,None,None,None,None,None,,18,001,2021_Oct_28_1500,eeg_contingent_digits,2021.2.3,60.02573903679031,
73.0,4.0,1.0,3.0,48.0,1.0,0.0,-21.42926758900542,,,,,,,,,,,,,,,,,0,73,73,73,0,0,0,0,,,,,,,,,,,,,,,,,,,,,1829.3333798999993,None,1829.3333798999993,None,0.013718320002226392,None,0.4940944199988735,None,0.9771446199993079,None,"['num_4', 'return']","[0.9255579999990005, 1.2775875000006636]",1832.7987229999999,None,,,,,,,18,001,2021_Oct_28_1500,eeg_contingent_digits,2021.2.3,60.02573903679031,
73.0,4.0,1.0,3.0,48.0,1.0,0.0,-21.42926758900542,,,,,,,,,,,,,,,,,0,73,73,73,1,0,1,0,,,,,,,,,,,,,,,,,,,,,,,,,,,,,,,"['num_1', 'return']","[0.28950699999768403, 0.6654030999998213]",1834.1148989999965,None,,,,,,,18,001,2021_Oct_28_1500,eeg_contingent_digits,2021.2.3,60.02573903679031,
73.0,4.0,1.0,3.0,48.0,1.0,0.0,-21.42926758900542,,,,,,,,,,,,,,,,,0,73,73,73,2,0,2,0,,,,,,,,,,,,,,,,,,,,,,,,,,,,,,,"['num_3', 'return']","[0.2856530000026396, 0.6136046999999962]",1834.8146630999981,None,,,,,,,18,001,2021_Oct_28_1500,eeg_contingent_digits,2021.2.3,60.02573903679031,
73.0,4.0,1.0,3.0,48.0,1.0,0.0,-21.42926758900542,,,,,,,,,,,,,,,,,0,73,73,73,,,,,,,,,,,,,,,,,,,,,,,,,,,,,,,,,,,,,,,None,None,None,None,None,,18,001,2021_Oct_28_1500,eeg_contingent_digits,2021.2.3,60.02573903679031,
74.0,4.0,6.0,9.0,21.0,0.0,1.0,0.0,,,,,,,,,,,,,,,,,0,74,74,74,0,0,0,0,,,,,,,,,,,,,,,,,,,,,1835.4810289999987,None,1835.4810289999987,None,0.009287609998864355,None,0.48512521000156994,None,0.9516615100001218,None,"['num_4', 'return']","[0.604049199999281, 0.9800786999985576]",1841.3121784999967,None,,,,,,,18,001,2021_Oct_28_1500,eeg_contingent_digits,2021.2.3,60.02573903679031,
74.0,4.0,6.0,9.0,21.0,0.0,1.0,0.0,,,,,,,,,,,,,,,,,0,74,74,74,1,0,1,0,,,,,,,,,,,,,,,,,,,,,,,,,,,,,,,"['num_6', 'return']","[1.0517926000029547, 1.3958066000013787]",1842.3284263999994,None,,,,,,,18,001,2021_Oct_28_1500,eeg_contingent_digits,2021.2.3,60.02573903679031,
74.0,4.0,6.0,9.0,21.0,0.0,1.0,0.0,,,,,,,,,,,,,,,,,0,74,74,74,2,0,2,0,,,,,,,,,,,,,,,,,,,,,,,,,,,,,,,"['num_9', 'return']","[0.3629462999997486, 0.6749382999987574]",1843.7612684999986,None,,,,,,,18,001,2021_Oct_28_1500,eeg_contingent_digits,2021.2.3,60.02573903679031,
74.0,4.0,6.0,9.0,21.0,0.0,1.0,0.0,,,,,,,,,,,,,,,,,0,74,74,74,,,,,,,,,,,,,,,,,,,,,,,,,,,,,,,,,,,,,,,None,None,None,None,None,,18,001,2021_Oct_28_1500,eeg_contingent_digits,2021.2.3,60.02573903679031,
75.0,6.0,1.0,9.0,21.0,0.0,0.0,11.29470953444472,,,,,,,,,,,,,,,,,0,75,75,75,0,0,0,0,,,,,,,,,,,,,,,,,,,,,1844.4942924999996,None,1844.4942924999996,None,0.009412710001925007,None,0.4854597100020328,None,0.9685495100020489,None,"['num_6', 'return']","[0.741176199997426, 1.109204199998203]",1847.9429900999967,None,,,,,,,18,001,2021_Oct_28_1500,eeg_contingent_digits,2021.2.3,60.02573903679031,
75.0,6.0,1.0,9.0,21.0,0.0,0.0,11.29470953444472,,,,,,,,,,,,,,,,,0,75,75,75,1,0,1,0,,,,,,,,,,,,,,,,,,,,,,,,,,,,,,,"['num_1', 'return']","[0.35962129999825265, 0.6716091999987839]",1849.092557,None,,,,,,,18,001,2021_Oct_28_1500,eeg_contingent_digits,2021.2.3,60.02573903679031,
75.0,6.0,1.0,9.0,21.0,0.0,0.0,11.29470953444472,,,,,,,,,,,,,,,,,0,75,75,75,2,0,2,0,,,,,,,,,,,,,,,,,,,,,,,,,,,,,,,"['num_9', 'return']","[0.31521690000226954, 0.6432844000009936]",1849.8089077999975,None,,,,,,,18,001,2021_Oct_28_1500,eeg_contingent_digits,2021.2.3,60.02573903679031,
75.0,6.0,1.0,9.0,21.0,0.0,0.0,11.29470953444472,,,,,,,,,,,,,,,,,0,75,75,75,,,,,,,,,,,,,,,,,,,,,,,,,,,,,,,,,,,,,,,None,None,None,None,None,,18,001,2021_Oct_28_1500,eeg_contingent_digits,2021.2.3,60.02573903679031,
76.0,5.0,2.0,0.0,10.0,1.0,1.0,0.0,,,,,,,,,,,,,,,,,0,76,76,76,0,0,0,0,,,,,,,,,,,,,,,,,,,,,1850.5253841999984,None,1850.5253841999984,None,0.009586920001311228,None,0.4857696199978818,None,0.9855278200011526,None,"['num_5', 'return']","[0.9578456999988703, 1.8538502999981574]",1857.0062454,None,,,,,,,18,001,2021_Oct_28_1500,eeg_contingent_digits,2021.2.3,60.02573903679031,
76.0,5.0,2.0,0.0,10.0,1.0,1.0,0.0,,,,,,,,,,,,,,,,,0,76,76,76,1,0,1,0,,,,,,,,,,,,,,,,,,,,,,,,,,,,,,,"['num_2', 'return']","[1.706614200000331, 2.0746003999993263]",1858.905458199999,None,,,,,,,18,001,2021_Oct_28_1500,eeg_contingent_digits,2021.2.3,60.02573903679031,
76.0,5.0,2.0,0.0,10.0,1.0,1.0,0.0,,,,,,,,,,,,,,,,,0,76,76,76,2,0,2,0,,,,,,,,,,,,,,,,,,,,,,,,,,,,,,,"['num_9', 'return']","[0.3347088000009535, 0.6946984999995038]",1861.0213508999987,None,,,,,,,18,001,2021_Oct_28_1500,eeg_contingent_digits,2021.2.3,60.02573903679031,
76.0,5.0,2.0,0.0,10.0,1.0,1.0,0.0,,,,,,,,,,,,,,,,,0,76,76,76,,,,,,,,,,,,,,,,,,,,,,,,,,,,,,,,,,,,,,,None,None,None,None,None,,18,001,2021_Oct_28_1500,eeg_contingent_digits,2021.2.3,60.02573903679031,
