TrialID,NFB_digit1,NFB_digit2,NFB_digit3,practice_block.thisRepN,practice_block.thisTrialN,practice_block.thisN,practice_block.thisIndex,practice_trials.thisRepN,practice_trials.thisTrialN,practice_trials.thisN,practice_trials.thisIndex,response_practice.thisRepN,response_practice.thisTrialN,response_practice.thisN,response_practice.thisIndex,calibration_block.thisRepN,calibration_block.thisTrialN,calibration_block.thisN,calibration_block.thisIndex,experimental_block.thisRepN,experimental_block.thisTrialN,experimental_block.thisN,experimental_block.thisIndex,exp_trials.thisRepN,exp_trials.thisTrialN,exp_trials.thisN,exp_trials.thisIndex,Digit1_clear.started,Digit1_clear.stopped,Digit2_clear.started,Digit2_clear.stopped,Digit3_clear.started,Digit3_clear.stopped,key_resp_3.keys,key_resp_3.rt,key_resp_3.started,key_resp_3.stopped,text_4.started,text_4.stopped,text_5.started,text_5.stopped,Begin.started,Begin.stopped,participant,session,date,expName,psychopyVersion,frameRate,
0.0,6.0,2.0,4.0,0,0,0,0,0,0,0,0,0,0,0,0,,,,,,,,,,,,,0.0009845799941103905,None,0.4734648799931165,None,0.9520220800186507,None,"['num_4', 'return']","[0.5176129000028595, 0.709768200002145]",26.908188100002008,None,,,,,,,1,001,2021_Oct_22_1555,eeg_contingent_digits,2021.2.3,59.859450003878905,
0.0,6.0,2.0,4.0,0,0,0,0,0,0,0,0,1,0,1,0,,,,,,,,,,,,,,,,,,,"['num_4', 'return']","[0.10136609998880886, 0.28511779999826103]",27.65197090001311,None,,,,,,,1,001,2021_Oct_22_1555,eeg_contingent_digits,2021.2.3,59.859450003878905,
0.0,6.0,2.0,4.0,0,0,0,0,0,0,0,0,2,0,2,0,,,,,,,,,,,,,,,,,,,"['num_4', 'return']","[0.07199599998421036, 0.529045999981463]",27.969172899989644,None,,,,,,,1,001,2021_Oct_22_1555,eeg_contingent_digits,2021.2.3,59.859450003878905,
0.0,6.0,2.0,4.0,0,0,0,0,0,0,0,0,,,,,,,,,,,,,,,,,,,,,,,,,,,,,,,,,1,001,2021_Oct_22_1555,eeg_contingent_digits,2021.2.3,59.859450003878905,
1.0,1.0,9.0,3.0,0,0,0,0,0,1,1,1,0,0,0,0,,,,,,,,,,,,,0.006177379982545972,None,0.47816527998656966,None,0.9451535799889825,None,"['num_4', 'return']","[0.4131947999994736, 0.5415640999854077]",29.964109599997755,None,,,,,,,1,001,2021_Oct_22_1555,eeg_contingent_digits,2021.2.3,59.859450003878905,
1.0,1.0,9.0,3.0,0,0,0,0,0,1,1,1,1,0,1,0,,,,,,,,,,,,,,,,,,,"['num_4', 'return']","[0.10288210000726394, 0.24836950001190417]",30.538171199994395,None,,,,,,,1,001,2021_Oct_22_1555,eeg_contingent_digits,2021.2.3,59.859450003878905,
1.0,1.0,9.0,3.0,0,0,0,0,0,1,1,1,2,0,2,0,,,,,,,,,,,,,,,,,,,"['num_4', 'return']","[0.09396229998674244, 0.2049107999773696]",30.805056899989722,None,,,,,,,1,001,2021_Oct_22_1555,eeg_contingent_digits,2021.2.3,59.859450003878905,
1.0,1.0,9.0,3.0,0,0,0,0,0,1,1,1,,,,,,,,,,,,,,,,,,,,,,,,,,,,,,,,,1,001,2021_Oct_22_1555,eeg_contingent_digits,2021.2.3,59.859450003878905,
2.0,8.0,0.0,1.0,0,0,0,0,0,2,2,2,0,0,0,0,,,,,,,,,,,,,0.007630680047441274,None,0.4818514800281264,None,0.9651252800249495,None,"['num_4', 'return']","[0.3848623000085354, 0.4880830000038259]",32.48165470000822,None,,,,,,,1,001,2021_Oct_22_1555,eeg_contingent_digits,2021.2.3,59.859450003878905,
2.0,8.0,0.0,1.0,0,0,0,0,0,2,2,2,1,0,1,0,,,,,,,,,,,,,,,,,,,"['num_4', 'return']","[0.13177370000630617, 0.24392229999648407]",32.99012249999214,None,,,,,,,1,001,2021_Oct_22_1555,eeg_contingent_digits,2021.2.3,59.859450003878905,
2.0,8.0,0.0,1.0,0,0,0,0,0,2,2,2,2,0,2,0,,,,,,,,,,,,,,,,,,,"['num_4', 'return']","[0.112564500013832, 0.21029869999620132]",33.25745659999666,None,,,,,,,1,001,2021_Oct_22_1555,eeg_contingent_digits,2021.2.3,59.859450003878905,
2.0,8.0,0.0,1.0,0,0,0,0,0,2,2,2,,,,,,,,,,,,,,,,,,,,,,,,,,,,,,,,,1,001,2021_Oct_22_1555,eeg_contingent_digits,2021.2.3,59.859450003878905,
3.0,9.0,6.0,1.0,0,0,0,0,0,3,3,3,0,0,0,0,,,,,,,,,,,,,0.008124180021695793,None,0.48159178002970293,None,0.9699259800254367,None,"['num_4', 'return']","[0.3138199000095483, 0.44246570000541396]",34.935324199992465,None,,,,,,,1,001,2021_Oct_22_1555,eeg_contingent_digits,2021.2.3,59.859450003878905,
3.0,9.0,6.0,1.0,0,0,0,0,0,3,3,3,1,0,1,0,,,,,,,,,,,,,,,,,,,"['num_4', 'return']","[0.08012040000176057, 0.2085984000004828]",35.40974490001099,None,,,,,,,1,001,2021_Oct_22_1555,eeg_contingent_digits,2021.2.3,59.859450003878905,
3.0,9.0,6.0,1.0,0,0,0,0,0,3,3,3,2,0,2,0,,,,,,,,,,,,,,,,,,,"['num_4', 'return']","[0.07095480000134557, 0.17741609999211505]",35.64234600000782,None,,,,,,,1,001,2021_Oct_22_1555,eeg_contingent_digits,2021.2.3,59.859450003878905,
3.0,9.0,6.0,1.0,0,0,0,0,0,3,3,3,,,,,,,,,,,,,,,,,,,,,,,,,,,,,,,,,1,001,2021_Oct_22_1555,eeg_contingent_digits,2021.2.3,59.859450003878905,
4.0,8.0,1.0,5.0,0,0,0,0,0,4,4,4,0,0,0,0,,,,,,,,,,,,,0.010052480007288978,None,0.4874746800051071,None,0.9546080800064374,None,"['num_4', 'return']","[0.30293819998041727, 0.39044379998813383]",37.28343069998664,None,,,,,,,1,001,2021_Oct_22_1555,eeg_contingent_digits,2021.2.3,59.859450003878905,
4.0,8.0,1.0,5.0,0,0,0,0,0,4,4,4,1,0,1,0,,,,,,,,,,,,,,,,,,,"['num_4', 'return']","[0.1163585000031162, 0.227681999997003]",37.693908299988834,None,,,,,,,1,001,2021_Oct_22_1555,eeg_contingent_digits,2021.2.3,59.859450003878905,
4.0,8.0,1.0,5.0,0,0,0,0,0,4,4,4,2,0,2,0,,,,,,,,,,,,,,,,,,,"['num_4', 'return']","[0.0892628000001423, 0.16145049998885952]",37.94411300000502,None,,,,,,,1,001,2021_Oct_22_1555,eeg_contingent_digits,2021.2.3,59.859450003878905,
4.0,8.0,1.0,5.0,0,0,0,0,0,4,4,4,,,,,,,,,,,,,,,,,,,,,,,,,,,,,,,,,1,001,2021_Oct_22_1555,eeg_contingent_digits,2021.2.3,59.859450003878905,
5.0,4.0,1.0,0.0,0,0,0,0,0,5,5,5,0,0,0,0,,,,,,,,,,,,,0.01664156001061201,None,0.48436736001167446,None,0.9513507600058801,None,"['num_4', 'return']","[0.2949203999887686, 0.3907479999761563]",39.578826500015566,None,,,,,,,1,001,2021_Oct_22_1555,eeg_contingent_digits,2021.2.3,59.859450003878905,
5.0,4.0,1.0,0.0,0,0,0,0,0,5,5,5,1,0,1,0,,,,,,,,,,,,,,,,,,,"['num_4', 'return']","[0.08585539998603053, 0.19799600000260398]",39.99589869999909,None,,,,,,,1,001,2021_Oct_22_1555,eeg_contingent_digits,2021.2.3,59.859450003878905,
5.0,4.0,1.0,0.0,0,0,0,0,0,5,5,5,2,0,2,0,,,,,,,,,,,,,,,,,,,"['num_4', 'return']","[0.05951880000066012, 0.19438470000750385]",40.2155788000091,None,,,,,,,1,001,2021_Oct_22_1555,eeg_contingent_digits,2021.2.3,59.859450003878905,
5.0,4.0,1.0,0.0,0,0,0,0,0,5,5,5,,,,,,,,,,,,,,,,,,,,,,,,,,,,,,,,,1,001,2021_Oct_22_1555,eeg_contingent_digits,2021.2.3,59.859450003878905,
6.0,9.0,2.0,6.0,0,0,0,0,0,6,6,6,0,0,0,0,,,,,,,,,,,,,0.008283379982458428,None,0.4825322800024878,None,0.9663991800043732,None,"['num_4', 'return']","[0.4658140999963507, 0.5852663000114262]",41.880440200009616,None,,,,,,,1,001,2021_Oct_22_1555,eeg_contingent_digits,2021.2.3,59.859450003878905,
6.0,9.0,2.0,6.0,0,0,0,0,0,6,6,6,1,0,1,0,,,,,,,,,,,,,,,,,,,"['num_4', 'return']","[0.06397659998037852, 0.18362959998194128]",42.49820180001552,None,,,,,,,1,001,2021_Oct_22_1555,eeg_contingent_digits,2021.2.3,59.859450003878905,
6.0,9.0,2.0,6.0,0,0,0,0,0,6,6,6,2,0,2,0,,,,,,,,,,,,,,,,,,,"['num_4', 'return']","[0.04881169999134727, 0.15955820001545362]",42.714851600001566,None,,,,,,,1,001,2021_Oct_22_1555,eeg_contingent_digits,2021.2.3,59.859450003878905,
6.0,9.0,2.0,6.0,0,0,0,0,0,6,6,6,,,,,,,,,,,,,,,,,,,,,,,,,,,,,,,,,1,001,2021_Oct_22_1555,eeg_contingent_digits,2021.2.3,59.859450003878905,
7.0,2.0,3.0,0.0,0,0,0,0,0,7,7,7,0,0,0,0,,,,,,,,,,,,,0.007808680005837232,None,0.4806286800012458,None,0.9476504799968097,None,"['num_4', 'return']","[0.32512180000776425, 0.4445962000172585]",44.34104619998834,None,,,,,,,1,001,2021_Oct_22_1555,eeg_contingent_digits,2021.2.3,59.859450003878905,
7.0,2.0,3.0,0.0,0,0,0,0,0,7,7,7,1,0,1,0,,,,,,,,,,,,,,,,,,,"['num_4', 'return']","[0.07164619999821298, 0.18374159999075346]",44.817742299987,None,,,,,,,1,001,2021_Oct_22_1555,eeg_contingent_digits,2021.2.3,59.859450003878905,
7.0,2.0,3.0,0.0,0,0,0,0,0,7,7,7,2,0,2,0,,,,,,,,,,,,,,,,,,,"['num_4', 'return']","[0.04839060001540929, 0.15259420001530088]",45.03332539999974,None,,,,,,,1,001,2021_Oct_22_1555,eeg_contingent_digits,2021.2.3,59.859450003878905,
7.0,2.0,3.0,0.0,0,0,0,0,0,7,7,7,,,,,,,,,,,,,,,,,,,,,,,,,,,,,,,,,1,001,2021_Oct_22_1555,eeg_contingent_digits,2021.2.3,59.859450003878905,
8.0,1.0,9.0,2.0,0,0,0,0,0,8,8,8,0,0,0,0,,,,,,,,,,,,,0.01024768003844656,None,0.46889138003461994,None,0.9527043800335377,None,"['num_4', 'return']","[0.34149799999431707, 0.45266629999969155]",46.65253729998949,None,,,,,,,1,001,2021_Oct_22_1555,eeg_contingent_digits,2021.2.3,59.859450003878905,
8.0,1.0,9.0,2.0,0,0,0,0,0,8,8,8,1,0,1,0,,,,,,,,,,,,,,,,,,,"['num_4', 'return']","[0.07294169999659061, 0.17723929998464882]",47.13646440001321,None,,,,,,,1,001,2021_Oct_22_1555,eeg_contingent_digits,2021.2.3,59.859450003878905,
8.0,1.0,9.0,2.0,0,0,0,0,0,8,8,8,2,0,2,0,,,,,,,,,,,,,,,,,,,"['num_4', 'return']","[0.08199490001425147, 0.1700618999893777]",47.335477699991316,None,,,,,,,1,001,2021_Oct_22_1555,eeg_contingent_digits,2021.2.3,59.859450003878905,
8.0,1.0,9.0,2.0,0,0,0,0,0,8,8,8,,,,,,,,,,,,,,,,,,,,,,,,,,,,,,,,,1,001,2021_Oct_22_1555,eeg_contingent_digits,2021.2.3,59.859450003878905,
9.0,8.0,1.0,0.0,0,0,0,0,0,9,9,9,0,0,0,0,,,,,,,,,,,,,0.0054857800132595,None,0.4776094800035935,None,0.9613530800270382,None,"['num_4', 'return']","[0.2703355999838095, 0.3672706999932416]",48.98661880000145,None,,,,,,,1,001,2021_Oct_22_1555,eeg_contingent_digits,2021.2.3,59.859450003878905,
9.0,8.0,1.0,0.0,0,0,0,0,0,9,9,9,1,0,1,0,,,,,,,,,,,,,,,,,,,"['num_4', 'return']","[0.0782024999789428, 0.18210869998438284]",49.387733100011246,None,,,,,,,1,001,2021_Oct_22_1555,eeg_contingent_digits,2021.2.3,59.859450003878905,
9.0,8.0,1.0,0.0,0,0,0,0,0,9,9,9,2,0,2,0,,,,,,,,,,,,,,,,,,,"['num_4', 'return']","[0.06726979999803007, 0.14750209997873753]",49.590330200007884,None,,,,,,,1,001,2021_Oct_22_1555,eeg_contingent_digits,2021.2.3,59.859450003878905,
9.0,8.0,1.0,0.0,0,0,0,0,0,9,9,9,,,,,,,,,,,,,,,,,,,,,,,,,,,,,,,,,1,001,2021_Oct_22_1555,eeg_contingent_digits,2021.2.3,59.859450003878905,
,,,,0,0,0,0,,,,,,,,,,,,,,,,,,,,,,,,,,,,,,,49.769381299993256,None,,,,,1,001,2021_Oct_22_1555,eeg_contingent_digits,2021.2.3,59.859450003878905,
,,,,,,,,,,,,,,,,0,0,0,0,,,,,,,,,,,,,,,,,,,,,66.41955469999812,None,,,1,001,2021_Oct_22_1555,eeg_contingent_digits,2021.2.3,59.859450003878905,
,,,,,,,,,,,,,,,,,,,,,,,,,,,,,,,,,,,,,,,,,,76.4231557000021,None,,,,,,,
