audiofile,trials.thisRepN,trials.thisTrialN,trials.thisN,trials.thisIndex,instrTrainText.started,instrTrainText.stopped,blockStart.started,blockStart.stopped,sound_1.started,sound_1.stopped,fixation.started,fixation.stopped,screenAfterAudio.started,screenAfterAudio.stopped,pp_start.started,pp_start.stopped,pp_start_2.started,pp_start_2.stopped,participant,order,date,expName,psychopyVersion,frameRate,
audio/click_beep.wav,0,0,0,53,20.052139399995212,None,28.532665399994585,None,28.765477649995592,None,28.76557760000287,29.781771199996,29.781771199996,None,28.83228339999914,28.848612600006163,28.865680000002612,28.88216100000136,realtimingtest,1,2023-04-12_12h14.33.162,SentenceInNoise,2022.1.3,59.94064677144827,
audio/click_beep.wav,0,1,1,29,,,,,30.7649244500004,None,30.765171899998677,31.7811803999939,31.7811803999939,30.765171899998677,30.815105999994557,30.831689300001017,30.848591100002523,30.865139999994426,realtimingtest,1,2023-04-12_12h14.33.162,SentenceInNoise,2022.1.3,59.94064677144827,
audio/click_beep.wav,0,2,2,4,,,,,32.74778285000648,None,32.74750500000664,33.76419950000127,33.76419950000127,32.74750500000664,32.79770310000458,32.81457390000287,32.83121570000367,32.84777029999532,realtimingtest,1,2023-04-12_12h14.33.162,SentenceInNoise,2022.1.3,59.94064677144827,
audio/click_beep.wav,0,3,3,147,,,,,34.73035834999755,None,34.730522500001825,35.74640380000346,35.74640380000346,34.730522500001825,34.78053679999721,34.79752609999559,34.81374500000675,34.830578099994455,realtimingtest,1,2023-04-12_12h14.33.162,SentenceInNoise,2022.1.3,59.94064677144827,
audio/click_beep.wav,0,4,4,178,,,,,36.71305065000488,None,36.713108199997805,37.74632649999694,37.74632649999694,36.713108199997805,36.7629270000034,36.77970440000354,36.796193300004234,36.813328200005344,realtimingtest,1,2023-04-12_12h14.33.162,SentenceInNoise,2022.1.3,59.94064677144827,
audio/click_beep.wav,0,5,5,74,,,,,38.69565474999545,None,38.69562470000528,39.71188309999707,39.71188309999707,38.69562470000528,38.74544820000301,38.762200900004245,38.778942100005224,38.79563409999537,realtimingtest,1,2023-04-12_12h14.33.162,SentenceInNoise,2022.1.3,59.94064677144827,
audio/click_beep.wav,0,6,6,102,,,,,40.678275449996,None,40.67798959999345,41.69499370000267,41.69499370000267,40.67798959999345,40.7284362000064,40.74525639999774,40.76188130000082,40.77852209999401,realtimingtest,1,2023-04-12_12h14.33.162,SentenceInNoise,2022.1.3,59.94064677144827,
audio/click_beep.wav,0,7,7,98,,,,,42.66081814999925,None,42.66156290000072,43.67750249999517,43.67750249999517,42.66156290000072,42.710963100005756,42.72766619999311,42.744361100005335,42.761155000000144,realtimingtest,1,2023-04-12_12h14.33.162,SentenceInNoise,2022.1.3,59.94064677144827,
audio/click_beep.wav,0,8,8,2,,,,,44.64365365000558,None,44.64418730000034,45.676996499998495,45.676996499998495,44.64418730000034,44.69387230000575,44.71061110000301,44.72726600000169,44.743931200006045,realtimingtest,1,2023-04-12_12h14.33.162,SentenceInNoise,2022.1.3,59.94064677144827,
audio/click_beep.wav,0,9,9,62,,,,,46.626645749996534,None,46.62646489999315,47.64291300000332,47.64291300000332,46.62646489999315,46.67652259999886,46.693444999997155,46.70991989999311,46.726838699993095,realtimingtest,1,2023-04-12_12h14.33.162,SentenceInNoise,2022.1.3,59.94064677144827,
audio/click_beep.wav,0,10,10,150,,,,,48.609268349997,None,48.60921710000548,49.62587329999951,49.62587329999951,48.60921710000548,48.65913050000381,48.67609039999661,48.692642199996044,48.70929739999701,realtimingtest,1,2023-04-12_12h14.33.162,SentenceInNoise,2022.1.3,59.94064677144827,
audio/click_beep.wav,0,11,11,195,,,,,50.591795049994836,None,50.5920291999937,51.608282000001054,51.608282000001054,50.5920291999937,50.6420153999934,50.65860920000705,50.67511949999607,50.69212989999505,realtimingtest,1,2023-04-12_12h14.33.162,SentenceInNoise,2022.1.3,59.94064677144827,
audio/click_beep.wav,0,12,12,106,,,,,52.57469365000143,None,52.57467990000441,53.59127859999717,53.59127859999717,52.57467990000441,52.62458200000401,52.641565199999604,52.67463449999923,52.69145430000208,realtimingtest,1,2023-04-12_12h14.33.162,SentenceInNoise,2022.1.3,59.94064677144827,
audio/click_beep.wav,0,13,13,75,,,,,54.57415475000162,None,54.573824799997965,55.590413300000364,55.590413300000364,54.573824799997965,54.6239898000058,54.6404651000048,54.65746790000412,54.67412739999418,realtimingtest,1,2023-04-12_12h14.33.162,SentenceInNoise,2022.1.3,59.94064677144827,
audio/click_beep.wav,0,14,14,13,,,,,56.556583849998425,None,56.556864900005166,57.57286070000555,57.57286070000555,56.556864900005166,56.606828599993605,56.62314450000122,56.639870099999825,56.65666300000157,realtimingtest,1,2023-04-12_12h14.33.162,SentenceInNoise,2022.1.3,59.94064677144827,
audio/click_beep.wav,0,15,15,58,,,,,58.53922544999805,None,58.53930689999834,59.55600179999601,59.55600179999601,58.53930689999834,58.58927799999947,58.60612409999885,58.62304489999951,58.63932760000171,realtimingtest,1,2023-04-12_12h14.33.162,SentenceInNoise,2022.1.3,59.94064677144827,
audio/click_beep.wav,0,16,16,196,,,,,60.52209204999381,None,60.52197649999289,61.538176400004886,61.538176400004886,60.52197649999289,60.57197730000189,60.588681900000665,60.62206189999415,60.63885879999725,realtimingtest,1,2023-04-12_12h14.33.162,SentenceInNoise,2022.1.3,59.94064677144827,
audio/click_beep.wav,0,17,17,91,,,,,62.52158925000695,None,62.52195639999991,63.537472299998626,63.537472299998626,62.52195639999991,62.57146880000073,62.58813839999493,62.6045865000051,62.62123750000319,realtimingtest,1,2023-04-12_12h14.33.162,SentenceInNoise,2022.1.3,59.94064677144827,
audio/click_beep.wav,0,18,18,21,,,,,64.50402874999563,None,64.52077760000248,65.52012869999453,65.52012869999453,64.52077760000248,64.57054240000434,64.58716530000675,64.6039036000002,64.62070559999847,realtimingtest,1,2023-04-12_12h14.33.162,SentenceInNoise,2022.1.3,59.94064677144827,
audio/click_beep.wav,0,19,19,34,,,,,66.50318254999874,None,66.50328119999904,67.5198534999945,67.5198534999945,66.50328119999904,66.55375849999837,66.57013079999888,66.60368810000364,66.62052579999727,realtimingtest,1,2023-04-12_12h14.33.162,SentenceInNoise,2022.1.3,59.94064677144827,
audio/click_beep.wav,0,20,20,61,,,,,68.50255734999664,None,68.50239229999715,69.51847840000119,69.51847840000119,68.50239229999715,68.5690964999958,68.58567369999946,68.60215750000498,68.61882439999317,realtimingtest,1,2023-04-12_12h14.33.162,SentenceInNoise,2022.1.3,59.94064677144827,
audio/click_beep.wav,0,21,21,95,,,,,70.5018164500012,None,70.50174659999902,71.51847609999822,71.51847609999822,70.50174659999902,70.5514933999948,70.56813679999323,70.58507080000709,70.60164540000551,realtimingtest,1,2023-04-12_12h14.33.162,SentenceInNoise,2022.1.3,59.94064677144827,
audio/click_beep.wav,0,22,22,128,,,,,72.48445305000641,None,72.50151570000162,73.5024870000052,73.5024870000052,72.50151570000162,72.55132450000383,72.568165699995,72.5847586000018,72.60212480000337,realtimingtest,1,2023-04-12_12h14.33.162,SentenceInNoise,2022.1.3,59.94064677144827,
audio/click_beep.wav,0,23,23,110,,,,,74.48408674999664,None,74.4838638999936,75.51701989999856,75.51701989999856,74.4838638999936,74.53408919999492,74.55083839999861,74.56743340000685,74.58428150000691,realtimingtest,1,2023-04-12_12h14.33.162,SentenceInNoise,2022.1.3,59.94064677144827,
audio/click_beep.wav,0,24,24,39,,,,,76.48344035000773,None,76.48444040000322,77.51641949999612,77.51641949999612,76.48444040000322,76.55029349999677,76.56693889999588,76.58353839999472,76.60003180000058,realtimingtest,1,2023-04-12_12h14.33.162,SentenceInNoise,2022.1.3,59.94064677144827,
audio/click_beep.wav,0,25,25,70,,,,,78.48249064999399,None,78.48249229999783,79.51603790000081,79.51603790000081,78.48249229999783,78.53284800000256,78.54922109999461,78.56593840000278,78.58269510000537,realtimingtest,1,2023-04-12_12h14.33.162,SentenceInNoise,2022.1.3,59.94064677144827,
audio/click_beep.wav,0,26,26,46,,,,,80.46531715000455,None,80.46559890000208,81.48169919999782,81.48169919999782,80.46559890000208,80.5319412999961,80.54904290000559,80.56547240000509,80.58215380000183,realtimingtest,1,2023-04-12_12h14.33.162,SentenceInNoise,2022.1.3,59.94064677144827,
audio/click_beep.wav,0,27,27,9,,,,,82.46440494999987,None,82.46478029999707,83.48079030000372,83.48079030000372,82.46478029999707,82.51498239999637,82.53187059999618,82.54806610000378,82.56496499999776,realtimingtest,1,2023-04-12_12h14.33.162,SentenceInNoise,2022.1.3,59.94064677144827,
audio/click_beep.wav,0,28,28,82,,,,,84.44727305000706,None,84.44722030000412,85.46364899999753,85.46364899999753,84.44722030000412,84.51438849999977,84.53097870000056,84.54760190000525,84.56430030000047,realtimingtest,1,2023-04-12_12h14.33.162,SentenceInNoise,2022.1.3,59.94064677144827,
audio/click_beep.wav,0,29,29,67,,,,,86.44673025000665,None,86.44668900000397,87.46273010000004,87.46273010000004,86.44668900000397,86.49661119999655,86.51336549999542,86.53018899999734,86.5467670999933,realtimingtest,1,2023-04-12_12h14.33.162,SentenceInNoise,2022.1.3,59.94064677144827,
audio/click_beep.wav,0,30,30,121,,,,,88.4290865500021,None,88.42939020000631,89.44543750000594,89.44543750000594,88.42939020000631,88.47960690000036,88.49635169999965,88.5130283000035,88.5295233999932,realtimingtest,1,2023-04-12_12h14.33.162,SentenceInNoise,2022.1.3,59.94064677144827,
audio/click_beep.wav,0,31,31,188,,,,,90.42871284999418,None,90.42899349999789,91.44518399999652,91.44518399999652,90.42899349999789,90.47894650000671,90.49567639999441,90.51218730000255,90.528799599997,realtimingtest,1,2023-04-12_12h14.33.162,SentenceInNoise,2022.1.3,59.94064677144827,
audio/click_beep.wav,0,32,32,80,,,,,92.44472010000317,None,92.44502549999743,93.46129239999573,93.46129239999573,92.44502549999743,92.4785195000004,92.49488919999567,92.52822429999651,92.5448749000061,realtimingtest,1,2023-04-12_12h14.33.162,SentenceInNoise,2022.1.3,59.94064677144827,
audio/click_beep.wav,0,33,33,3,,,,,94.42763944999896,None,94.42776989999402,95.44390509999357,95.44390509999357,94.42776989999402,94.47735830000602,94.4945074999996,94.51063580000482,94.52750909999304,realtimingtest,1,2023-04-12_12h14.33.162,SentenceInNoise,2022.1.3,59.94064677144827,
audio/click_beep.wav,0,34,34,43,,,,,96.41059614999685,None,96.41076820000308,97.42628600000171,97.42628600000171,96.41076820000308,96.46028990000195,96.47697740000149,96.49368179999874,96.51052379999601,realtimingtest,1,2023-04-12_12h14.33.162,SentenceInNoise,2022.1.3,59.94064677144827,
audio/click_beep.wav,0,35,35,120,,,,,98.39314574999443,None,98.3930837999942,99.42582669999683,99.42582669999683,98.3930837999942,98.44332809999469,98.4597317000007,98.47645630000625,98.49313849999453,realtimingtest,1,2023-04-12_12h14.33.162,SentenceInNoise,2022.1.3,59.94064677144827,
audio/click_beep.wav,0,36,36,123,,,,,100.37557125000748,None,100.37548859999515,101.39222629999858,101.39222629999858,100.37548859999515,100.42545959999552,100.44229279999854,100.45887760000187,100.47587510000449,realtimingtest,1,2023-04-12_12h14.33.162,SentenceInNoise,2022.1.3,59.94064677144827,
audio/click_beep.wav,0,37,37,172,,,,,102.37473605000704,None,102.3755472000048,103.39105930000369,103.39105930000369,102.3755472000048,102.4253572000016,102.44163430000481,102.45832879999944,102.47518819999823,realtimingtest,1,2023-04-12_12h14.33.162,SentenceInNoise,2022.1.3,59.94064677144827,
audio/click_beep.wav,0,38,38,139,,,,,104.35760414999967,None,104.35778780000692,105.37411330000032,105.37411330000032,104.35778780000692,104.40756849999889,104.42412880000484,104.44102060000296,104.45767679999699,realtimingtest,1,2023-04-12_12h14.33.162,SentenceInNoise,2022.1.3,59.94064677144827,
audio/click_beep.wav,0,39,39,116,,,,,106.34029805000463,None,106.339979700002,107.3567888999969,107.3567888999969,106.339979700002,106.39035099999455,106.40722300000198,106.42367530000047,106.44043309999688,realtimingtest,1,2023-04-12_12h14.33.162,SentenceInNoise,2022.1.3,59.94064677144827,
audio/click_beep.wav,0,40,40,59,,,,,108.32300685000664,None,108.32301500000176,109.35598059999757,109.35598059999757,108.32301500000176,108.3898663,108.40636389999418,108.42312170000514,108.43981110000459,realtimingtest,1,2023-04-12_12h14.33.162,SentenceInNoise,2022.1.3,59.94064677144827,
audio/click_beep.wav,0,41,41,136,,,,,110.3222404500062,None,110.32180479999806,111.35529540000425,111.35529540000425,110.32180479999806,110.37239420000697,110.38920069999585,110.40586529999564,110.42228670000623,realtimingtest,1,2023-04-12_12h14.33.162,SentenceInNoise,2022.1.3,59.94064677144827,
audio/click_beep.wav,0,42,42,138,,,,,112.30547845000692,None,112.30490859999554,113.32079149999481,113.32079149999481,112.30490859999554,112.3549900999933,112.37203260000388,112.38856680000026,112.4050036999979,realtimingtest,1,2023-04-12_12h14.33.162,SentenceInNoise,2022.1.3,59.94064677144827,
audio/click_beep.wav,0,43,43,38,,,,,114.30439744999748,None,114.30402260000119,115.32011299999431,115.32011299999431,114.30402260000119,114.37101350000012,114.38779599999543,114.40447599999607,114.42117719999806,realtimingtest,1,2023-04-12_12h14.33.162,SentenceInNoise,2022.1.3,59.94064677144827,
audio/click_beep.wav,0,44,44,8,,,,,116.30373214999562,None,116.30386590000126,117.32057609999902,117.32057609999902,116.30386590000126,116.35360149999906,116.37013450000086,116.386694300003,116.40328499999305,realtimingtest,1,2023-04-12_12h14.33.162,SentenceInNoise,2022.1.3,59.94064677144827,
audio/click_beep.wav,0,45,45,108,,,,,118.28629344999499,None,118.28657310000563,119.30252899999323,119.30252899999323,118.28657310000563,118.3363446000003,118.3531920999958,118.37000480000279,118.38643210000009,realtimingtest,1,2023-04-12_12h14.33.162,SentenceInNoise,2022.1.3,59.94064677144827,
audio/click_beep.wav,0,46,46,105,,,,,120.26931485000532,None,120.26924470000085,121.2851640000008,121.2851640000008,120.26924470000085,120.31937440000183,120.33575359999668,120.35253099999682,120.36925740000152,realtimingtest,1,2023-04-12_12h14.33.162,SentenceInNoise,2022.1.3,59.94064677144827,
audio/click_beep.wav,0,47,47,60,,,,,122.25187314999638,None,122.25172729999758,123.26761189999525,123.26761189999525,122.25172729999758,122.30157470000267,122.31843630000367,122.33532260000356,122.35184859999572,realtimingtest,1,2023-04-12_12h14.33.162,SentenceInNoise,2022.1.3,59.94064677144827,
audio/click_beep.wav,0,48,48,45,,,,,124.23445354999566,None,124.23416429999634,125.25121220000437,125.25121220000437,124.23416429999634,124.28474810000625,124.30115430000296,124.31785849999869,124.33450110000558,realtimingtest,1,2023-04-12_12h14.33.162,SentenceInNoise,2022.1.3,59.94064677144827,
audio/click_beep.wav,0,49,49,14,,,,,126.21702624999452,None,126.21700689999852,127.23358879999432,127.23358879999432,126.21700689999852,126.26712000000407,126.28396509999584,126.30043790000491,126.317326400007,realtimingtest,1,2023-04-12_12h14.33.162,SentenceInNoise,2022.1.3,59.94064677144827,
audio/click_beep.wav,0,50,50,122,,,,,128.19980044999974,None,128.19956490000186,129.21642430000065,129.21642430000065,128.19956490000186,128.26662949999445,128.28315699999803,128.29996040000697,128.31659539999964,realtimingtest,1,2023-04-12_12h14.33.162,SentenceInNoise,2022.1.3,59.94064677144827,
audio/click_beep.wav,0,51,51,77,,,,,130.19951865000766,None,130.19925330000115,131.21560890000546,131.21560890000546,130.19925330000115,130.24910060000548,130.26595099999395,130.28237650000665,130.29915489999985,realtimingtest,1,2023-04-12_12h14.33.162,SentenceInNoise,2022.1.3,59.94064677144827,
audio/click_beep.wav,0,52,52,55,,,,,132.1817212499969,None,132.18179970000347,133.19810550000693,133.19810550000693,132.18179970000347,132.23210850000032,132.2486940999952,132.26526709999598,132.28179730000556,realtimingtest,1,2023-04-12_12h14.33.162,SentenceInNoise,2022.1.3,59.94064677144827,
audio/click_beep.wav,0,53,53,101,,,,,134.1645907500002,None,134.1648600000044,135.181499600003,135.181499600003,134.1648600000044,134.2146289999946,134.231412299996,134.24799200000416,134.26467220000632,realtimingtest,1,2023-04-12_12h14.33.162,SentenceInNoise,2022.1.3,59.94064677144827,
audio/click_beep.wav,0,54,54,92,,,,,136.14718214999593,None,136.14700500000617,137.18015640000522,137.18015640000522,136.14700500000617,136.21401409999817,136.23144980000507,136.24741209999775,136.26387599999725,realtimingtest,1,2023-04-12_12h14.33.162,SentenceInNoise,2022.1.3,59.94064677144827,
audio/click_beep.wav,0,55,55,44,,,,,138.14648985000676,None,138.14648789999774,139.1627390000067,139.1627390000067,138.14648789999774,138.1966417999938,138.21332520000578,138.23001270000532,138.2466121000034,realtimingtest,1,2023-04-12_12h14.33.162,SentenceInNoise,2022.1.3,59.94064677144827,
audio/click_beep.wav,0,56,56,104,,,,,140.1290928500035,None,140.12947939999867,141.14527490000182,141.14527490000182,140.12947939999867,140.17927189999318,140.195810300007,140.22941309999442,140.24595329999283,realtimingtest,1,2023-04-12_12h14.33.162,SentenceInNoise,2022.1.3,59.94064677144827,
audio/click_beep.wav,0,57,57,129,,,,,142.1285847500054,None,142.12839789999998,143.14502460000222,143.14502460000222,142.12839789999998,142.19560740000452,142.2118322000024,142.22857180000574,142.245428299997,realtimingtest,1,2023-04-12_12h14.33.162,SentenceInNoise,2022.1.3,59.94064677144827,
audio/click_beep.wav,0,58,58,54,,,,,144.12777714999683,None,144.12775770000007,145.1441546999995,145.1441546999995,144.12775770000007,144.17782460000308,144.19430109999666,144.2113279000041,144.2277865000069,realtimingtest,1,2023-04-12_12h14.33.162,SentenceInNoise,2022.1.3,59.94064677144827,
audio/click_beep.wav,0,59,59,161,,,,,146.11045344999874,None,146.1118073999969,147.12670120000257,147.12670120000257,146.1118073999969,146.160805099993,146.1774363000004,146.1939529999945,146.21070949999557,realtimingtest,1,2023-04-12_12h14.33.162,SentenceInNoise,2022.1.3,59.94064677144827,
audio/click_beep.wav,0,60,60,117,,,,,148.11015874999575,None,148.11003860000346,149.126122200003,149.126122200003,148.11003860000346,148.16010510000342,148.17672519999905,148.21004409999296,148.22660379999434,realtimingtest,1,2023-04-12_12h14.33.162,SentenceInNoise,2022.1.3,59.94064677144827,
audio/click_beep.wav,0,61,61,23,,,,,150.10921904999995,None,150.10949449999316,151.12561980000464,151.12561980000464,150.10949449999316,150.1595027000003,150.1761925000028,150.19265090000408,150.20934729999863,realtimingtest,1,2023-04-12_12h14.33.162,SentenceInNoise,2022.1.3,59.94064677144827,
audio/click_beep.wav,0,62,62,71,,,,,152.0923103500041,None,152.09198490000563,153.10809249999875,153.10809249999875,152.09198490000563,152.15848820000247,152.17554579999705,152.19203540000308,152.2086888000049,realtimingtest,1,2023-04-12_12h14.33.162,SentenceInNoise,2022.1.3,59.94064677144827,
audio/click_beep.wav,0,63,63,145,,,,,154.0913532500068,None,154.09120599999733,155.1076899000036,155.1076899000036,154.09120599999733,154.14136490000237,154.1582330999954,154.17482660000678,154.19129519999842,realtimingtest,1,2023-04-12_12h14.33.162,SentenceInNoise,2022.1.3,59.94064677144827,
audio/click_beep.wav,0,64,64,81,,,,,156.0737452499976,None,156.07436349999625,157.09154110000236,157.09154110000236,156.07436349999625,156.12421470000118,156.1406061000016,156.1573544999992,156.17411110000103,realtimingtest,1,2023-04-12_12h14.33.162,SentenceInNoise,2022.1.3,59.94064677144827,
audio/click_beep.wav,0,65,65,198,,,,,158.0566069499997,None,158.0568792999984,159.07307410000067,159.07307410000067,158.0568792999984,158.1068704000063,158.12349889999314,158.14004769999883,158.15709029999562,realtimingtest,1,2023-04-12_12h14.33.162,SentenceInNoise,2022.1.3,59.94064677144827,
audio/click_beep.wav,0,66,66,35,,,,,160.03920214999525,None,160.03924919999554,161.05584430000454,161.05584430000454,160.03924919999554,160.1063251000014,160.12307529999816,160.13946479999868,160.1563393999968,realtimingtest,1,2023-04-12_12h14.33.162,SentenceInNoise,2022.1.3,59.94064677144827,
audio/click_beep.wav,0,67,67,171,,,,,162.03866754999908,None,162.03906799999822,163.05511679999472,163.05511679999472,162.03906799999822,162.08884050000052,162.1056111999933,162.1221935999929,162.13874829999986,realtimingtest,1,2023-04-12_12h14.33.162,SentenceInNoise,2022.1.3,59.94064677144827,
audio/click_beep.wav,0,68,68,173,,,,,164.0219065500074,None,164.0214064000029,165.03769830000238,165.03769830000238,164.0214064000029,164.07165220000024,164.08820889999333,164.104966400002,164.12158920000365,realtimingtest,1,2023-04-12_12h14.33.162,SentenceInNoise,2022.1.3,59.94064677144827,
audio/click_beep.wav,0,69,69,130,,,,,166.00426744999422,None,166.0043233000033,167.0370694000012,167.0370694000012,166.0043233000033,166.05435760000546,166.07105860000593,166.08751399999892,166.1043423999945,realtimingtest,1,2023-04-12_12h14.33.162,SentenceInNoise,2022.1.3,59.94064677144827,
audio/click_beep.wav,0,70,70,163,,,,,167.9863831500057,None,167.9871251000004,169.0027063000016,169.0027063000016,167.9871251000004,168.0369864999957,168.05336279999756,168.07020260000718,168.08695240000088,realtimingtest,1,2023-04-12_12h14.33.162,SentenceInNoise,2022.1.3,59.94064677144827,
audio/click_beep.wav,0,71,71,127,,,,,169.96925415000587,None,169.9691942000063,170.98590569999942,170.98590569999942,169.9691942000063,170.01957170000242,170.03636579999875,170.06946539999626,170.08631519999471,realtimingtest,1,2023-04-12_12h14.33.162,SentenceInNoise,2022.1.3,59.94064677144827,
audio/click_beep.wav,0,72,72,48,,,,,171.96875685000268,None,171.9685504999943,173.00185050000437,173.00185050000437,171.9685504999943,172.03534309999668,172.0520300000062,172.06879380000464,172.0852734999935,realtimingtest,1,2023-04-12_12h14.33.162,SentenceInNoise,2022.1.3,59.94064677144827,
audio/click_beep.wav,0,73,73,187,,,,,173.96754925000423,None,173.9678672000009,174.98437269999704,174.98437269999704,173.9678672000009,174.01800510000612,174.03461610000522,174.05120380000153,174.06799290000345,realtimingtest,1,2023-04-12_12h14.33.162,SentenceInNoise,2022.1.3,59.94064677144827,
audio/click_beep.wav,0,74,74,40,,,,,175.9509899500059,None,175.95112929999596,176.96736739999324,176.96736739999324,175.95112929999596,176.00089599999774,176.01736620000156,176.03420979999646,176.05090299999574,realtimingtest,1,2023-04-12_12h14.33.162,SentenceInNoise,2022.1.3,59.94064677144827,
audio/click_beep.wav,0,75,75,113,,,,,177.93361255000636,None,177.93386220000684,178.94972059999418,178.94972059999418,177.93386220000684,177.9837772000028,178.00051650000387,178.01681790000293,178.0337259999942,realtimingtest,1,2023-04-12_12h14.33.162,SentenceInNoise,2022.1.3,59.94064677144827,
audio/click_beep.wav,0,76,76,15,,,,,179.91629674999567,None,179.91630969999824,180.93230299999414,180.93230299999414,179.91630969999824,179.96618289999606,179.98310909999418,179.99956450000172,180.01643449999392,realtimingtest,1,2023-04-12_12h14.33.162,SentenceInNoise,2022.1.3,59.94064677144827,
audio/click_beep.wav,0,77,77,176,,,,,181.89903855000156,None,181.89865400000417,182.91503279999597,182.91503279999597,181.89865400000417,181.9489609000011,181.96603080000204,181.98232969999663,181.99901499999396,realtimingtest,1,2023-04-12_12h14.33.162,SentenceInNoise,2022.1.3,59.94064677144827,
audio/click_beep.wav,0,78,78,18,,,,,183.8814911500027,None,183.88151419999485,184.89804640000511,184.89804640000511,183.88151419999485,183.93171900000016,183.9482818999968,183.96510750000016,183.98187980000512,realtimingtest,1,2023-04-12_12h14.33.162,SentenceInNoise,2022.1.3,59.94064677144827,
audio/click_beep.wav,0,79,79,140,,,,,185.86424035000672,None,185.86400380000123,186.88025869999547,186.88025869999547,185.86400380000123,185.91442980000284,185.93111980000685,185.9476352000056,185.96435480000218,realtimingtest,1,2023-04-12_12h14.33.162,SentenceInNoise,2022.1.3,59.94064677144827,
audio/click_beep.wav,0,80,80,47,,,,,187.84666585000522,None,187.84681030000502,188.863391699997,188.863391699997,187.84681030000502,187.89700149999408,187.9136293000047,187.9305502000061,187.94705550000072,realtimingtest,1,2023-04-12_12h14.33.162,SentenceInNoise,2022.1.3,59.94064677144827,
audio/click_beep.wav,0,81,81,31,,,,,189.82997694999503,None,189.82976100000087,190.86266860000615,190.86266860000615,189.82976100000087,189.87962320000224,189.89640769999824,189.91322400000354,189.9298470999929,realtimingtest,1,2023-04-12_12h14.33.162,SentenceInNoise,2022.1.3,59.94064677144827,
audio/click_beep.wav,0,82,82,118,,,,,191.81269635000498,None,191.8124378000066,192.82877469999949,192.82877469999949,191.8124378000066,191.86240110000654,191.8791579999961,191.895611800006,191.91313129999617,realtimingtest,1,2023-04-12_12h14.33.162,SentenceInNoise,2022.1.3,59.94064677144827,
audio/click_beep.wav,0,83,83,124,,,,,193.79510495000576,None,193.7949679000012,194.81067099999927,194.81067099999927,193.7949679000012,193.84522079999442,193.8619328000059,193.8783800999954,193.8949930999952,realtimingtest,1,2023-04-12_12h14.33.162,SentenceInNoise,2022.1.3,59.94064677144827,
audio/click_beep.wav,0,84,84,28,,,,,195.77749265000747,None,195.77751489999355,196.7936708000052,196.7936708000052,195.77751489999355,195.84446269999899,195.86109869999927,195.87789699999848,195.8945759000053,realtimingtest,1,2023-04-12_12h14.33.162,SentenceInNoise,2022.1.3,59.94064677144827,
audio/click_beep.wav,0,85,85,33,,,,,197.77722194999805,None,197.77703230000043,198.79320699999516,198.79320699999516,197.77703230000043,197.82710949999455,197.84377099999983,197.86043070000596,197.87725439999485,realtimingtest,1,2023-04-12_12h14.33.162,SentenceInNoise,2022.1.3,59.94064677144827,
audio/click_beep.wav,0,86,86,168,,,,,199.75968045000045,None,199.75981040000624,200.77585390000604,200.77585390000604,199.75981040000624,199.8097962000029,199.82707640000444,199.84336640000402,199.8598309999943,realtimingtest,1,2023-04-12_12h14.33.162,SentenceInNoise,2022.1.3,59.94064677144827,
audio/click_beep.wav,0,87,87,7,,,,,201.74224864999414,None,201.7425280000025,202.79202690000238,202.79202690000238,201.7425280000025,201.79261489999772,201.80893949999881,201.82622899999842,201.84234040000592,realtimingtest,1,2023-04-12_12h14.33.162,SentenceInNoise,2022.1.3,59.94064677144827,
audio/click_beep.wav,0,88,88,193,,,,,203.72516055000014,None,203.7254469000036,204.74128060000658,204.74128060000658,203.7254469000036,203.77528479999455,203.79157570000098,203.80843999999342,203.82538399999612,realtimingtest,1,2023-04-12_12h14.33.162,SentenceInNoise,2022.1.3,59.94064677144827,
audio/click_beep.wav,0,89,89,97,,,,,205.70791674999927,None,205.70800800000143,206.7239125000051,206.7239125000051,205.70800800000143,205.7579595999996,205.7746860000043,205.7911737999966,205.80779849999817,realtimingtest,1,2023-04-12_12h14.33.162,SentenceInNoise,2022.1.3,59.94064677144827,
audio/click_beep.wav,0,90,90,42,,,,,207.69047445000032,None,207.69038020000153,208.7073570999928,208.7073570999928,207.69038020000153,207.74032589999842,207.7571256999945,207.77397320000455,207.79054119999637,realtimingtest,1,2023-04-12_12h14.33.162,SentenceInNoise,2022.1.3,59.94064677144827,
audio/click_beep.wav,0,91,91,152,,,,,209.67296165000297,None,209.6731918000005,210.72301519999746,210.72301519999746,209.6731918000005,209.72325199999614,209.74008960000356,209.7566788999975,209.7733484000055,realtimingtest,1,2023-04-12_12h14.33.162,SentenceInNoise,2022.1.3,59.94064677144827,
audio/click_beep.wav,0,92,92,85,,,,,211.65617174999497,None,211.65602239999862,212.67211179999867,212.67211179999867,211.65602239999862,211.7060885999963,211.72264130000258,211.73925129999407,211.75609140000597,realtimingtest,1,2023-04-12_12h14.33.162,SentenceInNoise,2022.1.3,59.94064677144827,
audio/click_beep.wav,0,93,93,169,,,,,213.63855275000387,None,213.63858210000035,214.65430609999748,214.65430609999748,213.63858210000035,213.68859499999962,213.70538970000052,213.72205100000429,213.7385207000043,realtimingtest,1,2023-04-12_12h14.33.162,SentenceInNoise,2022.1.3,59.94064677144827,
audio/click_beep.wav,0,94,94,192,,,,,215.621234550004,None,215.62118630000623,216.63761269999668,216.63761269999668,215.62118630000623,215.6717992000049,215.68793470000674,215.70477719999326,215.7211102000001,realtimingtest,1,2023-04-12_12h14.33.162,SentenceInNoise,2022.1.3,59.94064677144827,
audio/click_beep.wav,0,95,95,6,,,,,217.60378015000023,None,217.60375189999468,218.65368629999284,218.65368629999284,217.60375189999468,217.65403900000092,217.6704910999979,217.68692920000467,217.70425769999565,realtimingtest,1,2023-04-12_12h14.33.162,SentenceInNoise,2022.1.3,59.94064677144827,
audio/click_beep.wav,0,96,96,22,,,,,219.58682444999576,None,219.5864952999982,220.61987559999397,220.61987559999397,219.5864952999982,219.65330099999846,219.67009040000266,219.68751649999467,219.70341020000342,realtimingtest,1,2023-04-12_12h14.33.162,SentenceInNoise,2022.1.3,59.94064677144827,
audio/click_beep.wav,0,97,97,24,,,,,221.58591585000394,None,221.5857767999987,222.60192669999378,222.60192669999378,221.5857767999987,221.6357097,221.65233830000216,221.66898740000033,221.68588059999456,realtimingtest,1,2023-04-12_12h14.33.162,SentenceInNoise,2022.1.3,59.94064677144827,
audio/click_beep.wav,0,98,98,144,,,,,223.56885804999328,None,223.56864379999752,224.58464590000222,224.58464590000222,223.56864379999752,223.61863850000373,223.6358024999936,223.65208440000424,223.66872689999582,realtimingtest,1,2023-04-12_12h14.33.162,SentenceInNoise,2022.1.3,59.94064677144827,
audio/click_beep.wav,0,99,99,180,,,,,225.56796139999932,None,225.56806819999474,226.58435469999677,226.58435469999677,225.56806819999474,225.60132640000666,225.61812980000104,225.63476299999456,225.65127360000042,realtimingtest,1,2023-04-12_12h14.33.162,SentenceInNoise,2022.1.3,59.94064677144827,
audio/click_beep.wav,0,100,100,194,,,,,227.55053255000675,None,227.55049779999536,228.56695300000138,228.56695300000138,227.55049779999536,227.60064049999346,227.61730220000027,227.63403519999702,227.65081120000104,realtimingtest,1,2023-04-12_12h14.33.162,SentenceInNoise,2022.1.3,59.94064677144827,
audio/click_beep.wav,0,101,101,166,,,,,229.53328174999623,None,229.53350669999782,230.54943050000293,230.54943050000293,229.53350669999782,229.5832189000066,229.6001350000006,229.6167329000018,229.6334199999983,realtimingtest,1,2023-04-12_12h14.33.162,SentenceInNoise,2022.1.3,59.94064677144827,
audio/click_beep.wav,0,102,102,79,,,,,231.5156535499933,None,231.51557849999517,232.53199040000618,232.53199040000618,231.51557849999517,231.56601399999636,231.5825993000035,231.59952629999316,231.6161240999936,realtimingtest,1,2023-04-12_12h14.33.162,SentenceInNoise,2022.1.3,59.94064677144827,
audio/click_beep.wav,0,103,103,83,,,,,233.4986373499938,None,233.49864029999299,234.5151521999942,234.5151521999942,233.49864029999299,233.54869090000284,233.56556940000155,233.58222549999482,233.59903909999412,realtimingtest,1,2023-04-12_12h14.33.162,SentenceInNoise,2022.1.3,59.94064677144827,
audio/click_beep.wav,0,104,104,133,,,,,235.48128084999334,None,235.4809702000057,236.49781939999957,236.49781939999957,235.4809702000057,235.53118849999737,235.5479869999981,235.56490880000638,235.58185420000518,realtimingtest,1,2023-04-12_12h14.33.162,SentenceInNoise,2022.1.3,59.94064677144827,
audio/click_beep.wav,0,105,105,90,,,,,237.46412924999603,None,237.46397310000611,238.48022690000653,238.48022690000653,237.46397310000611,237.5143459999963,237.5307044999936,237.5640529999946,237.58072100000572,realtimingtest,1,2023-04-12_12h14.33.162,SentenceInNoise,2022.1.3,59.94064677144827,
audio/click_beep.wav,0,106,106,154,,,,,239.46344664999341,None,239.46332559999428,240.47962909999478,240.47962909999478,239.46332559999428,239.51350080000702,239.53028940000513,239.5469277999946,239.56342459999723,realtimingtest,1,2023-04-12_12h14.33.162,SentenceInNoise,2022.1.3,59.94064677144827,
audio/click_beep.wav,0,107,107,175,,,,,241.44589475000393,None,241.4457762999955,242.46270730000106,242.46270730000106,241.4457762999955,241.49595070000214,241.512707700007,241.52934029999597,241.54610859999957,realtimingtest,1,2023-04-12_12h14.33.162,SentenceInNoise,2022.1.3,59.94064677144827,
audio/click_beep.wav,0,108,108,84,,,,,243.42871375000104,None,243.4286190999992,244.4618693999946,244.4618693999946,243.4286190999992,243.47861180000473,243.4954415999964,243.51240599999437,243.52900300000329,realtimingtest,1,2023-04-12_12h14.33.162,SentenceInNoise,2022.1.3,59.94064677144827,
audio/click_beep.wav,0,109,109,57,,,,,245.41128194999473,None,245.4114191999979,246.42776910000248,246.42776910000248,245.4114191999979,245.46131119999336,245.47808319999604,245.49471790000098,245.51136509999924,realtimingtest,1,2023-04-12_12h14.33.162,SentenceInNoise,2022.1.3,59.94064677144827,
audio/click_beep.wav,0,110,110,16,,,,,247.3938869500067,None,247.39414479999687,248.4106904999935,248.4106904999935,247.39414479999687,247.46106600000348,247.47742150000704,247.4941211999976,247.5109744999936,realtimingtest,1,2023-04-12_12h14.33.162,SentenceInNoise,2022.1.3,59.94064677144827,
audio/click_beep.wav,0,111,111,185,,,,,249.39336675000376,None,249.3936939999985,250.4093339999963,250.4093339999963,249.3936939999985,249.4436132999981,249.4606019000057,249.47693140000047,249.49357960000634,realtimingtest,1,2023-04-12_12h14.33.162,SentenceInNoise,2022.1.3,59.94064677144827,
audio/click_beep.wav,0,112,112,64,,,,,251.3760049500066,None,251.37630720000016,252.39212099999713,252.39212099999713,251.37630720000016,251.4260140999977,251.44300489999296,251.45941320000566,251.47596870000416,realtimingtest,1,2023-04-12_12h14.33.162,SentenceInNoise,2022.1.3,59.94064677144827,
audio/click_beep.wav,0,113,113,151,,,,,253.3589649500005,None,253.35910349999904,254.37562099999923,254.37562099999923,253.35910349999904,253.40913040000305,253.42548890000035,253.44245899999805,253.45891990000382,realtimingtest,1,2023-04-12_12h14.33.162,SentenceInNoise,2022.1.3,59.94064677144827,
audio/click_beep.wav,0,114,114,86,,,,,255.3415577500069,None,255.3414213000069,256.3747757999954,256.3747757999954,255.3414213000069,255.3916329000058,255.40841109999747,255.42491889999656,255.44159529999888,realtimingtest,1,2023-04-12_12h14.33.162,SentenceInNoise,2022.1.3,59.94064677144827,
audio/click_beep.wav,0,115,115,41,,,,,257.3241740500031,None,257.32415699999547,258.3404850999941,258.3404850999941,257.32415699999547,257.3744067999942,257.3909291000018,257.4075843000028,257.424428600003,realtimingtest,1,2023-04-12_12h14.33.162,SentenceInNoise,2022.1.3,59.94064677144827,
audio/click_beep.wav,0,116,116,156,,,,,259.30680585000084,None,259.3068499999936,260.32305110000016,260.32305110000016,259.3068499999936,259.3570222999988,259.3743511000066,259.39037340000505,259.40694169999915,realtimingtest,1,2023-04-12_12h14.33.162,SentenceInNoise,2022.1.3,59.94064677144827,
audio/click_beep.wav,0,117,117,99,,,,,261.28972115000363,None,261.28977329999907,262.30598089999694,262.30598089999694,261.28977329999907,261.33966159999545,261.35633080000116,261.37300409999443,261.38980309999897,realtimingtest,1,2023-04-12_12h14.33.162,SentenceInNoise,2022.1.3,59.94064677144827,
audio/click_beep.wav,0,118,118,190,,,,,263.27221514999985,None,263.2724320999987,264.3053702000034,264.3053702000034,263.2724320999987,263.3224898000044,263.3387667000061,263.3554040000017,263.37224199999764,realtimingtest,1,2023-04-12_12h14.33.162,SentenceInNoise,2022.1.3,59.94064677144827,
audio/click_beep.wav,0,119,119,88,,,,,265.2547592499992,None,265.2548073000071,266.2711750000017,266.2711750000017,265.2548073000071,265.3049793999962,265.32187699999486,265.3383957000042,265.35508649999974,realtimingtest,1,2023-04-12_12h14.33.162,SentenceInNoise,2022.1.3,59.94064677144827,
audio/click_beep.wav,0,120,120,1,,,,,267.237534649999,None,267.2375955000025,268.25384869999834,268.25384869999834,267.2375955000025,267.2878473000019,267.3045462000009,267.32167940000363,267.337695299997,realtimingtest,1,2023-04-12_12h14.33.162,SentenceInNoise,2022.1.3,59.94064677144827,
audio/click_beep.wav,0,121,121,115,,,,,269.2200186500064,None,269.22028550000687,270.23658579999756,270.23658579999756,269.22028550000687,269.27037149999524,269.28710760000104,269.30390080000507,269.3203100999963,realtimingtest,1,2023-04-12_12h14.33.162,SentenceInNoise,2022.1.3,59.94064677144827,
audio/click_beep.wav,0,122,122,167,,,,,271.2028646500054,None,271.20276410000224,272.2360719999997,272.2360719999997,271.20276410000224,271.2529091000033,271.26966370000446,271.286288599993,271.3030308000016,realtimingtest,1,2023-04-12_12h14.33.162,SentenceInNoise,2022.1.3,59.94064677144827,
audio/click_beep.wav,0,123,123,68,,,,,273.1856111500034,None,273.18557309999596,274.2020182999986,274.2020182999986,273.18557309999596,273.2354975000053,273.2521975999989,273.26897750000353,273.2862748000043,realtimingtest,1,2023-04-12_12h14.33.162,SentenceInNoise,2022.1.3,59.94064677144827,
audio/click_beep.wav,0,124,124,37,,,,,275.1683696500055,None,275.16878920000454,276.18529639999906,276.18529639999906,275.16878920000454,275.2186961999978,275.23536259999673,275.25170490000164,275.2686595999985,realtimingtest,1,2023-04-12_12h14.33.162,SentenceInNoise,2022.1.3,59.94064677144827,
audio/click_beep.wav,0,125,125,25,,,,,277.1509613500035,None,277.15093079999497,278.1674528000003,278.1674528000003,277.15093079999497,277.20110439999553,277.2176043000072,277.2351975000056,277.25117269999464,realtimingtest,1,2023-04-12_12h14.33.162,SentenceInNoise,2022.1.3,59.94064677144827,
audio/click_beep.wav,0,126,126,182,,,,,279.13348825000287,None,279.13399400000344,280.1499757999991,280.1499757999991,279.13399400000344,279.18375019999803,279.20018090000667,279.2167366000067,279.23345739999786,realtimingtest,1,2023-04-12_12h14.33.162,SentenceInNoise,2022.1.3,59.94064677144827,
audio/click_beep.wav,0,127,127,183,,,,,281.1168107500067,None,281.1163996999967,282.132890199995,282.132890199995,281.1163996999967,281.1662892000022,281.18314409999584,281.21610010000586,281.2328848000034,realtimingtest,1,2023-04-12_12h14.33.162,SentenceInNoise,2022.1.3,59.94064677144827,
audio/click_beep.wav,0,128,128,109,,,,,283.1157391499961,None,283.11574429999746,284.13193420000607,284.13193420000607,283.11574429999746,283.1658452999982,283.18261540000094,283.1993868999998,283.2157314000069,realtimingtest,1,2023-04-12_12h14.33.162,SentenceInNoise,2022.1.3,59.94064677144827,
audio/click_beep.wav,0,129,129,160,,,,,285.09852295000167,None,285.0982037000067,286.13139530000626,286.13139530000626,285.0982037000067,285.14870239999436,285.1651576000004,285.18166909999854,285.19896930000687,realtimingtest,1,2023-04-12_12h14.33.162,SentenceInNoise,2022.1.3,59.94064677144827,
audio/click_beep.wav,0,130,130,177,,,,,287.08110995000754,None,287.0808773000026,288.09733259999484,288.09733259999484,287.0808773000026,287.1309367000067,287.147415200001,287.164437600004,287.1810509000061,realtimingtest,1,2023-04-12_12h14.33.162,SentenceInNoise,2022.1.3,59.94064677144827,
audio/click_beep.wav,0,131,131,189,,,,,289.0638466500037,None,289.0639838000061,290.0805151999957,290.0805151999957,289.0639838000061,289.1142683999933,289.1304928000027,289.1471872999973,289.164119699999,realtimingtest,1,2023-04-12_12h14.33.162,SentenceInNoise,2022.1.3,59.94064677144827,
audio/click_beep.wav,0,132,132,5,,,,,291.0465830499976,None,291.0461842999939,292.0794293999934,292.0794293999934,291.0461842999939,291.11314760000096,291.1299547999952,291.1467214000004,291.1634759000008,realtimingtest,1,2023-04-12_12h14.33.162,SentenceInNoise,2022.1.3,59.94064677144827,
audio/click_beep.wav,0,133,133,159,,,,,293.04605584999956,None,293.04573310000706,294.0628599000047,294.0628599000047,293.04573310000706,293.09593999999925,293.1127880999993,293.12918279999576,293.14594170000055,realtimingtest,1,2023-04-12_12h14.33.162,SentenceInNoise,2022.1.3,59.94064677144827,
audio/click_beep.wav,0,134,134,153,,,,,295.0287648500031,None,295.0285140000051,296.0450275000039,296.0450275000039,295.0285140000051,295.0788087999972,295.09520260000136,295.1117568000045,295.1287234000047,realtimingtest,1,2023-04-12_12h14.33.162,SentenceInNoise,2022.1.3,59.94064677144827,
audio/click_beep.wav,0,135,135,148,,,,,297.0110669499933,None,297.0111714999948,298.02774900000077,298.02774900000077,297.0111714999948,297.0612472000066,297.07812629999535,297.0947398999997,297.11146620000363,realtimingtest,1,2023-04-12_12h14.33.162,SentenceInNoise,2022.1.3,59.94064677144827,
audio/click_beep.wav,0,136,136,96,,,,,298.9936926500028,None,298.99409880000167,300.01028390000283,300.01028390000283,298.99409880000167,299.04407610000635,299.0608646000037,299.0772864000028,299.0941093000001,realtimingtest,1,2023-04-12_12h14.33.162,SentenceInNoise,2022.1.3,59.94064677144827,
audio/click_beep.wav,0,137,137,174,,,,,300.97683565000773,None,300.97671940000146,301.9930041000043,301.9930041000043,300.97671940000146,301.0267318999977,301.04347899999993,301.0601816999988,301.0767346000066,realtimingtest,1,2023-04-12_12h14.33.162,SentenceInNoise,2022.1.3,59.94064677144827,
audio/click_beep.wav,0,138,138,146,,,,,302.95898834999537,None,302.9592371000035,303.992201999994,303.992201999994,302.9592371000035,303.00950299999386,303.0261445000069,303.0426118000032,303.05947279999964,realtimingtest,1,2023-04-12_12h14.33.162,SentenceInNoise,2022.1.3,59.94064677144827,
audio/click_beep.wav,0,139,139,20,,,,,304.94183454999586,None,304.9422060999932,305.95896730000095,305.95896730000095,304.9422060999932,304.99218519999704,305.00872009999875,305.0253740000044,305.04211350000696,realtimingtest,1,2023-04-12_12h14.33.162,SentenceInNoise,2022.1.3,59.94064677144827,
audio/click_beep.wav,0,140,140,181,,,,,306.9246612499934,None,306.9249084000039,307.94059749999724,307.94059749999724,306.9249084000039,306.9746856999991,306.99232170000323,307.00838569999905,307.0248101000034,realtimingtest,1,2023-04-12_12h14.33.162,SentenceInNoise,2022.1.3,59.94064677144827,
audio/click_beep.wav,0,141,141,143,,,,,308.90719084999876,None,308.9076520999952,309.9234429000062,309.9234429000062,308.9076520999952,308.9574394999945,308.97424599999795,308.9907314000011,309.007403399999,realtimingtest,1,2023-04-12_12h14.33.162,SentenceInNoise,2022.1.3,59.94064677144827,
audio/click_beep.wav,0,142,142,72,,,,,310.8898738499935,None,310.89032730000326,311.9063485999941,311.9063485999941,310.89032730000326,310.9400053999998,310.957859999995,310.9734027999948,310.98983590000717,realtimingtest,1,2023-04-12_12h14.33.162,SentenceInNoise,2022.1.3,59.94064677144827,
audio/click_beep.wav,0,143,143,111,,,,,312.8891616499983,None,312.88989140000194,313.90574560000096,313.90574560000096,312.88989140000194,312.93971180000517,312.9560780000029,312.9729631999944,312.98966120000114,realtimingtest,1,2023-04-12_12h14.33.162,SentenceInNoise,2022.1.3,59.94064677144827,
audio/click_beep.wav,0,144,144,179,,,,,314.872104949996,None,314.871928499997,315.9050697000057,315.9050697000057,314.871928499997,314.92216539999936,314.93892040000355,314.9555005000002,314.9721986999939,realtimingtest,1,2023-04-12_12h14.33.162,SentenceInNoise,2022.1.3,59.94064677144827,
audio/click_beep.wav,0,145,145,119,,,,,316.85472984999944,None,316.85487860000285,317.87075869999535,317.87075869999535,316.85487860000285,316.9049465999997,316.9215969999932,316.9380799000064,316.9548039999936,realtimingtest,1,2023-04-12_12h14.33.162,SentenceInNoise,2022.1.3,59.94064677144827,
audio/click_beep.wav,0,146,146,141,,,,,318.8375111500005,None,318.8371288000053,319.85342200000014,319.85342200000014,318.8371288000053,318.887501899997,318.90414070000406,318.92092400000547,318.9375907000067,realtimingtest,1,2023-04-12_12h14.33.162,SentenceInNoise,2022.1.3,59.94064677144827,
audio/click_beep.wav,0,147,147,73,,,,,320.82014605000734,None,320.8203563999996,321.8364663999964,321.8364663999964,320.8203563999996,320.87012789999426,320.88723870000103,320.90354630000365,320.91995330000645,realtimingtest,1,2023-04-12_12h14.33.162,SentenceInNoise,2022.1.3,59.94064677144827,
audio/click_beep.wav,0,148,148,26,,,,,322.80275004999714,None,322.8027812999935,323.8527189000015,323.8527189000015,322.8027812999935,322.8528415000037,322.86977609999303,322.8861187000002,322.90301069999987,realtimingtest,1,2023-04-12_12h14.33.162,SentenceInNoise,2022.1.3,59.94064677144827,
audio/click_beep.wav,0,149,149,87,,,,,324.78539975000024,None,324.785447000002,325.80160039999464,325.80160039999464,324.785447000002,324.8356569000025,324.8520906000049,324.86868030000187,324.88534969999455,realtimingtest,1,2023-04-12_12h14.33.162,SentenceInNoise,2022.1.3,59.94064677144827,
audio/click_beep.wav,0,150,150,164,,,,,326.76766705000193,None,326.76782110000204,327.7838090000005,327.7838090000005,326.76782110000204,326.8177929999947,326.834909600002,326.8513071000052,326.8678968000022,realtimingtest,1,2023-04-12_12h14.33.162,SentenceInNoise,2022.1.3,59.94064677144827,
audio/click_beep.wav,0,151,151,132,,,,,328.750837549998,None,328.75073800000246,329.7674623000057,329.7674623000057,328.75073800000246,328.8008322999958,328.81768540000485,328.8341988000029,328.8509455000021,realtimingtest,1,2023-04-12_12h14.33.162,SentenceInNoise,2022.1.3,59.94064677144827,
audio/click_beep.wav,0,152,152,131,,,,,330.73313714999824,None,330.7333701000025,331.74964019999607,331.74964019999607,330.7333701000025,330.7837073999981,330.8002886000031,330.816982999997,330.83406280000054,realtimingtest,1,2023-04-12_12h14.33.162,SentenceInNoise,2022.1.3,59.94064677144827,
audio/click_beep.wav,0,153,153,112,,,,,332.7159761500021,None,332.7160501000035,333.73239560000366,333.73239560000366,332.7160501000035,332.7659966000065,332.7827735000028,332.7991546999983,332.8159670000023,realtimingtest,1,2023-04-12_12h14.33.162,SentenceInNoise,2022.1.3,59.94064677144827,
audio/click_beep.wav,0,154,154,69,,,,,334.698763550006,None,334.69900239999697,335.7320294999954,335.7320294999954,334.69900239999697,334.7487781999953,334.76542009999685,334.7822071999981,334.79878610000014,realtimingtest,1,2023-04-12_12h14.33.162,SentenceInNoise,2022.1.3,59.94064677144827,
audio/click_beep.wav,0,155,155,19,,,,,336.68132014999867,None,336.6817328000034,337.6980959999928,337.6980959999928,336.6817328000034,336.7316997000016,336.7484977999993,336.7651096000045,336.78164640000614,realtimingtest,1,2023-04-12_12h14.33.162,SentenceInNoise,2022.1.3,59.94064677144827,
audio/click_beep.wav,0,156,156,50,,,,,338.66440245000706,None,338.66429669999343,339.68027310000616,339.68027310000616,338.66429669999343,338.7145414999977,338.73103169999376,338.74747830000706,338.7645154000056,realtimingtest,1,2023-04-12_12h14.33.162,SentenceInNoise,2022.1.3,59.94064677144827,
audio/click_beep.wav,0,157,157,157,,,,,340.64673975000335,None,340.6468574000028,341.66308610000124,341.66308610000124,340.6468574000028,340.6970016999985,340.71369750000304,340.73035179999715,340.74708760000067,realtimingtest,1,2023-04-12_12h14.33.162,SentenceInNoise,2022.1.3,59.94064677144827,
audio/click_beep.wav,0,158,158,186,,,,,342.6297725499986,None,342.6295242000051,343.66268759999366,343.66268759999366,342.6295242000051,342.67977000000246,342.6963793000032,342.71290020000015,342.729772199993,realtimingtest,1,2023-04-12_12h14.33.162,SentenceInNoise,2022.1.3,59.94064677144827,
audio/click_beep.wav,0,159,159,191,,,,,344.6120989499992,None,344.61205009999685,345.62852670000575,345.62852670000575,344.61205009999685,344.66213310000603,344.6785766999965,344.69554190000053,344.7122115999955,realtimingtest,1,2023-04-12_12h14.33.162,SentenceInNoise,2022.1.3,59.94064677144827,
audio/click_beep.wav,0,160,160,125,,,,,346.5950758500054,None,346.59503339999355,347.6112948999944,347.6112948999944,346.59503339999355,346.6452575000003,346.6616728999943,346.67850989999715,346.6953114000062,realtimingtest,1,2023-04-12_12h14.33.162,SentenceInNoise,2022.1.3,59.94064677144827,
audio/click_beep.wav,0,161,161,165,,,,,348.5776650499989,None,348.5778374999936,349.59386670000094,349.59386670000094,348.5778374999936,348.62776279999525,348.64448220000486,348.66096280000056,348.67818620000617,realtimingtest,1,2023-04-12_12h14.33.162,SentenceInNoise,2022.1.3,59.94064677144827,
audio/click_beep.wav,0,162,162,162,,,,,350.560551850003,None,350.5603409000032,351.5933653999964,351.5933653999964,350.5603409000032,350.62728240000433,350.6436631999968,350.66054769999755,350.6770358999929,realtimingtest,1,2023-04-12_12h14.33.162,SentenceInNoise,2022.1.3,59.94064677144827,
audio/click_beep.wav,0,163,163,63,,,,,352.5597251499945,None,352.5597708999994,353.59267860000546,353.59267860000546,352.5597708999994,352.6095390999981,352.62662359999376,352.6431109999976,352.6598578999983,realtimingtest,1,2023-04-12_12h14.33.162,SentenceInNoise,2022.1.3,59.94064677144827,
audio/click_beep.wav,0,164,164,197,,,,,354.54254844999525,None,354.542182899997,355.5582252000022,355.5582252000022,354.542182899997,354.5923923999944,354.6090123000031,354.6260765000043,354.64282969999476,realtimingtest,1,2023-04-12_12h14.33.162,SentenceInNoise,2022.1.3,59.94064677144827,
audio/click_beep.wav,0,165,165,134,,,,,356.5248125500017,None,356.52513989999716,357.5411434999987,357.5411434999987,356.52513989999716,356.5753168999945,356.59173149999697,356.60846570000285,356.62539699999616,realtimingtest,1,2023-04-12_12h14.33.162,SentenceInNoise,2022.1.3,59.94064677144827,
audio/click_beep.wav,0,166,166,199,,,,,358.50760505000073,None,358.50752260000445,359.52430590000586,359.52430590000586,358.50752260000445,358.55783689999953,358.5748756999965,358.5917147,358.6076729000051,realtimingtest,1,2023-04-12_12h14.33.162,SentenceInNoise,2022.1.3,59.94064677144827,
audio/click_beep.wav,0,167,167,89,,,,,360.4915376499936,None,360.4905054999981,361.50657359999605,361.50657359999605,360.4905054999981,360.5405330999929,360.55718059999344,360.5738927000057,360.5906791000016,realtimingtest,1,2023-04-12_12h14.33.162,SentenceInNoise,2022.1.3,59.94064677144827,
audio/click_beep.wav,0,168,168,100,,,,,362.4732270500041,None,362.47316480000154,363.4888815000013,363.4888815000013,362.47316480000154,362.52312349999556,362.54007220000494,362.55651369999396,362.57325509999646,realtimingtest,1,2023-04-12_12h14.33.162,SentenceInNoise,2022.1.3,59.94064677144827,
audio/click_beep.wav,0,169,169,142,,,,,364.45587114999364,None,364.45592269999906,365.4717363999953,365.4717363999953,364.45592269999906,364.5060264000058,364.52277559999493,364.53926609999326,364.5559807999962,realtimingtest,1,2023-04-12_12h14.33.162,SentenceInNoise,2022.1.3,59.94064677144827,
audio/click_beep.wav,0,170,170,66,,,,,366.4385934499966,None,366.4387232000008,367.4547103999939,367.4547103999939,366.4387232000008,366.4885787999956,366.50542790000327,366.5218556000036,366.5385618,realtimingtest,1,2023-04-12_12h14.33.162,SentenceInNoise,2022.1.3,59.94064677144827,
audio/click_beep.wav,0,171,171,0,,,,,368.42109974999914,None,368.42157400000724,369.4376892,369.4376892,368.42157400000724,368.47133929999836,368.4881050999975,368.5047592000046,368.5212646,realtimingtest,1,2023-04-12_12h14.33.162,SentenceInNoise,2022.1.3,59.94064677144827,
audio/click_beep.wav,0,172,172,149,,,,,370.4038455500064,None,370.4038193000015,371.4211384999944,371.4211384999944,370.4038193000015,370.45420320000267,370.47073719999753,370.4872691000055,370.5038460999931,realtimingtest,1,2023-04-12_12h14.33.162,SentenceInNoise,2022.1.3,59.94064677144827,
audio/click_beep.wav,0,173,173,10,,,,,372.38637284999425,None,372.38643410000077,373.402734400006,373.402734400006,372.38643410000077,372.43642090000503,372.4532035000011,372.4698419000051,372.48678399999335,realtimingtest,1,2023-04-12_12h14.33.162,SentenceInNoise,2022.1.3,59.94064677144827,
audio/click_beep.wav,0,174,174,65,,,,,374.36885485000096,None,374.36935470000026,375.38563940000313,375.38563940000313,374.36935470000026,374.4191512999969,374.4361179999978,374.4693336000055,374.4860992000031,realtimingtest,1,2023-04-12_12h14.33.162,SentenceInNoise,2022.1.3,59.94064677144827,
audio/click_beep.wav,0,175,175,158,,,,,376.3685990500031,None,376.36865489999764,377.3852360000019,377.3852360000019,376.36865489999764,376.4185807000031,376.4356117999996,376.45198070000333,376.4687947000057,realtimingtest,1,2023-04-12_12h14.33.162,SentenceInNoise,2022.1.3,59.94064677144827,
audio/click_beep.wav,0,176,176,103,,,,,378.3511123500008,None,378.35127759999887,379.36740859999554,379.36740859999554,378.35127759999887,378.4014710000047,378.4179798999976,378.43471089999366,378.4512720000057,realtimingtest,1,2023-04-12_12h14.33.162,SentenceInNoise,2022.1.3,59.94064677144827,
audio/click_beep.wav,0,177,177,155,,,,,380.3339962499973,None,380.3341536999942,381.35045500000706,381.35045500000706,380.3341536999942,380.3840493000025,380.4005938000046,380.4176160000061,380.4339653000061,realtimingtest,1,2023-04-12_12h14.33.162,SentenceInNoise,2022.1.3,59.94064677144827,
audio/click_beep.wav,0,178,178,30,,,,,382.3168783499947,None,382.31692899999325,383.33304979999957,383.33304979999957,382.31692899999325,382.3667690000002,382.3834516000061,382.39994980000483,382.41653309999674,realtimingtest,1,2023-04-12_12h14.33.162,SentenceInNoise,2022.1.3,59.94064677144827,
audio/click_beep.wav,0,179,179,107,,,,,384.2994114499976,None,384.2991696999961,385.3322421000048,385.3322421000048,384.2991696999961,384.3495366999996,384.36599459999707,384.3827452999976,384.39950549999776,realtimingtest,1,2023-04-12_12h14.33.162,SentenceInNoise,2022.1.3,59.94064677144827,
audio/click_beep.wav,0,180,180,17,,,,,386.2818706500053,None,386.2820298000006,387.29826969999704,387.29826969999704,386.2820298000006,386.3322515000036,386.34869480000634,386.38226369999757,386.39969560000463,realtimingtest,1,2023-04-12_12h14.33.162,SentenceInNoise,2022.1.3,59.94064677144827,
audio/click_beep.wav,0,181,181,114,,,,,388.28135205,None,388.2815941000008,389.29731059999904,389.29731059999904,388.2815941000008,388.33147279999685,388.348241300002,388.381111900002,388.3982843999984,realtimingtest,1,2023-04-12_12h14.33.162,SentenceInNoise,2022.1.3,59.94064677144827,
audio/click_beep.wav,0,182,182,49,,,,,390.28085634999445,None,390.28105649999634,391.2971766999981,391.2971766999981,390.28105649999634,390.330839000002,390.34769100000267,390.36383780000324,390.3804825999978,realtimingtest,1,2023-04-12_12h14.33.162,SentenceInNoise,2022.1.3,59.94064677144827,
audio/click_beep.wav,0,183,183,170,,,,,392.2635441499966,None,392.2636625000014,393.27986500000407,393.27986500000407,392.2636625000014,392.3135414999997,392.33032389999426,392.34678500000155,392.3634654000052,realtimingtest,1,2023-04-12_12h14.33.162,SentenceInNoise,2022.1.3,59.94064677144827,
audio/click_beep.wav,0,184,184,94,,,,,394.24592895000535,None,394.24634699999297,395.2625587999937,395.2625587999937,394.24634699999297,394.296245000005,394.31282869999995,394.3293954999972,394.346197100007,realtimingtest,1,2023-04-12_12h14.33.162,SentenceInNoise,2022.1.3,59.94064677144827,
audio/click_beep.wav,0,185,185,12,,,,,396.22897834999605,None,396.2288123000035,397.26165280000714,397.26165280000714,396.2288123000035,396.27919549999933,396.29549509999924,396.3123201999988,396.3287472999946,realtimingtest,1,2023-04-12_12h14.33.162,SentenceInNoise,2022.1.3,59.94064677144827,
audio/click_beep.wav,0,186,186,78,,,,,398.2117286499939,None,398.21111839999503,399.2283967999974,399.2283967999974,398.21111839999503,398.26120930000616,398.27790289999393,398.2945888999966,398.31142250000266,realtimingtest,1,2023-04-12_12h14.33.162,SentenceInNoise,2022.1.3,59.94064677144827,
audio/click_beep.wav,0,187,187,135,,,,,400.1942676499981,None,400.1938639,401.21035259999917,401.21035259999917,400.1938639,400.244265500005,400.26103360000707,400.2775621000037,400.29426039999817,realtimingtest,1,2023-04-12_12h14.33.162,SentenceInNoise,2022.1.3,59.94064677144827,
audio/click_beep.wav,0,188,188,52,,,,,402.1765737500042,None,402.1767983000027,403.1932214999979,403.1932214999979,402.1767983000027,402.2268883999932,402.24340429999575,402.2771164000005,402.2932463000034,realtimingtest,1,2023-04-12_12h14.33.162,SentenceInNoise,2022.1.3,59.94064677144827,
audio/click_beep.wav,0,189,189,36,,,,,404.17609274999415,None,404.1762243999983,405.1921272000036,405.1921272000036,404.1762243999983,404.22620469999674,404.24292410000635,404.2597487000021,404.2764238999953,realtimingtest,1,2023-04-12_12h14.33.162,SentenceInNoise,2022.1.3,59.94064677144827,
audio/click_beep.wav,0,190,190,51,,,,,406.1587364499952,None,406.1584259999945,407.1749689999997,407.1749689999997,406.1584259999945,406.2089216000022,406.2253500999941,406.2420920000004,406.25872500000696,realtimingtest,1,2023-04-12_12h14.33.162,SentenceInNoise,2022.1.3,59.94064677144827,
audio/click_beep.wav,0,191,191,137,,,,,408.14147014999764,None,408.1415188999963,409.15865110000595,409.15865110000595,408.1415188999963,408.19170169999416,408.20834230000037,408.22510789999797,408.241666899994,realtimingtest,1,2023-04-12_12h14.33.162,SentenceInNoise,2022.1.3,59.94064677144827,
audio/click_beep.wav,0,192,192,27,,,,,410.12415154999474,None,410.12408150000556,411.1406380999979,411.1406380999979,410.12408150000556,410.173987400005,410.1906930999976,410.20751670000027,410.22431989999313,realtimingtest,1,2023-04-12_12h14.33.162,SentenceInNoise,2022.1.3,59.94064677144827,
audio/click_beep.wav,0,193,193,32,,,,,412.107155350002,None,412.10687000000325,413.12317799999437,413.12317799999437,412.10687000000325,412.15722690000257,412.1735989000008,412.19033660000423,412.20709749999514,realtimingtest,1,2023-04-12_12h14.33.162,SentenceInNoise,2022.1.3,59.94064677144827,
audio/click_beep.wav,0,194,194,184,,,,,414.0894759500021,None,414.0898323000001,415.105934399995,415.105934399995,414.0898323000001,414.13992279999366,414.15629009999975,414.1730777000048,414.1895802999934,realtimingtest,1,2023-04-12_12h14.33.162,SentenceInNoise,2022.1.3,59.94064677144827,
audio/click_beep.wav,0,195,195,11,,,,,416.0723738500034,None,416.0724271999934,417.0884369999985,417.0884369999985,416.0724271999934,416.1223422000039,416.138792800004,416.15611640000134,416.17246539999906,realtimingtest,1,2023-04-12_12h14.33.162,SentenceInNoise,2022.1.3,59.94064677144827,
audio/click_beep.wav,0,196,196,93,,,,,418.0549189499958,None,418.05488749999495,419.07142189999286,419.07142189999286,418.05488749999495,418.1050277000031,418.1218594999955,418.1381812000036,418.15504889999283,realtimingtest,1,2023-04-12_12h14.33.162,SentenceInNoise,2022.1.3,59.94064677144827,
audio/click_beep.wav,0,197,197,76,,,,,420.037724250005,None,420.0376851000037,421.05412060000526,421.05412060000526,420.0376851000037,420.08794349999516,420.1044058999978,420.12135420000413,420.1380721000023,realtimingtest,1,2023-04-12_12h14.33.162,SentenceInNoise,2022.1.3,59.94064677144827,
audio/click_beep.wav,0,198,198,126,,,,,422.02017324999326,None,422.02057480000076,423.03697159999865,423.03697159999865,422.02057480000076,422.07064459999674,422.0871021000057,422.10371779999696,422.12047720000555,realtimingtest,1,2023-04-12_12h14.33.162,SentenceInNoise,2022.1.3,59.94064677144827,
audio/click_beep.wav,0,199,199,56,,,,,424.00304084999664,None,424.00336820000666,425.0190735000069,425.0190735000069,424.00336820000666,424.0530022000021,424.06967579999764,424.08644440000353,424.1032023000007,realtimingtest,1,2023-04-12_12h14.33.162,SentenceInNoise,2022.1.3,59.94064677144827,
