audiofile,trials.thisRepN,trials.thisTrialN,trials.thisN,trials.thisIndex,instrTrainText.started,instrTrainText.stopped,blockStart.started,blockStart.stopped,sound_1.started,sound_1.stopped,fixation.started,fixation.stopped,screenAfterAudio.started,screenAfterAudio.stopped,pp_start.started,pp_start.stopped,pp_start_2.started,pp_start_2.stopped,participant,order,date,expName,psychopyVersion,frameRate,
audio/click_beep.wav,0,0,0,68,9.675963100002264,None,12.09214929999871,None,12.275100780002687,None,12.275056799997401,13.291185599999153,13.291185599999153,None,12.275056799997401,12.291974100000516,12.425279100003536,12.442064900002151,s00,1,2023-04-12_11h41.44.387,SentenceInNoise,2022.1.3,59.97300015570215,
audio/click_beep.wav,0,1,1,11,,,,,14.27458866000452,None,14.2748636000033,15.290808600002492,15.290808600002492,14.2748636000033,14.2748636000033,14.291615399997681,14.408361100002367,14.424767199998314,s00,1,2023-04-12_11h41.44.387,SentenceInNoise,2022.1.3,59.97300015570215,
audio/click_beep.wav,0,2,2,108,,,,,16.25709385999871,None,16.257530599999882,17.273700899997493,17.273700899997493,16.257530599999882,16.257530599999882,16.2740752000027,16.390683899997384,16.407384999998612,s00,1,2023-04-12_11h41.44.387,SentenceInNoise,2022.1.3,59.97300015570215,
audio/click_beep.wav,0,3,3,58,,,,,18.2400069599993,None,18.239949100003287,19.256521900002554,19.256521900002554,18.239949100003287,18.239949100003287,18.25669149999885,18.373400800002855,18.390293700002076,s00,1,2023-04-12_11h41.44.387,SentenceInNoise,2022.1.3,59.97300015570215,
audio/click_beep.wav,0,4,4,28,,,,,20.222706659997492,None,20.222822600000654,21.23913360000006,21.23913360000006,20.222822600000654,20.222822600000654,20.239508899998327,20.35598469999968,20.37280230000033,s00,1,2023-04-12_11h41.44.387,SentenceInNoise,2022.1.3,59.97300015570215,
audio/click_beep.wav,0,5,5,56,,,,,22.205407659998308,None,22.205485600003158,23.221746399998665,23.221746399998665,22.205485600003158,22.205485600003158,22.222270600002958,22.338793499999156,22.355515600000217,s00,1,2023-04-12_11h41.44.387,SentenceInNoise,2022.1.3,59.97300015570215,
audio/click_beep.wav,0,6,6,109,,,,,24.187822959999174,None,24.18802290000167,25.20445710000058,25.20445710000058,24.18802290000167,24.18802290000167,24.20485500000359,24.321642599999905,24.33810120000271,s00,1,2023-04-12_11h41.44.387,SentenceInNoise,2022.1.3,59.97300015570215,
audio/click_beep.wav,0,7,7,3,,,,,26.17046696000252,None,26.17072729999927,27.187202799999795,27.187202799999795,26.17072729999927,26.17072729999927,26.187585300001956,26.304132299999765,26.320900400001847,s00,1,2023-04-12_11h41.44.387,SentenceInNoise,2022.1.3,59.97300015570215,
audio/click_beep.wav,0,8,8,8,,,,,28.153396460004295,None,28.153454500003136,29.17004650000308,29.17004650000308,28.153454500003136,28.153454500003136,28.170194899998023,28.286787600001844,28.303594700002577,s00,1,2023-04-12_11h41.44.387,SentenceInNoise,2022.1.3,59.97300015570215,
audio/click_beep.wav,0,9,9,132,,,,,30.13614006000207,None,30.13595180000266,31.15270440000313,31.15270440000313,30.13595180000266,30.13595180000266,30.15276520000043,30.269232500002545,30.286074800002098,s00,1,2023-04-12_11h41.44.387,SentenceInNoise,2022.1.3,59.97300015570215,
audio/click_beep.wav,0,10,10,120,,,,,32.11872896000059,None,32.11900279999827,33.13502639999933,33.13502639999933,32.11900279999827,32.11900279999827,32.135504999998375,32.2521831999984,32.268810100002156,s00,1,2023-04-12_11h41.44.387,SentenceInNoise,2022.1.3,59.97300015570215,
audio/click_beep.wav,0,11,11,160,,,,,34.10180356000128,None,34.10144009999931,35.11783880000439,35.11783880000439,34.10144009999931,34.10144009999931,34.11832329999743,34.234996799998044,34.25151000000187,s00,1,2023-04-12_11h41.44.387,SentenceInNoise,2022.1.3,59.97300015570215,
audio/click_beep.wav,0,12,12,12,,,,,36.084346359998015,None,36.08449449999898,37.117033399998036,37.117033399998036,36.08449449999898,36.08449449999898,36.1009944000034,36.21727760000067,36.23398270000325,s00,1,2023-04-12_11h41.44.387,SentenceInNoise,2022.1.3,59.97300015570215,
audio/click_beep.wav,0,13,13,177,,,,,38.06695036000237,None,38.066945500002475,39.083631599998625,39.083631599998625,38.066945500002475,38.066945500002475,38.0835717000009,38.200452199998836,38.21696150000207,s00,1,2023-04-12_11h41.44.387,SentenceInNoise,2022.1.3,59.97300015570215,
audio/click_beep.wav,0,14,14,185,,,,,40.04941066000392,None,40.049635299998045,41.06618100000196,41.06618100000196,40.049635299998045,40.049635299998045,40.06600610000169,40.1827209999974,40.19939929999964,s00,1,2023-04-12_11h41.44.387,SentenceInNoise,2022.1.3,59.97300015570215,
audio/click_beep.wav,0,15,15,170,,,,,42.03202946000456,None,42.032296600002155,43.04865360000258,43.04865360000258,42.032296600002155,42.032296600002155,42.04909000000043,42.16558900000382,42.182267399999546,s00,1,2023-04-12_11h41.44.387,SentenceInNoise,2022.1.3,59.97300015570215,
audio/click_beep.wav,0,16,16,93,,,,,44.01475416000394,None,44.01521579999826,45.06467820000398,45.06467820000398,44.01521579999826,44.01521579999826,44.031645100003516,44.14819870000065,44.164951500002644,s00,1,2023-04-12_11h41.44.387,SentenceInNoise,2022.1.3,59.97300015570215,
audio/click_beep.wav,0,17,17,161,,,,,45.997575360003246,None,45.99789299999975,47.01403199999913,47.01403199999913,45.99789299999975,45.99789299999975,46.014316699998744,46.13096740000037,46.14769569999771,s00,1,2023-04-12_11h41.44.387,SentenceInNoise,2022.1.3,59.97300015570215,
audio/click_beep.wav,0,18,18,95,,,,,47.98013776000371,None,47.98025680000137,48.996465199998056,48.996465199998056,47.98025680000137,47.98025680000137,47.99665919999825,48.113699699999415,48.130417500004114,s00,1,2023-04-12_11h41.44.387,SentenceInNoise,2022.1.3,59.97300015570215,
audio/click_beep.wav,0,19,19,86,,,,,49.963158660002954,None,49.96290669999871,50.97918000000209,50.97918000000209,49.96290669999871,49.96290669999871,49.979654599999776,50.09625070000038,50.11304640000162,s00,1,2023-04-12_11h41.44.387,SentenceInNoise,2022.1.3,59.97300015570215,
