TrialID,NFB_digit1,NFB_digit2,NFB_digit3,Speaker_trial,TrialID_ME,NFB_digit1_ME,NFB_digit2_ME,NFB_digit3_ME,Speaker_trial_ME,NV_trial_ME,Triggered_trial_ME,Jitter_trial_ME,NV_trial,Triggered_trial,Jitter_trial,practice_block.thisRepN,practice_block.thisTrialN,practice_block.thisN,practice_block.thisIndex,practice_trials.thisRepN,practice_trials.thisTrialN,practice_trials.thisN,practice_trials.thisIndex,response_practice.thisRepN,response_practice.thisTrialN,response_practice.thisN,response_practice.thisIndex,ME_trials.thisRepN,ME_trials.thisTrialN,ME_trials.thisN,ME_trials.thisIndex,response_ME.thisRepN,response_ME.thisTrialN,response_ME.thisN,response_ME.thisIndex,exp_trials.thisRepN,exp_trials.thisTrialN,exp_trials.thisN,exp_trials.thisIndex,response_exp.thisRepN,response_exp.thisTrialN,response_exp.thisN,response_exp.thisIndex,Digit1_clear.started,Digit1_clear.stopped,response_practice_resp.keys,response_practice_resp.rt,response_practice_resp.started,response_practice_resp.stopped,text_practice_repeat.started,text_practice_repeat.stopped,text_4.started,text_4.stopped,Fixation_ME.started,Fixation_ME.stopped,sound_digit_1_ME.started,sound_digit_1_ME.stopped,text_2.started,text_2.stopped,key_resp_ME.keys,key_resp_ME.rt,key_resp_ME.started,key_resp_ME.stopped,disp_answer_ME.started,disp_answer_ME.stopped,text_7.started,text_7.stopped,text_next_block_ME.started,text_next_block_ME.stopped,response_nextblock_ME.keys,response_nextblock_ME.started,response_nextblock_ME.stopped,response_nextblock_ME.rt,text_break.started,text_break.stopped,Fixation.started,Fixation.stopped,text_6.started,text_6.stopped,text_5.started,text_5.stopped,Fixation_Play.started,Fixation_Play.stopped,sound_digit1.started,sound_digit1.stopped,key_resp.keys,key_resp.rt,key_resp.started,key_resp.stopped,text_nextblock.started,text_nextblock.stopped,response_nextblock.keys,response_nextblock.started,response_nextblock.stopped,response_nextblock.rt,participant,session,date,expName,psychopyVersion,frameRate,
0.0,6.0,2.0,4.0,33.0,,,,,,,,,,,,0,0,0,0,0,0,0,0,0,0,0,0,,,,,,,,,,,,,,,,,0.012667839997448027,None,['return'],[0.29522690000158036],22.388719900001888,None,,,,,,,,,,,,,,,,,,,,,,,,,,,,,,,,,,,,,,,,,,,,,,,1,001,2021_Nov_17_2318,eeg_contingent_digits,2021.2.3,60.04988944704085,
0.0,6.0,2.0,4.0,33.0,,,,,,,,,,,,0,0,0,0,0,0,0,0,,,,,,,,,,,,,,,,,,,,,,,,,,,,,,,,,,,,,,,,,,,,,,,,,,,,,,,,,,,,,,,,,,,,,,,,,1,001,2021_Nov_17_2318,eeg_contingent_digits,2021.2.3,60.04988944704085,
1.0,1.0,9.0,3.0,13.0,,,,,,,,,,,,0,0,0,0,0,1,1,1,0,0,0,0,,,,,,,,,,,,,,,,,0.014286639998317696,None,['return'],[0.10639980000269134],23.261075599999458,None,,,,,,,,,,,,,,,,,,,,,,,,,,,,,,,,,,,,,,,,,,,,,,,1,001,2021_Nov_17_2318,eeg_contingent_digits,2021.2.3,60.04988944704085,
1.0,1.0,9.0,3.0,13.0,,,,,,,,,,,,0,0,0,0,0,1,1,1,,,,,,,,,,,,,,,,,,,,,,,,,,,,,,,,,,,,,,,,,,,,,,,,,,,,,,,,,,,,,,,,,,,,,,,,,1,001,2021_Nov_17_2318,eeg_contingent_digits,2021.2.3,60.04988944704085,
2.0,8.0,0.0,1.0,21.0,,,,,,,,,,,,0,0,0,0,0,2,2,2,0,0,0,0,,,,,,,,,,,,,,,,,0.014025439995748457,None,['return'],[0.09912980000081006],23.924549100003787,None,,,,,,,,,,,,,,,,,,,,,,,,,,,,,,,,,,,,,,,,,,,,,,,1,001,2021_Nov_17_2318,eeg_contingent_digits,2021.2.3,60.04988944704085,
2.0,8.0,0.0,1.0,21.0,,,,,,,,,,,,0,0,0,0,0,2,2,2,,,,,,,,,,,,,,,,,,,,,,,,,,,,,,,,,,,,,,,,,,,,,,,,,,,,,,,,,,,,,,,,,,,,,,,,,1,001,2021_Nov_17_2318,eeg_contingent_digits,2021.2.3,60.04988944704085,
3.0,9.0,6.0,1.0,61.0,,,,,,,,,,,,0,0,0,0,0,3,3,3,0,0,0,0,,,,,,,,,,,,,,,,,0.014951039993320592,None,['return'],[0.025519299997540656],24.591576200000418,None,,,,,,,,,,,,,,,,,,,,,,,,,,,,,,,,,,,,,,,,,,,,,,,1,001,2021_Nov_17_2318,eeg_contingent_digits,2021.2.3,60.04988944704085,
3.0,9.0,6.0,1.0,61.0,,,,,,,,,,,,0,0,0,0,0,3,3,3,,,,,,,,,,,,,,,,,,,,,,,,,,,,,,,,,,,,,,,,,,,,,,,,,,,,,,,,,,,,,,,,,,,,,,,,,1,001,2021_Nov_17_2318,eeg_contingent_digits,2021.2.3,60.04988944704085,
4.0,8.0,1.0,5.0,7.0,,,,,,,,,,,,0,0,0,0,0,4,4,4,0,0,0,0,,,,,,,,,,,,,,,,,0.014899539994075894,None,['return'],[0.6063967000009143],25.17304100000183,None,,,,,,,,,,,,,,,,,,,,,,,,,,,,,,,,,,,,,,,,,,,,,,,1,001,2021_Nov_17_2318,eeg_contingent_digits,2021.2.3,60.04988944704085,
4.0,8.0,1.0,5.0,7.0,,,,,,,,,,,,0,0,0,0,0,4,4,4,,,,,,,,,,,,,,,,,,,,,,,,,,,,,,,,,,,,,,,,,,,,,,,,,,,,,,,,,,,,,,,,,,,,,,,,,1,001,2021_Nov_17_2318,eeg_contingent_digits,2021.2.3,60.04988944704085,
5.0,4.0,1.0,0.0,33.0,,,,,,,,,,,,0,0,0,0,0,5,5,5,0,0,0,0,,,,,,,,,,,,,,,,,0.013519739994080737,None,['return'],[0.5238221999970847],26.358008000002883,None,,,,,,,,,,,,,,,,,,,,,,,,,,,,,,,,,,,,,,,,,,,,,,,1,001,2021_Nov_17_2318,eeg_contingent_digits,2021.2.3,60.04988944704085,
5.0,4.0,1.0,0.0,33.0,,,,,,,,,,,,0,0,0,0,0,5,5,5,,,,,,,,,,,,,,,,,,,,,,,,,,,,,,,,,,,,,,,,,,,,,,,,,,,,,,,,,,,,,,,,,,,,,,,,,1,001,2021_Nov_17_2318,eeg_contingent_digits,2021.2.3,60.04988944704085,
6.0,9.0,2.0,6.0,13.0,,,,,,,,,,,,0,0,0,0,0,6,6,6,0,0,0,0,,,,,,,,,,,,,,,,,0.014699540006404277,None,['return'],[0.47764140000072075],27.438266200006183,None,,,,,,,,,,,,,,,,,,,,,,,,,,,,,,,,,,,,,,,,,,,,,,,1,001,2021_Nov_17_2318,eeg_contingent_digits,2021.2.3,60.04988944704085,
6.0,9.0,2.0,6.0,13.0,,,,,,,,,,,,0,0,0,0,0,6,6,6,,,,,,,,,,,,,,,,,,,,,,,,,,,,,,,,,,,,,,,,,,,,,,,,,,,,,,,,,,,,,,,,,,,,,,,,,1,001,2021_Nov_17_2318,eeg_contingent_digits,2021.2.3,60.04988944704085,
7.0,2.0,3.0,0.0,10.0,,,,,,,,,,,,0,0,0,0,0,7,7,7,0,0,0,0,,,,,,,,,,,,,,,,,0.014820340002188459,None,['return'],[0.27649689999816474],28.475945400001365,None,,,,,,,,,,,,,,,,,,,,,,,,,,,,,,,,,,,,,,,,,,,,,,,1,001,2021_Nov_17_2318,eeg_contingent_digits,2021.2.3,60.04988944704085,
7.0,2.0,3.0,0.0,10.0,,,,,,,,,,,,0,0,0,0,0,7,7,7,,,,,,,,,,,,,,,,,,,,,,,,,,,,,,,,,,,,,,,,,,,,,,,,,,,,,,,,,,,,,,,,,,,,,,,,,1,001,2021_Nov_17_2318,eeg_contingent_digits,2021.2.3,60.04988944704085,
8.0,1.0,9.0,2.0,48.0,,,,,,,,,,,,0,0,0,0,0,8,8,8,0,0,0,0,,,,,,,,,,,,,,,,,0.01447413999994751,None,['return'],[0.20169590000296012],29.32700620000105,None,,,,,,,,,,,,,,,,,,,,,,,,,,,,,,,,,,,,,,,,,,,,,,,1,001,2021_Nov_17_2318,eeg_contingent_digits,2021.2.3,60.04988944704085,
8.0,1.0,9.0,2.0,48.0,,,,,,,,,,,,0,0,0,0,0,8,8,8,,,,,,,,,,,,,,,,,,,,,,,,,,,,,,,,,,,,,,,,,,,,,,,,,,,,,,,,,,,,,,,,,,,,,,,,,1,001,2021_Nov_17_2318,eeg_contingent_digits,2021.2.3,60.04988944704085,
9.0,8.0,1.0,0.0,21.0,,,,,,,,,,,,0,0,0,0,0,9,9,9,0,0,0,0,,,,,,,,,,,,,,,,,0.012938839994603768,None,['return'],[0.23952409999765223],30.11012800000026,None,,,,,,,,,,,,,,,,,,,,,,,,,,,,,,,,,,,,,,,,,,,,,,,1,001,2021_Nov_17_2318,eeg_contingent_digits,2021.2.3,60.04988944704085,
9.0,8.0,1.0,0.0,21.0,,,,,,,,,,,,0,0,0,0,0,9,9,9,,,,,,,,,,,,,,,,,,,,,,,,,,,,,,,,,,,,,,,,,,,,,,,,,,,,,,,,,,,,,,,,,,,,,,,,,1,001,2021_Nov_17_2318,eeg_contingent_digits,2021.2.3,60.04988944704085,
,,,,,,,,,,,,,,,,0,0,0,0,,,,,,,,,,,,,,,,,,,,,,,,,,,,,,,30.39959230000386,None,,,,,,,,,,,,,,,,,,,,,,,,,,,,,,,,,,,,,,,,,,,,,1,001,2021_Nov_17_2318,eeg_contingent_digits,2021.2.3,60.04988944704085,
,,,,,0.0,1.0,2.0,0.0,33.0,1.0,1.0,0.0,,,,,,,,,,,,,,,,0,0,0,0,0,0,0,0,,,,,,,,,,,,,,,,,31.126917300003697,None,32.57781280000199,None,0.01286410000466276,None,34.002699600001506,None,"['1', 'return']","[1.716260399996827, 1.9427267999999458]",35.01814759999979,None,35.01814759999979,None,35.01814759999979,36.02611869999964,,,,,,,,,,,,,,,,,,,,,,,,,,,,,1,001,2021_Nov_17_2318,eeg_contingent_digits,2021.2.3,60.04988944704085,
,,,,,0.0,1.0,2.0,0.0,33.0,1.0,1.0,0.0,,,,,,,,,,,,,,,,0,0,0,0,,,,,,,,,,,,,,,,,,,,,,,,,,,,,,,,,,,,,None,None,None,None,None,,,,,,,,,,,,,,,,,,,,,,,,1,001,2021_Nov_17_2318,eeg_contingent_digits,2021.2.3,60.04988944704085,
,,,,,1.0,0.0,8.0,3.0,49.0,1.0,0.0,1.0,,,,,,,,,,,,,,,,0,1,1,1,0,0,0,0,,,,,,,,,,,,,,,,,,,37.09098310000263,None,0.0016374799961340614,None,39.17409550000593,None,"['0', 'return']","[0.9197327999936533, 1.2518948999932036]",40.183829100002185,None,40.183829100002185,None,40.183829100002185,41.19235740000295,,,,,,,,,,,,,,,,,,,,,,,,,,,,,1,001,2021_Nov_17_2318,eeg_contingent_digits,2021.2.3,60.04988944704085,
,,,,,1.0,0.0,8.0,3.0,49.0,1.0,0.0,1.0,,,,,,,,,,,,,,,,0,1,1,1,,,,,,,,,,,,,,,,,,,,,,,,,,,,,,,,,,,,,None,None,None,None,None,,,,,,,,,,,,,,,,,,,,,,,,1,001,2021_Nov_17_2318,eeg_contingent_digits,2021.2.3,60.04988944704085,
,,,,,2.0,4.0,9.0,2.0,7.0,1.0,1.0,0.0,,,,,,,,,,,,,,,,0,2,2,2,0,0,0,0,,,,,,,,,,,,,,,,,,,41.53883350000251,None,0.0008307800017064437,None,43.66128680000111,None,"['3', 'return']","[1.1976214000023901, 1.5432074999989709]",44.68155430000479,None,44.68155430000479,None,44.68155430000479,45.69186669999908,,,,,,,,,,,,,,,,,,,,,,,,,,,,,1,001,2021_Nov_17_2318,eeg_contingent_digits,2021.2.3,60.04988944704085,
,,,,,2.0,4.0,9.0,2.0,7.0,1.0,1.0,0.0,,,,,,,,,,,,,,,,0,2,2,2,,,,,,,,,,,,,,,,,,,,,,,,,,,,,,,,,,,,,None,None,None,None,None,,,,,,,,,,,,,,,,,,,,,,,,1,001,2021_Nov_17_2318,eeg_contingent_digits,2021.2.3,60.04988944704085,
,,,,,3.0,6.0,2.0,9.0,33.0,1.0,0.0,-0.0,,,,,,,,,,,,,,,,0,3,3,3,0,0,0,0,,,,,,,,,,,,,,,,,,,46.33879920000618,None,0.01595479999377858,None,48.45797880000464,None,"['3', 'return']","[0.6037183999942499, 0.9745970000003581]",49.463358400003926,None,49.463358400003926,None,49.463358400003926,None,,,,,,,,,,,,,,,,,,,,,,,,,,,,,1,001,2021_Nov_17_2318,eeg_contingent_digits,2021.2.3,60.04988944704085,
,,,,,3.0,6.0,2.0,9.0,33.0,1.0,0.0,-0.0,,,,,,,,,,,,,,,,0,3,3,3,,,,,,,,,,,,,,,,,,,,,,,,,,,,,,,,,,,,,50.64332760000252,None,return,50.64332760000252,None,0.9150285000068834,,,,,,,,,,,,,,,,,,,,,,,1,001,2021_Nov_17_2318,eeg_contingent_digits,2021.2.3,60.04988944704085,
0.0,3.0,8.0,6.0,14.0,,,,,,,,,0.0,1.0,0.0,,,,,,,,,,,,,,,,,,,,,0,0,0,0,0,0,0,0,,,,,,,,,,,,,,,,,,,,,,,,,,,,,,,51.600705700002436,None,53.00057630000083,None,53.00057630000083,None,53.00057630000083,None,56.988330200001656,None,0.005177080005523749,None,['return'],[2.4030011000068043],58.39413230000355,None,,,,,,,1,001,2021_Nov_17_2318,eeg_contingent_digits,2021.2.3,60.04988944704085,
0.0,3.0,8.0,6.0,14.0,,,,,,,,,0.0,1.0,0.0,,,,,,,,,,,,,,,,,,,,,0,0,0,0,,,,,,,,,,,,,,,,,,,,,,,,,,,,,,,,,,,,,,,,,,,,,,,,,,,None,None,None,None,None,,1,001,2021_Nov_17_2318,eeg_contingent_digits,2021.2.3,60.04988944704085,
1.0,5.0,6.0,8.0,13.0,,,,,,,,,0.0,0.0,1.0,,,,,,,,,,,,,,,,,,,,,0,1,1,1,0,0,0,0,,,,,,,,,,,,,,,,,,,,,,,,,,,,,,,,,60.88204770000448,None,60.88204770000448,None,60.88204770000448,None,65.94796920000226,None,0.005052479995356407,None,['return'],[1.351759100005438],67.36242750000383,None,,,,,,,1,001,2021_Nov_17_2318,eeg_contingent_digits,2021.2.3,60.04988944704085,
1.0,5.0,6.0,8.0,13.0,,,,,,,,,0.0,0.0,1.0,,,,,,,,,,,,,,,,,,,,,0,1,1,1,,,,,,,,,,,,,,,,,,,,,,,,,,,,,,,,,,,,,,,,,,,,,,,,,,,None,None,None,None,None,,1,001,2021_Nov_17_2318,eeg_contingent_digits,2021.2.3,60.04988944704085,
2.0,8.0,2.0,6.0,21.0,,,,,,,,,0.0,1.0,0.0,,,,,,,,,,,,,,,,,,,,,0,2,2,2,0,0,0,0,,,,,,,,,,,,,,,,,,,,,,,,,,,,,,,,,68.78568130000349,None,68.78568130000349,None,68.78568130000349,None,72.40680440000142,None,0.004380059996037744,None,['return'],[0.8605142000014894],73.81043270000373,None,,,,,,,1,001,2021_Nov_17_2318,eeg_contingent_digits,2021.2.3,60.04988944704085,
2.0,8.0,2.0,6.0,21.0,,,,,,,,,0.0,1.0,0.0,,,,,,,,,,,,,,,,,,,,,0,2,2,2,,,,,,,,,,,,,,,,,,,,,,,,,,,,,,,,,,,,,,,,,,,,,,,,,,,None,None,None,None,None,,1,001,2021_Nov_17_2318,eeg_contingent_digits,2021.2.3,60.04988944704085,
3.0,3.0,1.0,8.0,21.0,,,,,,,,,0.0,0.0,1.0,,,,,,,,,,,,,,,,,,,,,0,3,3,3,0,0,0,0,,,,,,,,,,,,,,,,,,,,,,,,,,,,,,,,,74.73335890000453,None,74.73335890000453,None,74.73335890000453,None,79.4185507000002,None,0.01010904000577284,None,['return'],[0.6124968000003719],80.82619690000138,None,,,,,,,1,001,2021_Nov_17_2318,eeg_contingent_digits,2021.2.3,60.04988944704085,
3.0,3.0,1.0,8.0,21.0,,,,,,,,,0.0,0.0,1.0,,,,,,,,,,,,,,,,,,,,,0,3,3,3,,,,,,,,,,,,,,,,,,,,,,,,,,,,,,,,,,,,,,,,,,,,,,,,,,,None,None,None,None,None,,1,001,2021_Nov_17_2318,eeg_contingent_digits,2021.2.3,60.04988944704085,
4.0,5.0,1.0,9.0,49.0,,,,,,,,,0.0,1.0,0.0,,,,,,,,,,,,,,,,,,,,,0,4,4,4,0,0,0,0,,,,,,,,,,,,,,,,,,,,,,,,,,,,,,,,,81.50142910000432,None,81.50142910000432,None,81.50142910000432,None,99.93106110000372,None,0.01031127999885939,None,['return'],[1.0286912000010489],101.34201140000368,None,,,,,,,1,001,2021_Nov_17_2318,eeg_contingent_digits,2021.2.3,60.04988944704085,
4.0,5.0,1.0,9.0,49.0,,,,,,,,,0.0,1.0,0.0,,,,,,,,,,,,,,,,,,,,,0,4,4,4,,,,,,,,,,,,,,,,,,,,,,,,,,,,,,,,,,,,,,,,,,,,,,,,,,,None,None,None,None,None,,1,001,2021_Nov_17_2318,eeg_contingent_digits,2021.2.3,60.04988944704085,
5.0,2.0,1.0,2.0,10.0,,,,,,,,,0.0,0.0,1.0,,,,,,,,,,,,,,,,,,,,,0,5,5,5,0,0,0,0,,,,,,,,,,,,,,,,,,,,,,,,,,,,,,,,,102.43366910000623,None,102.43366910000623,None,102.43366910000623,None,108.49953930000629,None,0.001041759991494473,None,['return'],[0.6727237000013702],109.9072626000052,None,,,,,,,1,001,2021_Nov_17_2318,eeg_contingent_digits,2021.2.3,60.04988944704085,
5.0,2.0,1.0,2.0,10.0,,,,,,,,,0.0,0.0,1.0,,,,,,,,,,,,,,,,,,,,,0,5,5,5,,,,,,,,,,,,,,,,,,,,,,,,,,,,,,,,,,,,,,,,,,,,,,,,,,,None,None,None,None,None,,1,001,2021_Nov_17_2318,eeg_contingent_digits,2021.2.3,60.04988944704085,
6.0,3.0,4.0,8.0,13.0,,,,,,,,,0.0,1.0,0.0,,,,,,,,,,,,,,,,,,,,,0,6,6,6,0,0,0,0,,,,,,,,,,,,,,,,,,,,,,,,,,,,,,,,,110.64852149999933,None,110.64852149999933,None,110.64852149999933,None,126.4907999000061,None,0.013491840007191058,None,['return'],[0.607241099998646],127.90588040000148,None,,,,,,,1,001,2021_Nov_17_2318,eeg_contingent_digits,2021.2.3,60.04988944704085,
6.0,3.0,4.0,8.0,13.0,,,,,,,,,0.0,1.0,0.0,,,,,,,,,,,,,,,,,,,,,0,6,6,6,,,,,,,,,,,,,,,,,,,,,,,,,,,,,,,,,,,,,,,,,,,,,,,,,,,None,None,None,None,None,,1,001,2021_Nov_17_2318,eeg_contingent_digits,2021.2.3,60.04988944704085,
7.0,5.0,8.0,6.0,1.0,,,,,,,,,0.0,0.0,-1.0,,,,,,,,,,,,,,,,,,,,,0,7,7,7,0,0,0,0,,,,,,,,,,,,,,,,,,,,,,,,,,,,,,,,,128.58018260000244,None,128.58018260000244,None,128.58018260000244,None,132.63184990000445,None,0.010091979995195288,None,['return'],[0.6209738999968977],134.04006970000046,None,,,,,,,1,001,2021_Nov_17_2318,eeg_contingent_digits,2021.2.3,60.04988944704085,
7.0,5.0,8.0,6.0,1.0,,,,,,,,,0.0,0.0,-1.0,,,,,,,,,,,,,,,,,,,,,0,7,7,7,,,,,,,,,,,,,,,,,,,,,,,,,,,,,,,,,,,,,,,,,,,,,,,,,,,134.78399670000363,None,return,134.78399670000363,None,1.0656478000018978,1,001,2021_Nov_17_2318,eeg_contingent_digits,2021.2.3,60.04988944704085,
8.0,5.0,8.0,2.0,21.0,,,,,,,,,0.0,1.0,0.0,,,,,,,,,,,,,,,,,,,,,0,8,8,8,0,0,0,0,,,,,,,,,,,,,,,,,,,,,,,,,,,,,,,,,135.89197490000515,None,135.89197490000515,None,135.89197490000515,None,142.93792329999997,None,0.007181180008046795,None,['return'],[0.6506254999985686],144.35408889999962,None,,,,,,,1,001,2021_Nov_17_2318,eeg_contingent_digits,2021.2.3,60.04988944704085,
8.0,5.0,8.0,2.0,21.0,,,,,,,,,0.0,1.0,0.0,,,,,,,,,,,,,,,,,,,,,0,8,8,8,,,,,,,,,,,,,,,,,,,,,,,,,,,,,,,,,,,,,,,,,,,,,,,,,,,None,None,None,None,None,,1,001,2021_Nov_17_2318,eeg_contingent_digits,2021.2.3,60.04988944704085,
9.0,1.0,3.0,6.0,49.0,,,,,,,,,0.0,0.0,1.0,,,,,,,,,,,,,,,,,,,,,0,9,9,9,0,0,0,0,,,,,,,,,,,,,,,,,,,,,,,,,,,,,,,,,145.07823479999934,None,145.07823479999934,None,145.07823479999934,None,153.17020790000242,None,0.004726659994048532,None,['return'],[0.687702300005185],154.58785709999938,None,,,,,,,1,001,2021_Nov_17_2318,eeg_contingent_digits,2021.2.3,60.04988944704085,
9.0,1.0,3.0,6.0,49.0,,,,,,,,,0.0,0.0,1.0,,,,,,,,,,,,,,,,,,,,,0,9,9,9,,,,,,,,,,,,,,,,,,,,,,,,,,,,,,,,,,,,,,,,,,,,,,,,,,,None,None,None,None,None,,1,001,2021_Nov_17_2318,eeg_contingent_digits,2021.2.3,60.04988944704085,
10.0,5.0,9.0,3.0,14.0,,,,,,,,,0.0,1.0,0.0,,,,,,,,,,,,,,,,,,,,,0,10,10,10,0,0,0,0,,,,,,,,,,,,,,,,,,,,,,,,,,,,,,,,,155.34916720000183,None,155.34916720000183,None,155.34916720000183,None,161.62376050000603,None,0.008942979991843458,None,['return'],[0.9661469999991823],163.03794780000317,None,,,,,,,1,001,2021_Nov_17_2318,eeg_contingent_digits,2021.2.3,60.04988944704085,
10.0,5.0,9.0,3.0,14.0,,,,,,,,,0.0,1.0,0.0,,,,,,,,,,,,,,,,,,,,,0,10,10,10,,,,,,,,,,,,,,,,,,,,,,,,,,,,,,,,,,,,,,,,,,,,,,,,,,,None,None,None,None,None,,1,001,2021_Nov_17_2318,eeg_contingent_digits,2021.2.3,60.04988944704085,
11.0,6.0,8.0,5.0,21.0,,,,,,,,,0.0,0.0,0.0,,,,,,,,,,,,,,,,,,,,,0,11,11,11,0,0,0,0,,,,,,,,,,,,,,,,,,,,,,,,,,,,,,,,,164.07798750000075,None,164.07798750000075,None,164.07798750000075,None,170.39942440000596,None,0.005787079993751831,None,['return'],[0.6963198000012198],171.80289260000427,None,,,,,,,1,001,2021_Nov_17_2318,eeg_contingent_digits,2021.2.3,60.04988944704085,
11.0,6.0,8.0,5.0,21.0,,,,,,,,,0.0,0.0,0.0,,,,,,,,,,,,,,,,,,,,,0,11,11,11,,,,,,,,,,,,,,,,,,,,,,,,,,,,,,,,,,,,,,,,,,,,,,,,,,,None,None,None,None,None,,1,001,2021_Nov_17_2318,eeg_contingent_digits,2021.2.3,60.04988944704085,
12.0,1.0,3.0,0.0,61.0,,,,,,,,,0.0,1.0,0.0,,,,,,,,,,,,,,,,,,,,,0,12,12,12,0,0,0,0,,,,,,,,,,,,,,,,,,,,,,,,,,,,,,,,,172.55949640000472,None,172.55949640000472,None,172.55949640000472,None,174.94177270000364,None,0.000665879990265239,None,['return'],[0.5821692000026815],176.34859110000252,None,,,,,,,1,001,2021_Nov_17_2318,eeg_contingent_digits,2021.2.3,60.04988944704085,
12.0,1.0,3.0,0.0,61.0,,,,,,,,,0.0,1.0,0.0,,,,,,,,,,,,,,,,,,,,,0,12,12,12,,,,,,,,,,,,,,,,,,,,,,,,,,,,,,,,,,,,,,,,,,,,,,,,,,,None,None,None,None,None,,1,001,2021_Nov_17_2318,eeg_contingent_digits,2021.2.3,60.04988944704085,
13.0,6.0,9.0,2.0,10.0,,,,,,,,,0.0,0.0,-1.0,,,,,,,,,,,,,,,,,,,,,0,13,13,13,0,0,0,0,,,,,,,,,,,,,,,,,,,,,,,,,,,,,,,,,177.00330560000293,None,177.00330560000293,None,177.00330560000293,None,179.03504919999978,None,0.01531948000047123,None,['return'],[0.5643857000031858],180.45217600000615,None,,,,,,,1,001,2021_Nov_17_2318,eeg_contingent_digits,2021.2.3,60.04988944704085,
13.0,6.0,9.0,2.0,10.0,,,,,,,,,0.0,0.0,-1.0,,,,,,,,,,,,,,,,,,,,,0,13,13,13,,,,,,,,,,,,,,,,,,,,,,,,,,,,,,,,,,,,,,,,,,,,,,,,,,,None,None,None,None,None,,1,001,2021_Nov_17_2318,eeg_contingent_digits,2021.2.3,60.04988944704085,
14.0,2.0,1.0,8.0,7.0,,,,,,,,,0.0,1.0,0.0,,,,,,,,,,,,,,,,,,,,,0,14,14,14,0,0,0,0,,,,,,,,,,,,,,,,,,,,,,,,,,,,,,,,,181.09311320000415,None,181.09311320000415,None,181.09311320000415,None,183.31524500000523,None,0.005783759996120352,None,['return'],[0.6200552000009338],184.7181223000007,None,,,,,,,1,001,2021_Nov_17_2318,eeg_contingent_digits,2021.2.3,60.04988944704085,
14.0,2.0,1.0,8.0,7.0,,,,,,,,,0.0,1.0,0.0,,,,,,,,,,,,,,,,,,,,,0,14,14,14,,,,,,,,,,,,,,,,,,,,,,,,,,,,,,,,,,,,,,,,,,,,,,,,,,,None,None,None,None,None,,1,001,2021_Nov_17_2318,eeg_contingent_digits,2021.2.3,60.04988944704085,
15.0,2.0,5.0,8.0,10.0,,,,,,,,,0.0,0.0,2.0,,,,,,,,,,,,,,,,,,,,,0,15,15,15,0,0,0,0,,,,,,,,,,,,,,,,,,,,,,,,,,,,,,,,,185.4205879000001,None,185.4205879000001,None,185.4205879000001,None,189.71936920000007,None,0.0017815600003814325,None,['return'],[0.5932659999962198],191.1351630000063,None,,,,,,,1,001,2021_Nov_17_2318,eeg_contingent_digits,2021.2.3,60.04988944704085,
15.0,2.0,5.0,8.0,10.0,,,,,,,,,0.0,0.0,2.0,,,,,,,,,,,,,,,,,,,,,0,15,15,15,,,,,,,,,,,,,,,,,,,,,,,,,,,,,,,,,,,,,,,,,,,,,,,,,,,191.84298190000118,None,return,191.84298190000118,None,1.1282236000042758,1,001,2021_Nov_17_2318,eeg_contingent_digits,2021.2.3,60.04988944704085,
16.0,2.0,5.0,1.0,7.0,,,,,,,,,0.0,1.0,0.0,,,,,,,,,,,,,,,,,,,,,0,16,16,16,0,0,0,0,,,,,,,,,,,,,,,,,,,,,,,,,,,,,,,,,193.01975550000498,None,193.01975550000498,None,193.01975550000498,None,198.03983739999967,None,0.0009454599930904806,None,['return'],[1.2885256000008667],199.45199739999953,None,,,,,,,1,001,2021_Nov_17_2318,eeg_contingent_digits,2021.2.3,60.04988944704085,
16.0,2.0,5.0,1.0,7.0,,,,,,,,,0.0,1.0,0.0,,,,,,,,,,,,,,,,,,,,,0,16,16,16,,,,,,,,,,,,,,,,,,,,,,,,,,,,,,,,,,,,,,,,,,,,,,,,,,,None,None,None,None,None,,1,001,2021_Nov_17_2318,eeg_contingent_digits,2021.2.3,60.04988944704085,
17.0,9.0,8.0,1.0,21.0,,,,,,,,,0.0,0.0,-2.0,,,,,,,,,,,,,,,,,,,,,0,17,17,17,0,0,0,0,,,,,,,,,,,,,,,,,,,,,,,,,,,,,,,,,200.8199792000014,None,200.8199792000014,None,200.8199792000014,None,203.92817180000566,None,0.011238779996347148,None,['return'],[1.3232280000011087],205.33439680000447,None,,,,,,,1,001,2021_Nov_17_2318,eeg_contingent_digits,2021.2.3,60.04988944704085,
17.0,9.0,8.0,1.0,21.0,,,,,,,,,0.0,0.0,-2.0,,,,,,,,,,,,,,,,,,,,,0,17,17,17,,,,,,,,,,,,,,,,,,,,,,,,,,,,,,,,,,,,,,,,,,,,,,,,,,,None,None,None,None,None,,1,001,2021_Nov_17_2318,eeg_contingent_digits,2021.2.3,60.04988944704085,
18.0,5.0,1.0,6.0,33.0,,,,,,,,,0.0,1.0,0.0,,,,,,,,,,,,,,,,,,,,,0,18,18,18,0,0,0,0,,,,,,,,,,,,,,,,,,,,,,,,,,,,,,,,,206.7229232000027,None,206.7229232000027,None,206.7229232000027,None,217.6951560000016,None,0.009598339995136485,None,['return'],[0.8236334000030183],219.10034710000036,None,,,,,,,1,001,2021_Nov_17_2318,eeg_contingent_digits,2021.2.3,60.04988944704085,
18.0,5.0,1.0,6.0,33.0,,,,,,,,,0.0,1.0,0.0,,,,,,,,,,,,,,,,,,,,,0,18,18,18,,,,,,,,,,,,,,,,,,,,,,,,,,,,,,,,,,,,,,,,,,,,,,,,,,,None,None,None,None,None,,1,001,2021_Nov_17_2318,eeg_contingent_digits,2021.2.3,60.04988944704085,
19.0,3.0,8.0,9.0,49.0,,,,,,,,,0.0,0.0,-2.0,,,,,,,,,,,,,,,,,,,,,0,19,19,19,0,0,0,0,,,,,,,,,,,,,,,,,,,,,,,,,,,,,,,,,219.99084560000483,None,219.99084560000483,None,219.99084560000483,None,223.06667870000092,None,0.009042979996593203,None,['return'],[0.5682009000011021],224.48037900000054,None,,,,,,,1,001,2021_Nov_17_2318,eeg_contingent_digits,2021.2.3,60.04988944704085,
19.0,3.0,8.0,9.0,49.0,,,,,,,,,0.0,0.0,-2.0,,,,,,,,,,,,,,,,,,,,,0,19,19,19,,,,,,,,,,,,,,,,,,,,,,,,,,,,,,,,,,,,,,,,,,,,,,,,,,,None,None,None,None,None,,1,001,2021_Nov_17_2318,eeg_contingent_digits,2021.2.3,60.04988944704085,
20.0,1.0,6.0,8.0,33.0,,,,,,,,,0.0,1.0,0.0,,,,,,,,,,,,,,,,,,,,,0,20,20,20,0,0,0,0,,,,,,,,,,,,,,,,,,,,,,,,,,,,,,,,,225.12655410000298,None,225.12655410000298,None,225.12655410000298,None,235.73785170000338,None,0.015252279998094309,None,['return'],[1.3375008000002708],237.14912980000372,None,,,,,,,1,001,2021_Nov_17_2318,eeg_contingent_digits,2021.2.3,60.04988944704085,
20.0,1.0,6.0,8.0,33.0,,,,,,,,,0.0,1.0,0.0,,,,,,,,,,,,,,,,,,,,,0,20,20,20,,,,,,,,,,,,,,,,,,,,,,,,,,,,,,,,,,,,,,,,,,,,,,,,,,,None,None,None,None,None,,1,001,2021_Nov_17_2318,eeg_contingent_digits,2021.2.3,60.04988944704085,
21.0,5.0,2.0,6.0,61.0,,,,,,,,,0.0,0.0,0.0,,,,,,,,,,,,,,,,,,,,,0,21,21,21,0,0,0,0,,,,,,,,,,,,,,,,,,,,,,,,,,,,,,,,,238.55578370000148,None,238.55578370000148,None,238.55578370000148,None,243.57512140000472,None,0.01022093999927165,None,['return'],[0.9803704000005382],244.98074050000287,None,,,,,,,1,001,2021_Nov_17_2318,eeg_contingent_digits,2021.2.3,60.04988944704085,
21.0,5.0,2.0,6.0,61.0,,,,,,,,,0.0,0.0,0.0,,,,,,,,,,,,,,,,,,,,,0,21,21,21,,,,,,,,,,,,,,,,,,,,,,,,,,,,,,,,,,,,,,,,,,,,,,,,,,,None,None,None,None,None,,1,001,2021_Nov_17_2318,eeg_contingent_digits,2021.2.3,60.04988944704085,
22.0,6.0,4.0,2.0,1.0,,,,,,,,,0.0,1.0,0.0,,,,,,,,,,,,,,,,,,,,,0,22,22,22,0,0,0,0,,,,,,,,,,,,,,,,,,,,,,,,,,,,,,,,,246.02926670000306,None,246.02926670000306,None,246.02926670000306,None,255.6406436000034,None,0.011476979998406023,None,['return'],[1.5904521999982535],257.0468164000049,None,,,,,,,1,001,2021_Nov_17_2318,eeg_contingent_digits,2021.2.3,60.04988944704085,
22.0,6.0,4.0,2.0,1.0,,,,,,,,,0.0,1.0,0.0,,,,,,,,,,,,,,,,,,,,,0,22,22,22,,,,,,,,,,,,,,,,,,,,,,,,,,,,,,,,,,,,,,,,,,,,,,,,,,,None,None,None,None,None,,1,001,2021_Nov_17_2318,eeg_contingent_digits,2021.2.3,60.04988944704085,
23.0,1.0,6.0,4.0,1.0,,,,,,,,,0.0,0.0,1.0,,,,,,,,,,,,,,,,,,,,,0,23,23,23,0,0,0,0,,,,,,,,,,,,,,,,,,,,,,,,,,,,,,,,,258.72361739999906,None,258.72361739999906,None,258.72361739999906,None,269.40128010000626,None,0.010872680002648849,None,['return'],[1.1691979999959585],270.8120707000053,None,,,,,,,1,001,2021_Nov_17_2318,eeg_contingent_digits,2021.2.3,60.04988944704085,
23.0,1.0,6.0,4.0,1.0,,,,,,,,,0.0,0.0,1.0,,,,,,,,,,,,,,,,,,,,,0,23,23,23,,,,,,,,,,,,,,,,,,,,,,,,,,,,,,,,,,,,,,,,,,,,,,,,,,,272.06390880000254,None,return,272.06390880000254,None,2.1069177000026684,1,001,2021_Nov_17_2318,eeg_contingent_digits,2021.2.3,60.04988944704085,
24.0,9.0,6.0,5.0,14.0,,,,,,,,,0.0,1.0,0.0,,,,,,,,,,,,,,,,,,,,,0,24,24,24,0,0,0,0,,,,,,,,,,,,,,,,,,,,,,,,,,,,,,,,,274.21085680000397,None,274.21085680000397,None,274.21085680000397,None,277.06576200000563,None,0.01241625999682583,None,['return'],[0.5903636000002734],278.47774810000556,None,,,,,,,1,001,2021_Nov_17_2318,eeg_contingent_digits,2021.2.3,60.04988944704085,
24.0,9.0,6.0,5.0,14.0,,,,,,,,,0.0,1.0,0.0,,,,,,,,,,,,,,,,,,,,,0,24,24,24,,,,,,,,,,,,,,,,,,,,,,,,,,,,,,,,,,,,,,,,,,,,,,,,,,,None,None,None,None,None,,1,001,2021_Nov_17_2318,eeg_contingent_digits,2021.2.3,60.04988944704085,
25.0,8.0,4.0,0.0,7.0,,,,,,,,,0.0,0.0,-2.0,,,,,,,,,,,,,,,,,,,,,0,25,25,25,0,0,0,0,,,,,,,,,,,,,,,,,,,,,,,,,,,,,,,,,279.13720309999917,None,279.13720309999917,None,279.13720309999917,None,281.1713483000058,None,0.0012030599973513745,None,['return'],[0.40829610000218963],282.5779602000039,None,,,,,,,1,001,2021_Nov_17_2318,eeg_contingent_digits,2021.2.3,60.04988944704085,
25.0,8.0,4.0,0.0,7.0,,,,,,,,,0.0,0.0,-2.0,,,,,,,,,,,,,,,,,,,,,0,25,25,25,,,,,,,,,,,,,,,,,,,,,,,,,,,,,,,,,,,,,,,,,,,,,,,,,,,None,None,None,None,None,,1,001,2021_Nov_17_2318,eeg_contingent_digits,2021.2.3,60.04988944704085,
26.0,6.0,8.0,4.0,21.0,,,,,,,,,0.0,1.0,0.0,,,,,,,,,,,,,,,,,,,,,0,26,26,26,0,0,0,0,,,,,,,,,,,,,,,,,,,,,,,,,,,,,,,,,283.0554140000022,None,283.0554140000022,None,283.0554140000022,None,288.46875010000076,None,0.0045260799961397424,None,['return'],[1.0817959000050905],289.8782705000049,None,,,,,,,1,001,2021_Nov_17_2318,eeg_contingent_digits,2021.2.3,60.04988944704085,
26.0,6.0,8.0,4.0,21.0,,,,,,,,,0.0,1.0,0.0,,,,,,,,,,,,,,,,,,,,,0,26,26,26,,,,,,,,,,,,,,,,,,,,,,,,,,,,,,,,,,,,,,,,,,,,,,,,,,,None,None,None,None,None,,1,001,2021_Nov_17_2318,eeg_contingent_digits,2021.2.3,60.04988944704085,
27.0,9.0,5.0,2.0,1.0,,,,,,,,,0.0,0.0,-1.0,,,,,,,,,,,,,,,,,,,,,0,27,27,27,0,0,0,0,,,,,,,,,,,,,,,,,,,,,,,,,,,,,,,,,291.0407467000041,None,291.0407467000041,None,291.0407467000041,None,295.5095991000053,None,0.005645179997372907,None,['return'],[0.7058327000049758],296.92577110000275,None,,,,,,,1,001,2021_Nov_17_2318,eeg_contingent_digits,2021.2.3,60.04988944704085,
27.0,9.0,5.0,2.0,1.0,,,,,,,,,0.0,0.0,-1.0,,,,,,,,,,,,,,,,,,,,,0,27,27,27,,,,,,,,,,,,,,,,,,,,,,,,,,,,,,,,,,,,,,,,,,,,,,,,,,,None,None,None,None,None,,1,001,2021_Nov_17_2318,eeg_contingent_digits,2021.2.3,60.04988944704085,
28.0,9.0,8.0,0.0,48.0,,,,,,,,,0.0,1.0,0.0,,,,,,,,,,,,,,,,,,,,,0,28,28,28,0,0,0,0,,,,,,,,,,,,,,,,,,,,,,,,,,,,,,,,,297.7137170999995,None,297.7137170999995,None,297.7137170999995,None,300.3742757,None,0.006442179997975472,None,['return'],[1.3599562999952468],301.79313150000235,None,,,,,,,1,001,2021_Nov_17_2318,eeg_contingent_digits,2021.2.3,60.04988944704085,
28.0,9.0,8.0,0.0,48.0,,,,,,,,,0.0,1.0,0.0,,,,,,,,,,,,,,,,,,,,,0,28,28,28,,,,,,,,,,,,,,,,,,,,,,,,,,,,,,,,,,,,,,,,,,,,,,,,,,,None,None,None,None,None,,1,001,2021_Nov_17_2318,eeg_contingent_digits,2021.2.3,60.04988944704085,
29.0,1.0,4.0,0.0,1.0,,,,,,,,,0.0,0.0,-0.0,,,,,,,,,,,,,,,,,,,,,0,29,29,29,0,0,0,0,,,,,,,,,,,,,,,,,,,,,,,,,,,,,,,,,303.21265230000427,None,303.21265230000427,None,303.21265230000427,None,305.9404610000056,None,0.013476680003805086,None,['return'],[0.5278009999965434],307.35906510000495,None,,,,,,,1,001,2021_Nov_17_2318,eeg_contingent_digits,2021.2.3,60.04988944704085,
29.0,1.0,4.0,0.0,1.0,,,,,,,,,0.0,0.0,-0.0,,,,,,,,,,,,,,,,,,,,,0,29,29,29,,,,,,,,,,,,,,,,,,,,,,,,,,,,,,,,,,,,,,,,,,,,,,,,,,,None,None,None,None,None,,1,001,2021_Nov_17_2318,eeg_contingent_digits,2021.2.3,60.04988944704085,
30.0,1.0,5.0,2.0,14.0,,,,,,,,,0.0,1.0,0.0,,,,,,,,,,,,,,,,,,,,,0,30,30,30,0,0,0,0,,,,,,,,,,,,,,,,,,,,,,,,,,,,,,,,,307.95148200000403,None,307.95148200000403,None,307.95148200000403,None,317.3330203000005,None,2.3959990357980132e-05,None,['return'],[0.6135036999985459],318.74089939999976,None,,,,,,,1,001,2021_Nov_17_2318,eeg_contingent_digits,2021.2.3,60.04988944704085,
30.0,1.0,5.0,2.0,14.0,,,,,,,,,0.0,1.0,0.0,,,,,,,,,,,,,,,,,,,,,0,30,30,30,,,,,,,,,,,,,,,,,,,,,,,,,,,,,,,,,,,,,,,,,,,,,,,,,,,None,None,None,None,None,,1,001,2021_Nov_17_2318,eeg_contingent_digits,2021.2.3,60.04988944704085,
31.0,5.0,1.0,3.0,21.0,,,,,,,,,0.0,0.0,2.0,,,,,,,,,,,,,,,,,,,,,0,31,31,31,0,0,0,0,,,,,,,,,,,,,,,,,,,,,,,,,,,,,,,,,319.41469979999965,None,319.41469979999965,None,319.41469979999965,None,330.84090260000085,None,0.012702479994914029,None,['return'],[0.6412019000053988],332.25764139999956,None,,,,,,,1,001,2021_Nov_17_2318,eeg_contingent_digits,2021.2.3,60.04988944704085,
31.0,5.0,1.0,3.0,21.0,,,,,,,,,0.0,0.0,2.0,,,,,,,,,,,,,,,,,,,,,0,31,31,31,,,,,,,,,,,,,,,,,,,,,,,,,,,,,,,,,,,,,,,,,,,,,,,,,,,332.9889447000023,None,return,332.9889447000023,None,1.3935464000023785,1,001,2021_Nov_17_2318,eeg_contingent_digits,2021.2.3,60.04988944704085,
