TrialID,NFB_digit1,NFB_digit2,NFB_digit3,Speaker_trial,NV_trial,Triggered_trial,Jitter_trial,practice_block.thisRepN,practice_block.thisTrialN,practice_block.thisN,practice_block.thisIndex,practice_trials.thisRepN,practice_trials.thisTrialN,practice_trials.thisN,practice_trials.thisIndex,response_practice.thisRepN,response_practice.thisTrialN,response_practice.thisN,response_practice.thisIndex,calibration_block.thisRepN,calibration_block.thisTrialN,calibration_block.thisN,calibration_block.thisIndex,exp_trials.thisRepN,exp_trials.thisTrialN,exp_trials.thisN,exp_trials.thisIndex,response_exp.thisRepN,response_exp.thisTrialN,response_exp.thisN,response_exp.thisIndex,Digit1_clear.started,Digit1_clear.stopped,Digit2_clear.started,Digit2_clear.stopped,Digit3_clear.started,Digit3_clear.stopped,response_practice_resp.keys,response_practice_resp.rt,response_practice_resp.started,response_practice_resp.stopped,text_practice_repeat.started,text_practice_repeat.stopped,text.started,text.stopped,text_calibration_repeat.started,text_calibration_repeat.stopped,text_break.started,text_break.stopped,Fixation.started,Fixation.stopped,text_6.started,text_6.stopped,Fixation_Play.started,Fixation_Play.stopped,sound_digit1.started,sound_digit1.stopped,sound_digit2.started,sound_digit2.stopped,sound_digit3.started,sound_digit3.stopped,key_resp.keys,key_resp.rt,key_resp.started,key_resp.stopped,text_nextblock.started,text_nextblock.stopped,response_nextblock.keys,response_nextblock.started,response_nextblock.stopped,response_nextblock.rt,participant,session,date,expName,psychopyVersion,frameRate,
0.0,6.0,2.0,4.0,33.0,,,,0,0,0,0,0,0,0,0,0,0,0,0,,,,,,,,,,,,,0.013320940000994597,None,0.493199939999613,None,0.9763852399992174,None,"['num_6', 'return']","[1.6709073999991233, 2.3828939000013634]",144.06239460000143,None,,,,,,,,,,,,,,,,,,,,,,,,,,,,,,,24,001,2021_Nov_09_1453,eeg_contingent_digits,2021.2.3,59.990737429449524,
0.0,6.0,2.0,4.0,33.0,,,,0,0,0,0,0,0,0,0,1,0,1,0,,,,,,,,,,,,,,,,,,,"['num_2', 'return']","[0.49515210000026855, 0.9431302000011783]",146.47813640000095,None,,,,,,,,,,,,,,,,,,,,,,,,,,,,,,,24,001,2021_Nov_09_1453,eeg_contingent_digits,2021.2.3,59.990737429449524,
0.0,6.0,2.0,4.0,33.0,,,,0,0,0,0,0,0,0,0,2,0,2,0,,,,,,,,,,,,,,,,,,,"['num_4', 'return']","[0.42411920000085956, 0.8641012999978557]",147.46116830000028,None,,,,,,,,,,,,,,,,,,,,,,,,,,,,,,,24,001,2021_Nov_09_1453,eeg_contingent_digits,2021.2.3,59.990737429449524,
0.0,6.0,2.0,4.0,33.0,,,,0,0,0,0,0,0,0,0,,,,,,,,,,,,,,,,,,,,,,,,,,,,,,,,,,,,,,,,,,,,,,,,,,,,,,,,,24,001,2021_Nov_09_1453,eeg_contingent_digits,2021.2.3,59.990737429449524,
1.0,1.0,9.0,3.0,13.0,,,,0,0,0,0,0,1,1,1,0,0,0,0,,,,,,,,,,,,,0.006128140001237625,None,0.47882834000120056,None,0.9619659400013916,None,"['num_1', 'return']","[1.38635499999873, 1.970315300000948]",149.82692650000172,None,,,,,,,,,,,,,,,,,,,,,,,,,,,,,,,24,001,2021_Nov_09_1453,eeg_contingent_digits,2021.2.3,59.990737429449524,
1.0,1.0,9.0,3.0,13.0,,,,0,0,0,0,0,1,1,1,1,0,1,0,,,,,,,,,,,,,,,,,,,"['num_9', 'return']","[0.4105143000015232, 0.8584764000006544]",151.8427761999992,None,,,,,,,,,,,,,,,,,,,,,,,,,,,,,,,24,001,2021_Nov_09_1453,eeg_contingent_digits,2021.2.3,59.990737429449524,
1.0,1.0,9.0,3.0,13.0,,,,0,0,0,0,0,1,1,1,2,0,2,0,,,,,,,,,,,,,,,,,,,"['num_3', 'return']","[0.41484260000288486, 0.8708063000012771]",152.74241560000155,None,,,,,,,,,,,,,,,,,,,,,,,,,,,,,,,24,001,2021_Nov_09_1453,eeg_contingent_digits,2021.2.3,59.990737429449524,
1.0,1.0,9.0,3.0,13.0,,,,0,0,0,0,0,1,1,1,,,,,,,,,,,,,,,,,,,,,,,,,,,,,,,,,,,,,,,,,,,,,,,,,,,,,,,,,24,001,2021_Nov_09_1453,eeg_contingent_digits,2021.2.3,59.990737429449524,
2.0,8.0,0.0,1.0,21.0,,,,0,0,0,0,0,2,2,2,0,0,0,0,,,,,,,,,,,,,0.012351539997325744,None,0.4912361399947258,None,0.9744660399956047,None,"['num_8', 'return']","[1.0876697999992757, 1.4796951999996963]",155.14153090000036,None,,,,,,,,,,,,,,,,,,,,,,,,,,,,,,,24,001,2021_Nov_09_1453,eeg_contingent_digits,2021.2.3,59.990737429449524,
2.0,8.0,0.0,1.0,21.0,,,,0,0,0,0,0,2,2,2,1,0,1,0,,,,,,,,,,,,,,,,,,,"['num_0', 'return']","[0.9475866000029782, 1.3316150999999081]",156.657598400001,None,,,,,,,,,,,,,,,,,,,,,,,,,,,,,,,24,001,2021_Nov_09_1453,eeg_contingent_digits,2021.2.3,59.990737429449524,
2.0,8.0,0.0,1.0,21.0,,,,0,0,0,0,0,2,2,2,2,0,2,0,,,,,,,,,,,,,,,,,,,"['num_1', 'return']","[0.7413919999999052, 1.0854263999972318]",158.02379040000233,None,,,,,,,,,,,,,,,,,,,,,,,,,,,,,,,24,001,2021_Nov_09_1453,eeg_contingent_digits,2021.2.3,59.990737429449524,
2.0,8.0,0.0,1.0,21.0,,,,0,0,0,0,0,2,2,2,,,,,,,,,,,,,,,,,,,,,,,,,,,,,,,,,,,,,,,,,,,,,,,,,,,,,,,,,24,001,2021_Nov_09_1453,eeg_contingent_digits,2021.2.3,59.990737429449524,
3.0,9.0,6.0,1.0,61.0,,,,0,0,0,0,0,3,3,3,0,0,0,0,,,,,,,,,,,,,0.007910840002296027,None,0.48234334000153467,None,0.9488814400028787,None,"['num_9', 'return']","[0.4223712000020896, 0.926416700000118]",160.62279620000118,None,,,,,,,,,,,,,,,,,,,,,,,,,,,,,,,24,001,2021_Nov_09_1453,eeg_contingent_digits,2021.2.3,59.990737429449524,
3.0,9.0,6.0,1.0,61.0,,,,0,0,0,0,0,3,3,3,1,0,1,0,,,,,,,,,,,,,,,,,,,"['num_6', 'return']","[0.5040673000003153, 0.9440867999983311]",161.5890791999991,None,,,,,,,,,,,,,,,,,,,,,,,,,,,,,,,24,001,2021_Nov_09_1453,eeg_contingent_digits,2021.2.3,59.990737429449524,
3.0,9.0,6.0,1.0,61.0,,,,0,0,0,0,0,3,3,3,2,0,2,0,,,,,,,,,,,,,,,,,,,"['num_1', 'return']","[0.4170893000009528, 0.817129200000636]",162.57204550000097,None,,,,,,,,,,,,,,,,,,,,,,,,,,,,,,,24,001,2021_Nov_09_1453,eeg_contingent_digits,2021.2.3,59.990737429449524,
3.0,9.0,6.0,1.0,61.0,,,,0,0,0,0,0,3,3,3,,,,,,,,,,,,,,,,,,,,,,,,,,,,,,,,,,,,,,,,,,,,,,,,,,,,,,,,,24,001,2021_Nov_09_1453,eeg_contingent_digits,2021.2.3,59.990737429449524,
4.0,8.0,1.0,5.0,7.0,,,,0,0,0,0,0,4,4,4,0,0,0,0,,,,,,,,,,,,,0.012640839999221498,None,0.4918329399988579,None,0.9749873399996432,None,"['num_8', 'return']","[0.32530659999974887, 1.117279600002803]",164.88784130000204,None,,,,,,,,,,,,,,,,,,,,,,,,,,,,,,,24,001,2021_Nov_09_1453,eeg_contingent_digits,2021.2.3,59.990737429449524,
4.0,8.0,1.0,5.0,7.0,,,,0,0,0,0,0,4,4,4,1,0,1,0,,,,,,,,,,,,,,,,,,,"['num_1', 'return']","[0.3517403000005288, 1.0477423000011186]",166.03739309999946,None,,,,,,,,,,,,,,,,,,,,,,,,,,,,,,,24,001,2021_Nov_09_1453,eeg_contingent_digits,2021.2.3,59.990737429449524,
4.0,8.0,1.0,5.0,7.0,,,,0,0,0,0,0,4,4,4,2,0,2,0,,,,,,,,,,,,,,,,,,,"['num_5', 'return']","[0.4687962999996671, 0.8608144999998331]",167.12031580000257,None,,,,,,,,,,,,,,,,,,,,,,,,,,,,,,,24,001,2021_Nov_09_1453,eeg_contingent_digits,2021.2.3,59.990737429449524,
4.0,8.0,1.0,5.0,7.0,,,,0,0,0,0,0,4,4,4,,,,,,,,,,,,,,,,,,,,,,,,,,,,,,,,,,,,,,,,,,,,,,,,,,,,,,,,,24,001,2021_Nov_09_1453,eeg_contingent_digits,2021.2.3,59.990737429449524,
5.0,4.0,1.0,0.0,33.0,,,,0,0,0,0,0,5,5,5,0,0,0,0,,,,,,,,,,,,,0.001882969998405315,None,0.4704049699976167,None,0.953560269997979,None,"['num_4', 'return']","[0.11102659999960451, 0.7030033999981242]",169.48610270000063,None,,,,,,,,,,,,,,,,,,,,,,,,,,,,,,,24,001,2021_Nov_09_1453,eeg_contingent_digits,2021.2.3,59.990737429449524,
5.0,4.0,1.0,0.0,33.0,,,,0,0,0,0,0,5,5,5,1,0,1,0,,,,,,,,,,,,,,,,,,,"['num_1', 'return']","[0.38523129999884986, 0.8572701000011875]",170.23584250000204,None,,,,,,,,,,,,,,,,,,,,,,,,,,,,,,,24,001,2021_Nov_09_1453,eeg_contingent_digits,2021.2.3,59.990737429449524,
5.0,4.0,1.0,0.0,33.0,,,,0,0,0,0,0,5,5,5,2,0,2,0,,,,,,,,,,,,,,,,,,,"['num_0', 'return']","[0.5255701000023691, 0.9095894000020053]",171.13550600000235,None,,,,,,,,,,,,,,,,,,,,,,,,,,,,,,,24,001,2021_Nov_09_1453,eeg_contingent_digits,2021.2.3,59.990737429449524,
5.0,4.0,1.0,0.0,33.0,,,,0,0,0,0,0,5,5,5,,,,,,,,,,,,,,,,,,,,,,,,,,,,,,,,,,,,,,,,,,,,,,,,,,,,,,,,,24,001,2021_Nov_09_1453,eeg_contingent_digits,2021.2.3,59.990737429449524,
6.0,9.0,2.0,6.0,13.0,,,,0,0,0,0,0,6,6,6,0,0,0,0,,,,,,,,,,,,,0.013181039998016786,None,0.4762873399959062,None,0.9593926399975317,None,"['num_9', 'return']","[0.3265189999983704, 0.8145397999978741]",173.53454580000107,None,,,,,,,,,,,,,,,,,,,,,,,,,,,,,,,24,001,2021_Nov_09_1453,eeg_contingent_digits,2021.2.3,59.990737429449524,
6.0,9.0,2.0,6.0,13.0,,,,0,0,0,0,0,6,6,6,1,0,1,0,,,,,,,,,,,,,,,,,,,"['num_2', 'return']","[0.7407817999992403, 1.1407940999997663]",174.38426900000195,None,,,,,,,,,,,,,,,,,,,,,,,,,,,,,,,24,001,2021_Nov_09_1453,eeg_contingent_digits,2021.2.3,59.990737429449524,
6.0,9.0,2.0,6.0,13.0,,,,0,0,0,0,0,6,6,6,2,0,2,0,,,,,,,,,,,,,,,,,,,"['num_6', 'return']","[0.4939334999980929, 0.8779293000006874]",175.56712160000097,None,,,,,,,,,,,,,,,,,,,,,,,,,,,,,,,24,001,2021_Nov_09_1453,eeg_contingent_digits,2021.2.3,59.990737429449524,
6.0,9.0,2.0,6.0,13.0,,,,0,0,0,0,0,6,6,6,,,,,,,,,,,,,,,,,,,,,,,,,,,,,,,,,,,,,,,,,,,,,,,,,,,,,,,,,24,001,2021_Nov_09_1453,eeg_contingent_digits,2021.2.3,59.990737429449524,
7.0,2.0,3.0,0.0,10.0,,,,0,0,0,0,0,7,7,7,0,0,0,0,,,,,,,,,,,,,0.007538339996244758,None,0.48162023999611847,None,0.9647682399954647,None,"['num_2', 'return']","[0.319442900003196, 0.7914439000014681]",177.94956210000237,None,,,,,,,,,,,,,,,,,,,,,,,,,,,,,,,24,001,2021_Nov_09_1453,eeg_contingent_digits,2021.2.3,59.990737429449524,
7.0,2.0,3.0,0.0,10.0,,,,0,0,0,0,0,7,7,7,1,0,1,0,,,,,,,,,,,,,,,,,,,"['num_3', 'return']","[0.4384877000011329, 0.8705216000016662]",178.7825675000022,None,,,,,,,,,,,,,,,,,,,,,,,,,,,,,,,24,001,2021_Nov_09_1453,eeg_contingent_digits,2021.2.3,59.990737429449524,
7.0,2.0,3.0,0.0,10.0,,,,0,0,0,0,0,7,7,7,2,0,2,0,,,,,,,,,,,,,,,,,,,"['num_0', 'return']","[0.5541421999987506, 1.0421416999997746]",179.6988874000017,None,,,,,,,,,,,,,,,,,,,,,,,,,,,,,,,24,001,2021_Nov_09_1453,eeg_contingent_digits,2021.2.3,59.990737429449524,
7.0,2.0,3.0,0.0,10.0,,,,0,0,0,0,0,7,7,7,,,,,,,,,,,,,,,,,,,,,,,,,,,,,,,,,,,,,,,,,,,,,,,,,,,,,,,,,24,001,2021_Nov_09_1453,eeg_contingent_digits,2021.2.3,59.990737429449524,
8.0,1.0,9.0,2.0,48.0,,,,0,0,0,0,0,8,8,8,0,0,0,0,,,,,,,,,,,,,0.005760639993241057,None,0.4948238399956608,None,0.9612129399938567,None,"['num_1', 'return']","[0.22039179999774205, 0.7244190999990678]",182.26462190000166,None,,,,,,,,,,,,,,,,,,,,,,,,,,,,,,,24,001,2021_Nov_09_1453,eeg_contingent_digits,2021.2.3,59.990737429449524,
8.0,1.0,9.0,2.0,48.0,,,,0,0,0,0,0,8,8,8,1,0,1,0,,,,,,,,,,,,,,,,,,,"['num_9', 'return']","[0.48603759999969043, 0.9740750999990269]",183.0309598999993,None,,,,,,,,,,,,,,,,,,,,,,,,,,,,,,,24,001,2021_Nov_09_1453,eeg_contingent_digits,2021.2.3,59.990737429449524,
8.0,1.0,9.0,2.0,48.0,,,,0,0,0,0,0,8,8,8,2,0,2,0,,,,,,,,,,,,,,,,,,,"['num_2', 'return']","[0.30970889999662177, 0.7017047999979695]",184.04728310000064,None,,,,,,,,,,,,,,,,,,,,,,,,,,,,,,,24,001,2021_Nov_09_1453,eeg_contingent_digits,2021.2.3,59.990737429449524,
8.0,1.0,9.0,2.0,48.0,,,,0,0,0,0,0,8,8,8,,,,,,,,,,,,,,,,,,,,,,,,,,,,,,,,,,,,,,,,,,,,,,,,,,,,,,,,,24,001,2021_Nov_09_1453,eeg_contingent_digits,2021.2.3,59.990737429449524,
9.0,8.0,1.0,0.0,21.0,,,,0,0,0,0,0,9,9,9,0,0,0,0,,,,,,,,,,,,,0.00629986999774701,None,0.47915666999688256,None,0.962312869996822,None,"['num_8', 'return']","[0.7098962000018219, 1.2299099000010756]",186.26307910000105,None,,,,,,,,,,,,,,,,,,,,,,,,,,,,,,,24,001,2021_Nov_09_1453,eeg_contingent_digits,2021.2.3,59.990737429449524,
9.0,8.0,1.0,0.0,21.0,,,,0,0,0,0,0,9,9,9,1,0,1,0,,,,,,,,,,,,,,,,,,,"['num_1', 'return']","[0.6109962000009546, 0.9870224000005692]",187.5459461999999,None,,,,,,,,,,,,,,,,,,,,,,,,,,,,,,,24,001,2021_Nov_09_1453,eeg_contingent_digits,2021.2.3,59.990737429449524,
9.0,8.0,1.0,0.0,21.0,,,,0,0,0,0,0,9,9,9,2,0,2,0,,,,,,,,,,,,,,,,,,,"['num_0', 'return']","[0.33011420000184444, 0.6662142000022868]",188.5788496999994,None,,,,,,,,,,,,,,,,,,,,,,,,,,,,,,,24,001,2021_Nov_09_1453,eeg_contingent_digits,2021.2.3,59.990737429449524,
9.0,8.0,1.0,0.0,21.0,,,,0,0,0,0,0,9,9,9,,,,,,,,,,,,,,,,,,,,,,,,,,,,,,,,,,,,,,,,,,,,,,,,,,,,,,,,,24,001,2021_Nov_09_1453,eeg_contingent_digits,2021.2.3,59.990737429449524,
,,,,,,,,0,0,0,0,,,,,,,,,,,,,,,,,,,,,,,,,,,,,,,189.27861400000256,None,,,,,,,,,,,,,,,,,,,,,,,,,,,,,24,001,2021_Nov_09_1453,eeg_contingent_digits,2021.2.3,59.990737429449524,
,,,,,,,,,,,,,,,,,,,,0,0,0,0,,,,,,,,,,,,,,,,,,,,,631.7780325000022,None,732.1067503000013,None,,,,,,,,,,,,,,,,,,,,,,,,,24,001,2021_Nov_09_1453,eeg_contingent_digits,2021.2.3,59.990737429449524,
0.0,1.0,2.0,0.0,33.0,1.0,1.0,0.0,,,,,,,,,,,,,,,,,0,0,0,0,0,0,0,0,,,,,,,,,,,,,,,,,736.3384922000005,None,760.9458015000018,None,760.9458015000018,None,788.9686365000016,790.3680200000017,0.008399280002777232,None,0.4833279800004675,None,0.9664757800019288,None,['return'],[40.26202900000135],790.4179930999999,None,,,,,,,24,001,2021_Nov_09_1453,eeg_contingent_digits,2021.2.3,59.990737429449524,
0.0,1.0,2.0,0.0,33.0,1.0,1.0,0.0,,,,,,,,,,,,,,,,,0,0,0,0,1,0,1,0,,,,,,,,,,,,,,,,,,,,,,,,,,,,,,,['return'],[3.496514300000854],830.7194202999999,None,,,,,,,24,001,2021_Nov_09_1453,eeg_contingent_digits,2021.2.3,59.990737429449524,
0.0,1.0,2.0,0.0,33.0,1.0,1.0,0.0,,,,,,,,,,,,,,,,,0,0,0,0,2,0,2,0,,,,,,,,,,,,,,,,,,,,,,,,,,,,,,,['return'],[0.72450949999984],834.2514403999994,None,,,,,,,24,001,2021_Nov_09_1453,eeg_contingent_digits,2021.2.3,59.990737429449524,
0.0,1.0,2.0,0.0,33.0,1.0,1.0,0.0,,,,,,,,,,,,,,,,,0,0,0,0,,,,,,,,,,,,,,,,,,,,,,,,,,,,,,,,,,,,,,,None,None,None,None,None,,24,001,2021_Nov_09_1453,eeg_contingent_digits,2021.2.3,59.990737429449524,
1.0,0.0,8.0,3.0,49.0,1.0,0.0,1.0,,,,,,,,,,,,,,,,,0,1,1,1,0,0,0,0,,,,,,,,,,,,,,,,,,,835.051119300002,None,835.051119300002,None,841.1154955999991,842.5149598999997,0.009626180002669571,None,0.48579548000270734,None,0.9690314800027409,None,"['num_1', 'return']","[3.1949309000010544, 3.786898900001688]",842.564940100001,None,,,,,,,24,001,2021_Nov_09_1453,eeg_contingent_digits,2021.2.3,59.990737429449524,
1.0,0.0,8.0,3.0,49.0,1.0,0.0,1.0,,,,,,,,,,,,,,,,,0,1,1,1,1,0,1,0,,,,,,,,,,,,,,,,,,,,,,,,,,,,,,,"['num_5', 'return']","[0.6111010999993596, 1.027149499997904]",846.3967100000009,None,,,,,,,24,001,2021_Nov_09_1453,eeg_contingent_digits,2021.2.3,59.990737429449524,
1.0,0.0,8.0,3.0,49.0,1.0,0.0,1.0,,,,,,,,,,,,,,,,,0,1,1,1,2,0,2,0,,,,,,,,,,,,,,,,,,,,,,,,,,,,,,,"['num_6', 'return']","[0.6327237999976205, 0.9927309999984573]",847.4630910000014,None,,,,,,,24,001,2021_Nov_09_1453,eeg_contingent_digits,2021.2.3,59.990737429449524,
1.0,0.0,8.0,3.0,49.0,1.0,0.0,1.0,,,,,,,,,,,,,,,,,0,1,1,1,,,,,,,,,,,,,,,,,,,,,,,,,,,,,,,,,,,,,,,None,None,None,None,None,,24,001,2021_Nov_09_1453,eeg_contingent_digits,2021.2.3,59.990737429449524,
2.0,4.0,9.0,2.0,7.0,1.0,1.0,0.0,,,,,,,,,,,,,,,,,0,2,2,2,0,0,0,0,,,,,,,,,,,,,,,,,,,848.5293528000002,None,848.5293528000002,None,857.709260399999,859.108723100002,0.001418580002791714,None,0.4859874800022226,None,0.952489980001701,None,"['num_5', 'return']","[1.0489981999999145, 1.5530227000017476]",859.1587015000005,None,,,,,,,24,001,2021_Nov_09_1453,eeg_contingent_digits,2021.2.3,59.990737429449524,
2.0,4.0,9.0,2.0,7.0,1.0,1.0,0.0,,,,,,,,,,,,,,,,,0,2,2,2,1,0,1,0,,,,,,,,,,,,,,,,,,,,,,,,,,,,,,,"['num_6', 'return']","[0.5056097000015143, 0.8816303000021435]",860.7580858000001,None,,,,,,,24,001,2021_Nov_09_1453,eeg_contingent_digits,2021.2.3,59.990737429449524,
2.0,4.0,9.0,2.0,7.0,1.0,1.0,0.0,,,,,,,,,,,,,,,,,0,2,2,2,2,0,2,0,,,,,,,,,,,,,,,,,,,,,,,,,,,,,,,"['num_7', 'return']","[0.39741569999750936, 0.6854340999998385]",861.6743623000002,None,,,,,,,24,001,2021_Nov_09_1453,eeg_contingent_digits,2021.2.3,59.990737429449524,
2.0,4.0,9.0,2.0,7.0,1.0,1.0,0.0,,,,,,,,,,,,,,,,,0,2,2,2,,,,,,,,,,,,,,,,,,,,,,,,,,,,,,,,,,,,,,,None,None,None,None,None,,24,001,2021_Nov_09_1453,eeg_contingent_digits,2021.2.3,59.990737429449524,
3.0,6.0,2.0,9.0,33.0,1.0,0.0,-0.0,,,,,,,,,,,,,,,,,0,3,3,3,0,0,0,0,,,,,,,,,,,,,,,,,,,862.4407551000004,None,862.4407551000004,None,871.7206165000025,873.1200551000002,0.014665649996459251,None,0.4959540499985451,None,0.9789982499969483,None,"['num_4', 'return']","[1.0376439000028768, 1.3496405000005325]",873.1700194000005,None,,,,,,,24,001,2021_Nov_09_1453,eeg_contingent_digits,2021.2.3,59.990737429449524,
3.0,6.0,2.0,9.0,33.0,1.0,0.0,-0.0,,,,,,,,,,,,,,,,,0,3,3,3,1,0,1,0,,,,,,,,,,,,,,,,,,,,,,,,,,,,,,,"['num_5', 'return']","[0.40679159999854164, 0.6948011999993469]",874.5528157000008,None,,,,,,,24,001,2021_Nov_09_1453,eeg_contingent_digits,2021.2.3,59.990737429449524,
3.0,6.0,2.0,9.0,33.0,1.0,0.0,-0.0,,,,,,,,,,,,,,,,,0,3,3,3,2,0,2,0,,,,,,,,,,,,,,,,,,,,,,,,,,,,,,,"['num_6', 'return']","[0.745687500002532, 1.001704599999357]",875.2858945000007,None,,,,,,,24,001,2021_Nov_09_1453,eeg_contingent_digits,2021.2.3,59.990737429449524,
3.0,6.0,2.0,9.0,33.0,1.0,0.0,-0.0,,,,,,,,,,,,,,,,,0,3,3,3,,,,,,,,,,,,,,,,,,,,,,,,,,,,,,,,,,,,,,,None,None,None,None,None,,24,001,2021_Nov_09_1453,eeg_contingent_digits,2021.2.3,59.990737429449524,
4.0,5.0,2.0,4.0,7.0,1.0,1.0,0.0,,,,,,,,,,,,,,,,,0,4,4,4,0,0,0,0,,,,,,,,,,,,,,,,,,,876.3521744999998,None,876.3521744999998,None,898.7937027000007,900.1931349000006,0.007251250004628673,None,0.4809913500030234,None,0.9641500500038092,None,"['num_4', 'return']","[8.692231299999548, 9.052216699998098]",900.243136699999,None,,,,,,,24,001,2021_Nov_09_1453,eeg_contingent_digits,2021.2.3,59.990737429449524,
4.0,5.0,2.0,4.0,7.0,1.0,1.0,0.0,,,,,,,,,,,,,,,,,0,4,4,4,1,0,1,0,,,,,,,,,,,,,,,,,,,,,,,,,,,,,,,"['num_5', 'return']","[0.9236863999976777, 1.1077024999976857]",909.3396618000006,None,,,,,,,24,001,2021_Nov_09_1453,eeg_contingent_digits,2021.2.3,59.990737429449524,
4.0,5.0,2.0,4.0,7.0,1.0,1.0,0.0,,,,,,,,,,,,,,,,,0,4,4,4,2,0,2,0,,,,,,,,,,,,,,,,,,,,,,,,,,,,,,,"['num_8', 'return']","[0.3340271999986726, 0.5740425999974832]",910.4892842000008,None,,,,,,,24,001,2021_Nov_09_1453,eeg_contingent_digits,2021.2.3,59.990737429449524,
4.0,5.0,2.0,4.0,7.0,1.0,1.0,0.0,,,,,,,,,,,,,,,,,0,4,4,4,,,,,,,,,,,,,,,,,,,,,,,,,,,,,,,,,,,,,,,None,None,None,None,None,,24,001,2021_Nov_09_1453,eeg_contingent_digits,2021.2.3,59.990737429449524,
5.0,9.0,1.0,2.0,14.0,1.0,0.0,-1.0,,,,,,,,,,,,,,,,,0,5,5,5,0,0,0,0,,,,,,,,,,,,,,,,,,,911.1390451000007,None,911.1390451000007,None,915.2541176000013,916.6535742000015,0.003242750000936212,None,0.4731280499981949,None,0.9562097499983793,None,"['num_5', 'return']","[1.1677374000028067, 1.4716635000004317]",916.7035985000002,None,,,,,,,24,001,2021_Nov_09_1453,eeg_contingent_digits,2021.2.3,59.990737429449524,
5.0,9.0,1.0,2.0,14.0,1.0,0.0,-1.0,,,,,,,,,,,,,,,,,0,5,5,5,1,0,1,0,,,,,,,,,,,,,,,,,,,,,,,,,,,,,,,"['num_6', 'return']","[0.2996824999972887, 0.5716586999988067]",918.2196322000018,None,,,,,,,24,001,2021_Nov_09_1453,eeg_contingent_digits,2021.2.3,59.990737429449524,
5.0,9.0,1.0,2.0,14.0,1.0,0.0,-1.0,,,,,,,,,,,,,,,,,0,5,5,5,2,0,2,0,,,,,,,,,,,,,,,,,,,,,,,,,,,,,,,"['num_7', 'return']","[0.28315420000217273, 0.6191690000014205]",918.836091600002,None,,,,,,,24,001,2021_Nov_09_1453,eeg_contingent_digits,2021.2.3,59.990737429449524,
5.0,9.0,1.0,2.0,14.0,1.0,0.0,-1.0,,,,,,,,,,,,,,,,,0,5,5,5,,,,,,,,,,,,,,,,,,,,,,,,,,,,,,,,,,,,,,,None,None,None,None,None,,24,001,2021_Nov_09_1453,eeg_contingent_digits,2021.2.3,59.990737429449524,
6.0,4.0,2.0,9.0,33.0,1.0,1.0,0.0,,,,,,,,,,,,,,,,,0,6,6,6,0,0,0,0,,,,,,,,,,,,,,,,,,,919.5191605,None,919.5191605,None,922.4014079000008,923.8008698000012,0.013968779996503145,None,0.49455247999503626,None,0.9777240799958236,None,"['num_7', 'return']","[0.5963765000014973, 0.9483733999986725]",923.8508447999993,None,,,,,,,24,001,2021_Nov_09_1453,eeg_contingent_digits,2021.2.3,59.990737429449524,
6.0,4.0,2.0,9.0,33.0,1.0,1.0,0.0,,,,,,,,,,,,,,,,,0,6,6,6,1,0,1,0,,,,,,,,,,,,,,,,,,,,,,,,,,,,,,,"['num_8', 'return']","[0.6053308000009565, 0.8373883999993268]",924.8338676999992,None,,,,,,,24,001,2021_Nov_09_1453,eeg_contingent_digits,2021.2.3,59.990737429449524,
6.0,4.0,2.0,9.0,33.0,1.0,1.0,0.0,,,,,,,,,,,,,,,,,0,6,6,6,2,0,2,0,,,,,,,,,,,,,,,,,,,,,,,,,,,,,,,"['num_9', 'return']","[0.642404300000635, 0.8904029000004812]",925.7167967000023,None,,,,,,,24,001,2021_Nov_09_1453,eeg_contingent_digits,2021.2.3,59.990737429449524,
6.0,4.0,2.0,9.0,33.0,1.0,1.0,0.0,,,,,,,,,,,,,,,,,0,6,6,6,,,,,,,,,,,,,,,,,,,,,,,,,,,,,,,,,,,,,,,None,None,None,None,None,,24,001,2021_Nov_09_1453,eeg_contingent_digits,2021.2.3,59.990737429449524,
7.0,9.0,6.0,3.0,21.0,1.0,0.0,-1.0,,,,,,,,,,,,,,,,,0,7,7,7,0,0,0,0,,,,,,,,,,,,,,,,,,,926.6664813000025,None,926.6664813000025,None,928.749036600002,930.1484770000025,0.01190485000188346,None,0.4903641500022786,None,0.9735506500001065,None,"['num_5', 'return']","[2.8726972000004025, 3.1686756999988575]",930.1984637000023,None,,,,,,,24,001,2021_Nov_09_1453,eeg_contingent_digits,2021.2.3,59.990737429449524,
7.0,9.0,6.0,3.0,21.0,1.0,0.0,-1.0,,,,,,,,,,,,,,,,,0,7,7,7,1,0,1,0,,,,,,,,,,,,,,,,,,,,,,,,,,,,,,,"['num_6', 'return']","[0.2972239000009722, 0.5772322000011627]",933.4139281000025,None,,,,,,,24,001,2021_Nov_09_1453,eeg_contingent_digits,2021.2.3,59.990737429449524,
7.0,9.0,6.0,3.0,21.0,1.0,0.0,-1.0,,,,,,,,,,,,,,,,,0,7,7,7,2,0,2,0,,,,,,,,,,,,,,,,,,,,,,,,,,,,,,,"['num_7', 'return']","[0.608849399999599, 0.8728522999990673]",934.0303191999992,None,,,,,,,24,001,2021_Nov_09_1453,eeg_contingent_digits,2021.2.3,59.990737429449524,
7.0,9.0,6.0,3.0,21.0,1.0,0.0,-1.0,,,,,,,,,,,,,,,,,0,7,7,7,,,,,,,,,,,,,,,,,,,,,,,,,,,,,,,,,,,,,,,None,None,None,None,None,,24,001,2021_Nov_09_1453,eeg_contingent_digits,2021.2.3,59.990737429449524,
8.0,1.0,5.0,9.0,13.0,1.0,1.0,0.0,,,,,,,,,,,,,,,,,0,8,8,8,0,0,0,0,,,,,,,,,,,,,,,,,,,934.963320400002,None,934.963320400002,None,939.045098999999,940.444572299999,0.013101849999657134,None,0.4928000500003691,None,0.9592441499989945,None,"['num_4', 'return']","[3.5445060999991256, 4.128532999999152]",940.4945675000017,None,,,,,,,24,001,2021_Nov_09_1453,eeg_contingent_digits,2021.2.3,59.990737429449524,
8.0,1.0,5.0,9.0,13.0,1.0,1.0,0.0,,,,,,,,,,,,,,,,,0,8,8,8,1,0,1,0,,,,,,,,,,,,,,,,,,,,,,,,,,,,,,,"['num_5', 'return']","[0.33947750000152155, 0.6514969000018027]",944.6596274000003,None,,,,,,,24,001,2021_Nov_09_1453,eeg_contingent_digits,2021.2.3,59.990737429449524,
8.0,1.0,5.0,9.0,13.0,1.0,1.0,0.0,,,,,,,,,,,,,,,,,0,8,8,8,2,0,2,0,,,,,,,,,,,,,,,,,,,,,,,,,,,,,,,"['num_6', 'return']","[0.2723554000003787, 0.5603614999999991]",945.3426939000019,None,,,,,,,24,001,2021_Nov_09_1453,eeg_contingent_digits,2021.2.3,59.990737429449524,
8.0,1.0,5.0,9.0,13.0,1.0,1.0,0.0,,,,,,,,,,,,,,,,,0,8,8,8,,,,,,,,,,,,,,,,,,,,,,,,,,,,,,,,,,,,,,,None,None,None,None,None,,24,001,2021_Nov_09_1453,eeg_contingent_digits,2021.2.3,59.990737429449524,
9.0,0.0,6.0,5.0,21.0,1.0,0.0,2.0,,,,,,,,,,,,,,,,,0,9,9,9,0,0,0,0,,,,,,,,,,,,,,,,,,,945.9591452000022,None,945.9591452000022,None,952.1068176000008,953.5062897999996,0.007297050000488525,None,0.4811311499979638,None,0.9643292500004463,None,"['num_3', 'return']","[4.3706714999971155, 4.682678299999679]",953.5562895000003,None,,,,,,,24,001,2021_Nov_09_1453,eeg_contingent_digits,2021.2.3,59.990737429449524,
9.0,0.0,6.0,5.0,21.0,1.0,0.0,2.0,,,,,,,,,,,,,,,,,0,9,9,9,1,0,1,0,,,,,,,,,,,,,,,,,,,,,,,,,,,,,,,"['num_2', 'return']","[0.28787759999977425, 0.6078484999998182]",958.2711185000007,None,,,,,,,24,001,2021_Nov_09_1453,eeg_contingent_digits,2021.2.3,59.990737429449524,
9.0,0.0,6.0,5.0,21.0,1.0,0.0,2.0,,,,,,,,,,,,,,,,,0,9,9,9,2,0,2,0,,,,,,,,,,,,,,,,,,,,,,,,,,,,,,,"['num_1', 'return']","[0.29404109999813954, 0.5740790999989258]",958.9209009000006,None,,,,,,,24,001,2021_Nov_09_1453,eeg_contingent_digits,2021.2.3,59.990737429449524,
9.0,0.0,6.0,5.0,21.0,1.0,0.0,2.0,,,,,,,,,,,,,,,,,0,9,9,9,,,,,,,,,,,,,,,,,,,,,,,,,,,,,,,,,,,,,,,None,None,None,None,None,,24,001,2021_Nov_09_1453,eeg_contingent_digits,2021.2.3,59.990737429449524,
10.0,4.0,2.0,1.0,33.0,1.0,1.0,0.0,,,,,,,,,,,,,,,,,0,10,10,10,0,0,0,0,,,,,,,,,,,,,,,,,,,959.5540067000002,None,959.5540067000002,None,969.3836169000024,970.7831525000001,0.008645679998153355,None,0.4838289799990889,None,0.9670061799988616,None,"['num_1', 'return']","[8.525722200000018, 8.877703500002099]",970.8330959000014,None,,,,,,,24,001,2021_Nov_09_1453,eeg_contingent_digits,2021.2.3,59.990737429449524,
10.0,4.0,2.0,1.0,33.0,1.0,1.0,0.0,,,,,,,,,,,,,,,,,0,10,10,10,1,0,1,0,,,,,,,,,,,,,,,,,,,,,,,,,,,,,,,"['num_2', 'return']","[0.28442960000029416, 0.5804309000013745]",979.7463554999995,None,,,,,,,24,001,2021_Nov_09_1453,eeg_contingent_digits,2021.2.3,59.990737429449524,
10.0,4.0,2.0,1.0,33.0,1.0,1.0,0.0,,,,,,,,,,,,,,,,,0,10,10,10,2,0,2,0,,,,,,,,,,,,,,,,,,,,,,,,,,,,,,,"['num_3', 'return']","[0.21207940000022063, 0.46001199999955134]",980.3627613000026,None,,,,,,,24,001,2021_Nov_09_1453,eeg_contingent_digits,2021.2.3,59.990737429449524,
10.0,4.0,2.0,1.0,33.0,1.0,1.0,0.0,,,,,,,,,,,,,,,,,0,10,10,10,,,,,,,,,,,,,,,,,,,,,,,,,,,,,,,,,,,,,,,None,None,None,None,None,,24,001,2021_Nov_09_1453,eeg_contingent_digits,2021.2.3,59.990737429449524,
11.0,0.0,5.0,9.0,48.0,1.0,0.0,2.0,,,,,,,,,,,,,,,,,0,11,11,11,0,0,0,0,,,,,,,,,,,,,,,,,,,980.8792916999992,None,980.8792916999992,None,992.824724099999,994.2242409999999,0.004542649996437831,None,0.4756486499973107,None,0.9588371499958157,None,"['num_4', 'return']","[11.70036489999984, 12.04436590000114]",994.2742011000009,None,,,,,,,24,001,2021_Nov_09_1453,eeg_contingent_digits,2021.2.3,59.990737429449524,
11.0,0.0,5.0,9.0,48.0,1.0,0.0,2.0,,,,,,,,,,,,,,,,,0,11,11,11,1,0,1,0,,,,,,,,,,,,,,,,,,,,,,,,,,,,,,,"['num_5', 'return']","[0.2136932000030356, 0.43766320000213454]",1006.3529165,None,,,,,,,24,001,2021_Nov_09_1453,eeg_contingent_digits,2021.2.3,59.990737429449524,
11.0,0.0,5.0,9.0,48.0,1.0,0.0,2.0,,,,,,,,,,,,,,,,,0,11,11,11,2,0,2,0,,,,,,,,,,,,,,,,,,,,,,,,,,,,,,,"['num_6', 'return']","[0.2344740999978967, 0.4265388999992865]",1006.8360816000022,None,,,,,,,24,001,2021_Nov_09_1453,eeg_contingent_digits,2021.2.3,59.990737429449524,
11.0,0.0,5.0,9.0,48.0,1.0,0.0,2.0,,,,,,,,,,,,,,,,,0,11,11,11,,,,,,,,,,,,,,,,,,,,,,,,,,,,,,,,,,,,,,,None,None,None,None,None,,24,001,2021_Nov_09_1453,eeg_contingent_digits,2021.2.3,59.990737429449524,
12.0,0.0,4.0,3.0,61.0,1.0,1.0,0.0,,,,,,,,,,,,,,,,,0,12,12,12,0,0,0,0,,,,,,,,,,,,,,,,,,,1007.3192335999993,None,1007.3192335999993,None,1012.6005556000018,1014.0000481999996,0.00921723999636015,None,0.4849998399949982,None,0.9681287399944267,None,"['num_1', 'return']","[3.852493599999434, 4.2604797999993025]",1014.0500243999995,None,,,,,,,24,001,2021_Nov_09_1453,eeg_contingent_digits,2021.2.3,59.990737429449524,
12.0,0.0,4.0,3.0,61.0,1.0,1.0,0.0,,,,,,,,,,,,,,,,,0,12,12,12,1,0,1,0,,,,,,,,,,,,,,,,,,,,,,,,,,,,,,,"['num_2', 'return']","[0.2581019999997807, 0.5621210999997857]",1018.3483790999999,None,,,,,,,24,001,2021_Nov_09_1453,eeg_contingent_digits,2021.2.3,59.990737429449524,
12.0,0.0,4.0,3.0,61.0,1.0,1.0,0.0,,,,,,,,,,,,,,,,,0,12,12,12,2,0,2,0,,,,,,,,,,,,,,,,,,,,,,,,,,,,,,,"['num_3', 'return']","[0.2423440999991726, 0.5463804999999411]",1018.9481454000015,None,,,,,,,24,001,2021_Nov_09_1453,eeg_contingent_digits,2021.2.3,59.990737429449524,
12.0,0.0,4.0,3.0,61.0,1.0,1.0,0.0,,,,,,,,,,,,,,,,,0,12,12,12,,,,,,,,,,,,,,,,,,,,,,,,,,,,,,,,,,,,,,,None,None,None,None,None,,24,001,2021_Nov_09_1453,eeg_contingent_digits,2021.2.3,59.990737429449524,
13.0,4.0,9.0,0.0,7.0,1.0,0.0,2.0,,,,,,,,,,,,,,,,,0,13,13,13,0,0,0,0,,,,,,,,,,,,,,,,,,,1019.547965400001,None,1019.547965400001,None,1026.9451341000022,1028.3446016000016,0.001105349998397287,None,0.48542715000075987,None,0.9686461499986763,None,"['num_0', 'return']","[2.47590780000246, 2.9477900999991107]",1028.3946049000006,None,,,,,,,24,001,2021_Nov_09_1453,eeg_contingent_digits,2021.2.3,59.990737429449524,
13.0,4.0,9.0,0.0,7.0,1.0,0.0,2.0,,,,,,,,,,,,,,,,,0,13,13,13,1,0,1,0,,,,,,,,,,,,,,,,,,,,,,,,,,,,,,,"['num_1', 'return']","[0.35762460000114515, 1.0136318000004394]",1031.3767647000022,None,,,,,,,24,001,2021_Nov_09_1453,eeg_contingent_digits,2021.2.3,59.990737429449524,
13.0,4.0,9.0,0.0,7.0,1.0,0.0,2.0,,,,,,,,,,,,,,,,,0,13,13,13,2,0,2,0,,,,,,,,,,,,,,,,,,,,,,,,,,,,,,,"['num_0', 'return']","[0.3720376999990549, 0.7799860000013723]",1032.4263735999994,None,,,,,,,24,001,2021_Nov_09_1453,eeg_contingent_digits,2021.2.3,59.990737429449524,
13.0,4.0,9.0,0.0,7.0,1.0,0.0,2.0,,,,,,,,,,,,,,,,,0,13,13,13,,,,,,,,,,,,,,,,,,,,,,,,,,,,,,,,,,,,,,,None,None,None,None,None,,24,001,2021_Nov_09_1453,eeg_contingent_digits,2021.2.3,59.990737429449524,
14.0,0.0,8.0,5.0,48.0,1.0,1.0,0.0,,,,,,,,,,,,,,,,,0,14,14,14,0,0,0,0,,,,,,,,,,,,,,,,,,,1033.2594105000026,None,1033.2594105000026,None,1061.0988997999993,1062.498327199999,0.008026380000956124,None,0.4825889800013101,None,0.9657892799987167,None,"['num_5', 'return']","[7.297114100001636, 7.737175499998557]",1062.5649629,None,,,,,,,24,001,2021_Nov_09_1453,eeg_contingent_digits,2021.2.3,59.990737429449524,
14.0,0.0,8.0,5.0,48.0,1.0,1.0,0.0,,,,,,,,,,,,,,,,,0,14,14,14,1,0,1,0,,,,,,,,,,,,,,,,,,,,,,,,,,,,,,,"['num_6', 'return']","[0.3327334999994491, 0.6927247000021453]",1070.3453530000006,None,,,,,,,24,001,2021_Nov_09_1453,eeg_contingent_digits,2021.2.3,59.990737429449524,
14.0,0.0,8.0,5.0,48.0,1.0,1.0,0.0,,,,,,,,,,,,,,,,,0,14,14,14,2,0,2,0,,,,,,,,,,,,,,,,,,,,,,,,,,,,,,,"['num_5', 'return']","[0.2957689000031678, 0.5756805000019085]",1071.0783895999994,None,,,,,,,24,001,2021_Nov_09_1453,eeg_contingent_digits,2021.2.3,59.990737429449524,
14.0,0.0,8.0,5.0,48.0,1.0,1.0,0.0,,,,,,,,,,,,,,,,,0,14,14,14,,,,,,,,,,,,,,,,,,,,,,,,,,,,,,,,,,,,,,,None,None,None,None,None,,24,001,2021_Nov_09_1453,eeg_contingent_digits,2021.2.3,59.990737429449524,
15.0,8.0,9.0,2.0,48.0,1.0,0.0,-0.0,,,,,,,,,,,,,,,,,0,15,15,15,0,0,0,0,,,,,,,,,,,,,,,,,,,1071.7115446000025,None,1071.7115446000025,None,1076.7762748999994,1078.175721800002,0.009250549996068003,None,0.4850332499954675,None,0.9681862499965064,None,"['num_1', 'return']","[8.011581099999603, 9.419586700001673]",1078.2423560999996,None,,,,,,,24,001,2021_Nov_09_1453,eeg_contingent_digits,2021.2.3,59.990737429449524,
15.0,8.0,9.0,2.0,48.0,1.0,0.0,-0.0,,,,,,,,,,,,,,,,,0,15,15,15,1,0,1,0,,,,,,,,,,,,,,,,,,,,,,,,,,,,,,,"['num_2', 'return']","[0.3485359000005701, 0.6685147999996843]",1087.7054289000007,None,,,,,,,24,001,2021_Nov_09_1453,eeg_contingent_digits,2021.2.3,59.990737429449524,
15.0,8.0,9.0,2.0,48.0,1.0,0.0,-0.0,,,,,,,,,,,,,,,,,0,15,15,15,2,0,2,0,,,,,,,,,,,,,,,,,,,,,,,,,,,,,,,"['num_1', 'return']","[0.31210550000105286, 0.6561685000015132]",1088.4218321000008,None,,,,,,,24,001,2021_Nov_09_1453,eeg_contingent_digits,2021.2.3,59.990737429449524,
15.0,8.0,9.0,2.0,48.0,1.0,0.0,-0.0,,,,,,,,,,,,,,,,,0,15,15,15,,,,,,,,,,,,,,,,,,,,,,,,,,,,,,,,,,,,,,,None,None,None,None,None,,24,001,2021_Nov_09_1453,eeg_contingent_digits,2021.2.3,59.990737429449524,
16.0,1.0,0.0,8.0,10.0,1.0,1.0,0.0,,,,,,,,,,,,,,,,,0,16,16,16,0,0,0,0,,,,,,,,,,,,,,,,,,,1089.1548827000006,None,1089.1548827000006,None,1108.3975916000018,1109.797063500002,0.008520080002199393,None,0.48357038000176544,None,0.9667719800017949,None,"['num_6', 'num_7', 'num_6', 'return']","[4.758697299999767, 5.006674299998849, 6.302666399998998, 6.614669300000969]",1109.8470536000023,None,,,,,,,24,001,2021_Nov_09_1453,eeg_contingent_digits,2021.2.3,59.990737429449524,
16.0,1.0,0.0,8.0,10.0,1.0,1.0,0.0,,,,,,,,,,,,,,,,,0,16,16,16,1,0,1,0,,,,,,,,,,,,,,,,,,,,,,,,,,,,,,,"['num_7', 'return']","[0.28722969999944326, 0.5592137999992701]",1116.494516499999,None,,,,,,,24,001,2021_Nov_09_1453,eeg_contingent_digits,2021.2.3,59.990737429449524,
16.0,1.0,0.0,8.0,10.0,1.0,1.0,0.0,,,,,,,,,,,,,,,,,0,16,16,16,2,0,2,0,,,,,,,,,,,,,,,,,,,,,,,,,,,,,,,"['num_8', 'return']","[0.3914162999972177, 0.5834937999970862]",1117.094297800002,None,,,,,,,24,001,2021_Nov_09_1453,eeg_contingent_digits,2021.2.3,59.990737429449524,
16.0,1.0,0.0,8.0,10.0,1.0,1.0,0.0,,,,,,,,,,,,,,,,,0,16,16,16,,,,,,,,,,,,,,,,,,,,,,,,,,,,,,,,,,,,,,,None,None,None,None,None,,24,001,2021_Nov_09_1453,eeg_contingent_digits,2021.2.3,59.990737429449524,
17.0,9.0,5.0,0.0,48.0,1.0,0.0,-1.0,,,,,,,,,,,,,,,,,0,17,17,17,0,0,0,0,,,,,,,,,,,,,,,,,,,1117.7273836999993,None,1117.7273836999993,None,1121.8425339000023,1123.2419704999993,0.007052950000797864,None,0.48066245000154595,None,0.9639451500006544,None,"['num_4', 'return']","[0.8809977999990224, 1.345047999999224]",1123.3086521000005,None,,,,,,,24,001,2021_Nov_09_1453,eeg_contingent_digits,2021.2.3,59.990737429449524,
17.0,9.0,5.0,0.0,48.0,1.0,0.0,-1.0,,,,,,,,,,,,,,,,,0,17,17,17,1,0,1,0,,,,,,,,,,,,,,,,,,,,,,,,,,,,,,,"['num_5', 'return']","[0.4422579999991285, 0.8102476000021852]",1124.6914064000011,None,,,,,,,24,001,2021_Nov_09_1453,eeg_contingent_digits,2021.2.3,59.990737429449524,
17.0,9.0,5.0,0.0,48.0,1.0,0.0,-1.0,,,,,,,,,,,,,,,,,0,17,17,17,2,0,2,0,,,,,,,,,,,,,,,,,,,,,,,,,,,,,,,"['num_6', 'return']","[0.40858490000027814, 0.7286071999988053]",1125.5410814999996,None,,,,,,,24,001,2021_Nov_09_1453,eeg_contingent_digits,2021.2.3,59.990737429449524,
17.0,9.0,5.0,0.0,48.0,1.0,0.0,-1.0,,,,,,,,,,,,,,,,,0,17,17,17,,,,,,,,,,,,,,,,,,,,,,,,,,,,,,,,,,,,,,,None,None,None,None,None,,24,001,2021_Nov_09_1453,eeg_contingent_digits,2021.2.3,59.990737429449524,
18.0,2.0,9.0,1.0,13.0,1.0,1.0,0.0,,,,,,,,,,,,,,,,,0,18,18,18,0,0,0,0,,,,,,,,,,,,,,,,,,,1126.3241620000008,None,1126.3241620000008,None,1128.5566684000005,1129.9560882000005,0.010786949998873752,None,0.4881479499999841,None,0.9713164499989944,None,"['num_3', 'return']","[2.0868421999985003, 5.206848900001205]",1130.0227613999996,None,,,,,,,24,001,2021_Nov_09_1453,eeg_contingent_digits,2021.2.3,59.990737429449524,
18.0,2.0,9.0,1.0,13.0,1.0,1.0,0.0,,,,,,,,,,,,,,,,,0,18,18,18,1,0,1,0,,,,,,,,,,,,,,,,,,,,,,,,,,,,,,,"['num_4', 'return']","[0.5108542999987549, 0.8788585000002058]",1135.2707241000026,None,,,,,,,24,001,2021_Nov_09_1453,eeg_contingent_digits,2021.2.3,59.990737429449524,
18.0,2.0,9.0,1.0,13.0,1.0,1.0,0.0,,,,,,,,,,,,,,,,,0,18,18,18,2,0,2,0,,,,,,,,,,,,,,,,,,,,,,,,,,,,,,,"['num_5', 'return']","[0.362536500000715, 0.6825282999998308]",1136.1870589999999,None,,,,,,,24,001,2021_Nov_09_1453,eeg_contingent_digits,2021.2.3,59.990737429449524,
18.0,2.0,9.0,1.0,13.0,1.0,1.0,0.0,,,,,,,,,,,,,,,,,0,18,18,18,,,,,,,,,,,,,,,,,,,,,,,,,,,,,,,,,,,,,,,None,None,None,None,None,,24,001,2021_Nov_09_1453,eeg_contingent_digits,2021.2.3,59.990737429449524,
19.0,2.0,9.0,1.0,48.0,1.0,0.0,-2.0,,,,,,,,,,,,,,,,,0,19,19,19,0,0,0,0,,,,,,,,,,,,,,,,,,,1136.920150500002,None,1136.920150500002,None,1139.0027106000016,1140.402140099999,0.00360865000038757,None,0.473786550002842,None,0.9569429500006663,None,"['num_5', 'return']","[3.817346499999985, 4.137388399998599]",1140.4521279,None,,,,,,,24,001,2021_Nov_09_1453,eeg_contingent_digits,2021.2.3,59.990737429449524,
19.0,2.0,9.0,1.0,48.0,1.0,0.0,-2.0,,,,,,,,,,,,,,,,,0,19,19,19,1,0,1,0,,,,,,,,,,,,,,,,,,,,,,,,,,,,,,,"['num_6', 'return']","[0.27551839999796357, 0.5795429999998305]",1144.633968099999,None,,,,,,,24,001,2021_Nov_09_1453,eeg_contingent_digits,2021.2.3,59.990737429449524,
19.0,2.0,9.0,1.0,48.0,1.0,0.0,-2.0,,,,,,,,,,,,,,,,,0,19,19,19,2,0,2,0,,,,,,,,,,,,,,,,,,,,,,,,,,,,,,,"['num_5', 'return']","[0.2832851000021037, 0.5952514000018709]",1145.250281200002,None,,,,,,,24,001,2021_Nov_09_1453,eeg_contingent_digits,2021.2.3,59.990737429449524,
19.0,2.0,9.0,1.0,48.0,1.0,0.0,-2.0,,,,,,,,,,,,,,,,,0,19,19,19,,,,,,,,,,,,,,,,,,,,,,,,,,,,,,,,,,,,,,,None,None,None,None,None,,24,001,2021_Nov_09_1453,eeg_contingent_digits,2021.2.3,59.990737429449524,
20.0,9.0,5.0,4.0,61.0,1.0,1.0,0.0,,,,,,,,,,,,,,,,,0,20,20,20,0,0,0,0,,,,,,,,,,,,,,,,,,,1145.9000460000025,None,1145.9000460000025,None,1149.2987595000013,1150.698217000001,0.01193885000247974,None,0.4904168499997468,None,0.9736412500024016,None,"['num_5', 'return']","[2.8165150999993784, 3.1125182999967365]",1150.7649053999994,None,,,,,,,24,001,2021_Nov_09_1453,eeg_contingent_digits,2021.2.3,59.990737429449524,
20.0,9.0,5.0,4.0,61.0,1.0,1.0,0.0,,,,,,,,,,,,,,,,,0,20,20,20,1,0,1,0,,,,,,,,,,,,,,,,,,,,,,,,,,,,,,,"['num_5', 'return']","[0.2998711000000185, 0.6198342999996385]",1153.9136505000024,None,,,,,,,24,001,2021_Nov_09_1453,eeg_contingent_digits,2021.2.3,59.990737429449524,
20.0,9.0,5.0,4.0,61.0,1.0,1.0,0.0,,,,,,,,,,,,,,,,,0,20,20,20,2,0,2,0,,,,,,,,,,,,,,,,,,,,,,,,,,,,,,,"['num_5', 'return']","[0.2971218000020599, 0.5851026000018464]",1154.5802957000014,None,,,,,,,24,001,2021_Nov_09_1453,eeg_contingent_digits,2021.2.3,59.990737429449524,
20.0,9.0,5.0,4.0,61.0,1.0,1.0,0.0,,,,,,,,,,,,,,,,,0,20,20,20,,,,,,,,,,,,,,,,,,,,,,,,,,,,,,,,,,,,,,,None,None,None,None,None,,24,001,2021_Nov_09_1453,eeg_contingent_digits,2021.2.3,59.990737429449524,
21.0,4.0,2.0,4.0,7.0,1.0,0.0,1.0,,,,,,,,,,,,,,,,,0,21,21,21,0,0,0,0,,,,,,,,,,,,,,,,,,,1155.2298910999998,None,1155.2298910999998,None,1159.7281647000018,1161.127591299999,0.007460079999873415,None,0.4814721799994004,None,0.9646832799990079,None,"['num_5', 'return']","[6.243749100001878, 6.819773499999428]",1161.1775947999995,None,,,,,,,24,001,2021_Nov_09_1453,eeg_contingent_digits,2021.2.3,59.990737429449524,
21.0,4.0,2.0,4.0,7.0,1.0,0.0,1.0,,,,,,,,,,,,,,,,,0,21,21,21,1,0,1,0,,,,,,,,,,,,,,,,,,,,,,,,,,,,,,,"['num_6', 'return']","[0.5718076999983168, 0.9558164999980363]",1168.0415305999995,None,,,,,,,24,001,2021_Nov_09_1453,eeg_contingent_digits,2021.2.3,59.990737429449524,
21.0,4.0,2.0,4.0,7.0,1.0,0.0,1.0,,,,,,,,,,,,,,,,,0,21,21,21,2,0,2,0,,,,,,,,,,,,,,,,,,,,,,,,,,,,,,,"['num_5', 'return']","[0.3241820999974152, 0.6041807000001427]",1169.0411411000023,None,,,,,,,24,001,2021_Nov_09_1453,eeg_contingent_digits,2021.2.3,59.990737429449524,
21.0,4.0,2.0,4.0,7.0,1.0,0.0,1.0,,,,,,,,,,,,,,,,,0,21,21,21,,,,,,,,,,,,,,,,,,,,,,,,,,,,,,,,,,,,,,,None,None,None,None,None,,24,001,2021_Nov_09_1453,eeg_contingent_digits,2021.2.3,59.990737429449524,
22.0,9.0,5.0,8.0,7.0,1.0,1.0,0.0,,,,,,,,,,,,,,,,,0,22,22,22,0,0,0,0,,,,,,,,,,,,,,,,,,,1169.707760100002,None,1169.707760100002,None,1171.7567761999999,1173.1563669999996,0.004587280000123428,None,0.4757512799988035,None,0.9589569800009485,None,"['num_1', 'return']","[1.7582769000000553, 2.150234699998691]",1173.2230165,None,,,,,,,24,001,2021_Nov_09_1453,eeg_contingent_digits,2021.2.3,59.990737429449524,
22.0,9.0,5.0,8.0,7.0,1.0,1.0,0.0,,,,,,,,,,,,,,,,,0,22,22,22,1,0,1,0,,,,,,,,,,,,,,,,,,,,,,,,,,,,,,,"['num_2', 'return']","[0.3037732999982836, 0.6237737999981618]",1175.4054977000014,None,,,,,,,24,001,2021_Nov_09_1453,eeg_contingent_digits,2021.2.3,59.990737429449524,
22.0,9.0,5.0,8.0,7.0,1.0,1.0,0.0,,,,,,,,,,,,,,,,,0,22,22,22,2,0,2,0,,,,,,,,,,,,,,,,,,,,,,,,,,,,,,,"['num_3', 'return']","[0.3653072000015527, 0.613334699999541]",1176.0719430999998,None,,,,,,,24,001,2021_Nov_09_1453,eeg_contingent_digits,2021.2.3,59.990737429449524,
22.0,9.0,5.0,8.0,7.0,1.0,1.0,0.0,,,,,,,,,,,,,,,,,0,22,22,22,,,,,,,,,,,,,,,,,,,,,,,,,,,,,,,,,,,,,,,None,None,None,None,None,,24,001,2021_Nov_09_1453,eeg_contingent_digits,2021.2.3,59.990737429449524,
23.0,2.0,0.0,4.0,7.0,1.0,0.0,-2.0,,,,,,,,,,,,,,,,,0,23,23,23,0,0,0,0,,,,,,,,,,,,,,,,,,,1176.7383396000005,None,1176.7383396000005,None,1178.8042425999993,1180.2037197999998,0.004323779998230748,None,0.49182608000046457,None,0.9750266800001555,None,['return'],[9.224181200002931],1180.2369696999995,None,,,,,,,24,001,2021_Nov_09_1453,eeg_contingent_digits,2021.2.3,59.990737429449524,
23.0,2.0,0.0,4.0,7.0,1.0,0.0,-2.0,,,,,,,,,,,,,,,,,0,23,23,23,1,0,1,0,,,,,,,,,,,,,,,,,,,,,,,,,,,,,,,['return'],[0.9370221999997739],1189.5001343000004,None,,,,,,,24,001,2021_Nov_09_1453,eeg_contingent_digits,2021.2.3,59.990737429449524,
23.0,2.0,0.0,4.0,7.0,1.0,0.0,-2.0,,,,,,,,,,,,,,,,,0,23,23,23,2,0,2,0,,,,,,,,,,,,,,,,,,,,,,,,,,,,,,,['return'],[0.2980692999990424],1190.4831183999995,None,,,,,,,24,001,2021_Nov_09_1453,eeg_contingent_digits,2021.2.3,59.990737429449524,
23.0,2.0,0.0,4.0,7.0,1.0,0.0,-2.0,,,,,,,,,,,,,,,,,0,23,23,23,,,,,,,,,,,,,,,,,,,,,,,,,,,,,,,,,,,,,,,None,None,None,None,None,,24,001,2021_Nov_09_1453,eeg_contingent_digits,2021.2.3,59.990737429449524,
24.0,1.0,3.0,9.0,48.0,1.0,1.0,0.0,,,,,,,,,,,,,,,,,0,24,24,24,0,0,0,0,,,,,,,,,,,,,,,,,,,1190.8329878000004,None,1190.8329878000004,None,1203.8947472,1205.2941978000017,0.016334249998180894,None,0.49920974999986356,None,0.9657320500009519,None,"['num_1', 'return']","[3.0049918000004254, 3.404851299997972]",1205.344168300002,None,,,,,,,24,001,2021_Nov_09_1453,eeg_contingent_digits,2021.2.3,59.990737429449524,
24.0,1.0,3.0,9.0,48.0,1.0,1.0,0.0,,,,,,,,,,,,,,,,,0,24,24,24,1,0,1,0,,,,,,,,,,,,,,,,,,,,,,,,,,,,,,,"['num_2', 'return']","[0.5322096999989299, 0.8921752999995078]",1208.7928184000011,None,,,,,,,24,001,2021_Nov_09_1453,eeg_contingent_digits,2021.2.3,59.990737429449524,
24.0,1.0,3.0,9.0,48.0,1.0,1.0,0.0,,,,,,,,,,,,,,,,,0,24,24,24,2,0,2,0,,,,,,,,,,,,,,,,,,,,,,,,,,,,,,,"['num_5', 'return']","[0.3432228000019677, 0.6632323000012548]",1209.7258078000013,None,,,,,,,24,001,2021_Nov_09_1453,eeg_contingent_digits,2021.2.3,59.990737429449524,
24.0,1.0,3.0,9.0,48.0,1.0,1.0,0.0,,,,,,,,,,,,,,,,,0,24,24,24,,,,,,,,,,,,,,,,,,,,,,,,,,,,,,,,,,,,,,,None,None,None,None,None,,24,001,2021_Nov_09_1453,eeg_contingent_digits,2021.2.3,59.990737429449524,
25.0,6.0,2.0,8.0,61.0,1.0,0.0,0.0,,,,,,,,,,,,,,,,,0,25,25,25,0,0,0,0,,,,,,,,,,,,,,,,,,,1210.442209500001,None,1210.442209500001,None,1215.5402845000026,1216.939758299999,0.007283779999852413,None,0.48109087999910116,None,0.9642495799998869,None,"['num_4', 'return']","[10.175165399999969, 10.807165999998688]",1216.9897119000016,None,,,,,,,24,001,2021_Nov_09_1453,eeg_contingent_digits,2021.2.3,59.990737429449524,
25.0,6.0,2.0,8.0,61.0,1.0,0.0,0.0,,,,,,,,,,,,,,,,,0,25,25,25,1,0,1,0,,,,,,,,,,,,,,,,,,,,,,,,,,,,,,,"['num_1', 'return']","[0.6093127999993158, 1.049382400000468]",1227.8356036000005,None,,,,,,,24,001,2021_Nov_09_1453,eeg_contingent_digits,2021.2.3,59.990737429449524,
25.0,6.0,2.0,8.0,61.0,1.0,0.0,0.0,,,,,,,,,,,,,,,,,0,25,25,25,2,0,2,0,,,,,,,,,,,,,,,,,,,,,,,,,,,,,,,"['num_2', 'return']","[0.2702572999987751, 0.5423039000015706]",1228.9185765000002,None,,,,,,,24,001,2021_Nov_09_1453,eeg_contingent_digits,2021.2.3,59.990737429449524,
25.0,6.0,2.0,8.0,61.0,1.0,0.0,0.0,,,,,,,,,,,,,,,,,0,25,25,25,,,,,,,,,,,,,,,,,,,,,,,,,,,,,,,,,,,,,,,None,None,None,None,None,,24,001,2021_Nov_09_1453,eeg_contingent_digits,2021.2.3,59.990737429449524,
26.0,9.0,5.0,3.0,49.0,1.0,1.0,0.0,,,,,,,,,,,,,,,,,0,26,26,26,0,0,0,0,,,,,,,,,,,,,,,,,,,1229.5183357999995,None,1229.5183357999995,None,1231.9840431000011,1233.3835414000023,0.014018049998412607,None,0.49470524999924237,None,0.9777521499963768,None,"['num_1', 'return']","[6.474571899998409, 6.762590899998031]",1233.4501702000016,None,,,,,,,24,001,2021_Nov_09_1453,eeg_contingent_digits,2021.2.3,59.990737429449524,
26.0,9.0,5.0,3.0,49.0,1.0,1.0,0.0,,,,,,,,,,,,,,,,,0,26,26,26,1,0,1,0,,,,,,,,,,,,,,,,,,,,,,,,,,,,,,,"['num_2', 'return']","[0.18924679999690852, 0.4051984999969136]",1240.2475507000017,None,,,,,,,24,001,2021_Nov_09_1453,eeg_contingent_digits,2021.2.3,59.990737429449524,
26.0,9.0,5.0,3.0,49.0,1.0,1.0,0.0,,,,,,,,,,,,,,,,,0,26,26,26,2,0,2,0,,,,,,,,,,,,,,,,,,,,,,,,,,,,,,,"['num_3', 'return']","[0.17133250000188127, 0.3553381999990961]",1240.697420200002,None,,,,,,,24,001,2021_Nov_09_1453,eeg_contingent_digits,2021.2.3,59.990737429449524,
26.0,9.0,5.0,3.0,49.0,1.0,1.0,0.0,,,,,,,,,,,,,,,,,0,26,26,26,,,,,,,,,,,,,,,,,,,,,,,,,,,,,,,,,,,,,,,None,None,None,None,None,,24,001,2021_Nov_09_1453,eeg_contingent_digits,2021.2.3,59.990737429449524,
27.0,2.0,6.0,8.0,33.0,1.0,0.0,0.0,,,,,,,,,,,,,,,,,0,27,27,27,0,0,0,0,,,,,,,,,,,,,,,,,,,1241.1139217000018,None,1241.1139217000018,None,1243.6296307000011,1245.029085500002,0.007251580002048286,None,0.4810409800011257,None,0.9641559800002142,None,"['num_4', 'return']","[2.5889715000012075, 2.94903880000129]",1245.095741699999,None,,,,,,,24,001,2021_Nov_09_1453,eeg_contingent_digits,2021.2.3,59.990737429449524,
27.0,2.0,6.0,8.0,33.0,1.0,0.0,0.0,,,,,,,,,,,,,,,,,0,27,27,27,1,0,1,0,,,,,,,,,,,,,,,,,,,,,,,,,,,,,,,"['num_5', 'return']","[0.22279450000132783, 0.5027857999994012]",1248.0779125000008,None,,,,,,,24,001,2021_Nov_09_1453,eeg_contingent_digits,2021.2.3,59.990737429449524,
27.0,2.0,6.0,8.0,33.0,1.0,0.0,0.0,,,,,,,,,,,,,,,,,0,27,27,27,2,0,2,0,,,,,,,,,,,,,,,,,,,,,,,,,,,,,,,"['num_6', 'return']","[0.21700889999920037, 0.4409917000011774]",1248.6277143000007,None,,,,,,,24,001,2021_Nov_09_1453,eeg_contingent_digits,2021.2.3,59.990737429449524,
27.0,2.0,6.0,8.0,33.0,1.0,0.0,0.0,,,,,,,,,,,,,,,,,0,27,27,27,,,,,,,,,,,,,,,,,,,,,,,,,,,,,,,,,,,,,,,None,None,None,None,None,,24,001,2021_Nov_09_1453,eeg_contingent_digits,2021.2.3,59.990737429449524,
28.0,6.0,3.0,8.0,61.0,1.0,1.0,0.0,,,,,,,,,,,,,,,,,0,28,28,28,0,0,0,0,,,,,,,,,,,,,,,,,,,1249.127542000002,None,1249.127542000002,None,1251.5766688000003,1252.9760706000015,0.012938550000399118,None,0.49245855000117444,None,0.9755970500009425,None,"['num_3', 'return']","[11.074540400000842, 11.458504000001994]",1253.0260540000017,None,,,,,,,24,001,2021_Nov_09_1453,eeg_contingent_digits,2021.2.3,59.990737429449524,
28.0,6.0,3.0,8.0,61.0,1.0,1.0,0.0,,,,,,,,,,,,,,,,,0,28,28,28,1,0,1,0,,,,,,,,,,,,,,,,,,,,,,,,,,,,,,,"['num_6', 'return']","[0.31492639999851235, 0.5789387000004353]",1264.521671800001,None,,,,,,,24,001,2021_Nov_09_1453,eeg_contingent_digits,2021.2.3,59.990737429449524,
28.0,6.0,3.0,8.0,61.0,1.0,1.0,0.0,,,,,,,,,,,,,,,,,0,28,28,28,2,0,2,0,,,,,,,,,,,,,,,,,,,,,,,,,,,,,,,"['num_5', 'return']","[0.874455900000612, 1.0984525000021677]",1265.1381002000016,None,,,,,,,24,001,2021_Nov_09_1453,eeg_contingent_digits,2021.2.3,59.990737429449524,
28.0,6.0,3.0,8.0,61.0,1.0,1.0,0.0,,,,,,,,,,,,,,,,,0,28,28,28,,,,,,,,,,,,,,,,,,,,,,,,,,,,,,,,,,,,,,,None,None,None,None,None,,24,001,2021_Nov_09_1453,eeg_contingent_digits,2021.2.3,59.990737429449524,
29.0,5.0,5.0,1.0,13.0,1.0,0.0,-0.0,,,,,,,,,,,,,,,,,0,29,29,29,0,0,0,0,,,,,,,,,,,,,,,,,,,1266.2877007000025,None,1266.2877007000025,None,1268.7867845,1270.1862378000005,0.01041777999853366,None,0.4873675800008641,None,0.9705166800013103,None,"['num_1', 'return']","[1.5436439000004611, 1.9516404000023613]",1270.2528515000013,None,,,,,,,24,001,2021_Nov_09_1453,eeg_contingent_digits,2021.2.3,59.990737429449524,
29.0,5.0,5.0,1.0,13.0,1.0,0.0,-0.0,,,,,,,,,,,,,,,,,0,29,29,29,1,0,1,0,,,,,,,,,,,,,,,,,,,,,,,,,,,,,,,"['num_2', 'return']","[0.33641139999963343, 0.7204023000012967]",1272.2520886999991,None,,,,,,,24,001,2021_Nov_09_1453,eeg_contingent_digits,2021.2.3,59.990737429449524,
29.0,5.0,5.0,1.0,13.0,1.0,0.0,-0.0,,,,,,,,,,,,,,,,,0,29,29,29,2,0,2,0,,,,,,,,,,,,,,,,,,,,,,,,,,,,,,,"['num_3', 'return']","[0.32207890000063344, 0.7060810000002675]",1273.0184362,None,,,,,,,24,001,2021_Nov_09_1453,eeg_contingent_digits,2021.2.3,59.990737429449524,
29.0,5.0,5.0,1.0,13.0,1.0,0.0,-0.0,,,,,,,,,,,,,,,,,0,29,29,29,,,,,,,,,,,,,,,,,,,,,,,,,,,,,,,,,,,,,,,None,None,None,None,None,,24,001,2021_Nov_09_1453,eeg_contingent_digits,2021.2.3,59.990737429449524,
30.0,0.0,6.0,8.0,33.0,1.0,1.0,0.0,,,,,,,,,,,,,,,,,0,30,30,30,0,0,0,0,,,,,,,,,,,,,,,,,,,1273.7848844,None,1273.7848844,None,1286.9632304000006,1288.3626398000015,0.005578349999268539,None,0.47776374999739346,None,0.960894849999022,None,"['num_4', 'return']","[2.359729599997081, 2.759761499997694]",1288.4126438999992,None,,,,,,,24,001,2021_Nov_09_1453,eeg_contingent_digits,2021.2.3,59.990737429449524,
30.0,0.0,6.0,8.0,33.0,1.0,1.0,0.0,,,,,,,,,,,,,,,,,0,30,30,30,1,0,1,0,,,,,,,,,,,,,,,,,,,,,,,,,,,,,,,"['num_5', 'return']","[0.2728964999987511, 0.5849020999994536]",1291.211447900001,None,,,,,,,24,001,2021_Nov_09_1453,eeg_contingent_digits,2021.2.3,59.990737429449524,
30.0,0.0,6.0,8.0,33.0,1.0,1.0,0.0,,,,,,,,,,,,,,,,,0,30,30,30,2,0,2,0,,,,,,,,,,,,,,,,,,,,,,,,,,,,,,,"['num_6', 'return']","[0.30363990000114427, 0.583649799998966]",1291.8446944999996,None,,,,,,,24,001,2021_Nov_09_1453,eeg_contingent_digits,2021.2.3,59.990737429449524,
30.0,0.0,6.0,8.0,33.0,1.0,1.0,0.0,,,,,,,,,,,,,,,,,0,30,30,30,,,,,,,,,,,,,,,,,,,,,,,,,,,,,,,,,,,,,,,None,None,None,None,None,,24,001,2021_Nov_09_1453,eeg_contingent_digits,2021.2.3,59.990737429449524,
31.0,0.0,6.0,8.0,49.0,1.0,0.0,-1.0,,,,,,,,,,,,,,,,,0,31,31,31,0,0,0,0,,,,,,,,,,,,,,,,,,,1292.4777880000001,None,1292.4777880000001,None,1296.5595562000017,1297.9590300000018,0.009835049993853318,None,0.4862258499961172,None,0.9694199499936076,None,"['num_1', 'return']","[4.291302699999505, 4.883303200000228]",1298.0089848000025,None,,,,,,,24,001,2021_Nov_09_1453,eeg_contingent_digits,2021.2.3,59.990737429449524,
31.0,0.0,6.0,8.0,49.0,1.0,0.0,-1.0,,,,,,,,,,,,,,,,,0,31,31,31,1,0,1,0,,,,,,,,,,,,,,,,,,,,,,,,,,,,,,,"['num_2', 'return']","[0.30380850000074133, 0.7358158000024559]",1302.9404557000016,None,,,,,,,24,001,2021_Nov_09_1453,eeg_contingent_digits,2021.2.3,59.990737429449524,
31.0,0.0,6.0,8.0,49.0,1.0,0.0,-1.0,,,,,,,,,,,,,,,,,0,31,31,31,2,0,2,0,,,,,,,,,,,,,,,,,,,,,,,,,,,,,,,"['num_3', 'return']","[0.320877099999052, 0.7448120000008203]",1303.7234551000001,None,,,,,,,24,001,2021_Nov_09_1453,eeg_contingent_digits,2021.2.3,59.990737429449524,
31.0,0.0,6.0,8.0,49.0,1.0,0.0,-1.0,,,,,,,,,,,,,,,,,0,31,31,31,,,,,,,,,,,,,,,,,,,,,,,,,,,,,,,,,,,,,,,None,None,None,None,None,,24,001,2021_Nov_09_1453,eeg_contingent_digits,2021.2.3,59.990737429449524,
32.0,5.0,0.0,9.0,14.0,1.0,1.0,0.0,,,,,,,,,,,,,,,,,0,32,32,32,0,0,0,0,,,,,,,,,,,,,,,,,,,1304.5231072999995,None,1304.5231072999995,None,1308.5882894000024,1309.9878054,0.005946749995928258,None,0.4784582499960379,None,0.9616010499958065,None,['return'],[5.685765199999878],1310.0543940000025,None,,,,,,,24,001,2021_Nov_09_1453,eeg_contingent_digits,2021.2.3,59.990737429449524,
32.0,5.0,0.0,9.0,14.0,1.0,1.0,0.0,,,,,,,,,,,,,,,,,0,32,32,32,1,0,1,0,,,,,,,,,,,,,,,,,,,,,,,,,,,,,,,['return'],[0.2986267999986012],1315.7855340999995,None,,,,,,,24,001,2021_Nov_09_1453,eeg_contingent_digits,2021.2.3,59.990737429449524,
32.0,5.0,0.0,9.0,14.0,1.0,1.0,0.0,,,,,,,,,,,,,,,,,0,32,32,32,2,0,2,0,,,,,,,,,,,,,,,,,,,,,,,,,,,,,,,['return'],[0.3255325999998604],1316.1186683000014,None,,,,,,,24,001,2021_Nov_09_1453,eeg_contingent_digits,2021.2.3,59.990737429449524,
32.0,5.0,0.0,9.0,14.0,1.0,1.0,0.0,,,,,,,,,,,,,,,,,0,32,32,32,,,,,,,,,,,,,,,,,,,,,,,,,,,,,,,,,,,,,,,None,None,None,None,None,,24,001,2021_Nov_09_1453,eeg_contingent_digits,2021.2.3,59.990737429449524,
33.0,0.0,5.0,9.0,7.0,1.0,0.0,1.0,,,,,,,,,,,,,,,,,0,33,33,33,0,0,0,0,,,,,,,,,,,,,,,,,,,1316.5019670000001,None,1316.5019670000001,None,1321.6666688000005,1323.0661755,0.0038114800008770544,None,0.49080978000347386,None,0.9739638800019748,None,"['num_5', 'num_5', 'return']","[1.5759741999972903, 1.9919810999999754, 3.0079640000003565]",1323.1161070000016,None,,,,,,,24,001,2021_Nov_09_1453,eeg_contingent_digits,2021.2.3,59.990737429449524,
33.0,0.0,5.0,9.0,7.0,1.0,0.0,1.0,,,,,,,,,,,,,,,,,0,33,33,33,1,0,1,0,,,,,,,,,,,,,,,,,,,,,,,,,,,,,,,"['num_5', 'return']","[0.6152141999991727, 0.951183499997569]",1326.1648855999993,None,,,,,,,24,001,2021_Nov_09_1453,eeg_contingent_digits,2021.2.3,59.990737429449524,
33.0,0.0,5.0,9.0,7.0,1.0,0.0,1.0,,,,,,,,,,,,,,,,,0,33,33,33,2,0,2,0,,,,,,,,,,,,,,,,,,,,,,,,,,,,,,,"['num_6', 'return']","[0.21548700000130339, 0.4794995000011113]",1327.1645745999995,None,,,,,,,24,001,2021_Nov_09_1453,eeg_contingent_digits,2021.2.3,59.990737429449524,
33.0,0.0,5.0,9.0,7.0,1.0,0.0,1.0,,,,,,,,,,,,,,,,,0,33,33,33,,,,,,,,,,,,,,,,,,,,,,,,,,,,,,,,,,,,,,,None,None,None,None,None,,24,001,2021_Nov_09_1453,eeg_contingent_digits,2021.2.3,59.990737429449524,
34.0,5.0,1.0,4.0,49.0,1.0,1.0,0.0,,,,,,,,,,,,,,,,,0,34,34,34,0,0,0,0,,,,,,,,,,,,,,,,,,,1327.6977313000025,None,1327.6977313000025,None,1335.1615457000007,1336.5610089000002,0.016189049994864035,None,0.49895324999670265,None,0.9821292499946139,None,"['num_1', 'return']","[10.872872600000846, 11.224882200000138]",1336.611041600001,None,,,,,,,24,001,2021_Nov_09_1453,eeg_contingent_digits,2021.2.3,59.990737429449524,
34.0,5.0,1.0,4.0,49.0,1.0,1.0,0.0,,,,,,,,,,,,,,,,,0,34,34,34,1,0,1,0,,,,,,,,,,,,,,,,,,,,,,,,,,,,,,,"['num_0', 'return']","[0.33855620000031195, 0.7625550999982806]",1347.8733825000018,None,,,,,,,24,001,2021_Nov_09_1453,eeg_contingent_digits,2021.2.3,59.990737429449524,
34.0,5.0,1.0,4.0,49.0,1.0,1.0,0.0,,,,,,,,,,,,,,,,,0,34,34,34,2,0,2,0,,,,,,,,,,,,,,,,,,,,,,,,,,,,,,,"['num_3', 'return']","[0.3548696999969252, 0.6188611999968998]",1348.6730629000012,None,,,,,,,24,001,2021_Nov_09_1453,eeg_contingent_digits,2021.2.3,59.990737429449524,
34.0,5.0,1.0,4.0,49.0,1.0,1.0,0.0,,,,,,,,,,,,,,,,,0,34,34,34,,,,,,,,,,,,,,,,,,,,,,,,,,,,,,,,,,,,,,,None,None,None,None,None,,24,001,2021_Nov_09_1453,eeg_contingent_digits,2021.2.3,59.990737429449524,
35.0,2.0,6.0,4.0,10.0,1.0,0.0,-1.0,,,,,,,,,,,,,,,,,0,35,35,35,0,0,0,0,,,,,,,,,,,,,,,,,,,1349.3561198999996,None,1349.3561198999996,None,1355.8870027000012,1357.2865397999994,0.00798534999921685,None,0.4825376500011771,None,0.9657450499980769,None,"['num_7', 'return']","[8.771358000001783, 9.811329500000284]",1357.336444200002,None,,,,,,,24,001,2021_Nov_09_1453,eeg_contingent_digits,2021.2.3,59.990737429449524,
35.0,2.0,6.0,4.0,10.0,1.0,0.0,-1.0,,,,,,,,,,,,,,,,,0,35,35,35,1,0,1,0,,,,,,,,,,,,,,,,,,,,,,,,,,,,,,,"['num_3', 'return']","[0.31705630000215024, 0.6291246000000683]",1367.1826973999996,None,,,,,,,24,001,2021_Nov_09_1453,eeg_contingent_digits,2021.2.3,59.990737429449524,
35.0,2.0,6.0,4.0,10.0,1.0,0.0,-1.0,,,,,,,,,,,,,,,,,0,35,35,35,2,0,2,0,,,,,,,,,,,,,,,,,,,,,,,,,,,,,,,"['num_5', 'return']","[0.24272370000107912, 0.5146440999997139]",1367.8491099999992,None,,,,,,,24,001,2021_Nov_09_1453,eeg_contingent_digits,2021.2.3,59.990737429449524,
35.0,2.0,6.0,4.0,10.0,1.0,0.0,-1.0,,,,,,,,,,,,,,,,,0,35,35,35,,,,,,,,,,,,,,,,,,,,,,,,,,,,,,,,,,,,,,,None,None,None,None,None,,24,001,2021_Nov_09_1453,eeg_contingent_digits,2021.2.3,59.990737429449524,
36.0,1.0,2.0,3.0,61.0,1.0,1.0,0.0,,,,,,,,,,,,,,,,,0,36,36,36,0,0,0,0,,,,,,,,,,,,,,,,,,,1368.4156567999999,None,1368.4156567999999,None,1379.761310599999,1381.160737099999,0.008669980001286604,None,0.48393948000011733,None,0.9670298800010642,None,"['num_3', 'return']","[7.008840899998177, 7.280817599999864]",1381.2107509000016,None,,,,,,,24,001,2021_Nov_09_1453,eeg_contingent_digits,2021.2.3,59.990737429449524,
36.0,1.0,2.0,3.0,61.0,1.0,1.0,0.0,,,,,,,,,,,,,,,,,0,36,36,36,1,0,1,0,,,,,,,,,,,,,,,,,,,,,,,,,,,,,,,"['num_2', 'return']","[0.26300980000087293, 0.5110175999980129]",1388.524614599999,None,,,,,,,24,001,2021_Nov_09_1453,eeg_contingent_digits,2021.2.3,59.990737429449524,
36.0,1.0,2.0,3.0,61.0,1.0,1.0,0.0,,,,,,,,,,,,,,,,,0,36,36,36,2,0,2,0,,,,,,,,,,,,,,,,,,,,,,,,,,,,,,,"['num_1', 'return']","[0.27326109999921755, 0.5692024999989371]",1389.0743807,None,,,,,,,24,001,2021_Nov_09_1453,eeg_contingent_digits,2021.2.3,59.990737429449524,
36.0,1.0,2.0,3.0,61.0,1.0,1.0,0.0,,,,,,,,,,,,,,,,,0,36,36,36,,,,,,,,,,,,,,,,,,,,,,,,,,,,,,,,,,,,,,,None,None,None,None,None,,24,001,2021_Nov_09_1453,eeg_contingent_digits,2021.2.3,59.990737429449524,
37.0,5.0,4.0,1.0,14.0,1.0,0.0,-1.0,,,,,,,,,,,,,,,,,0,37,37,37,0,0,0,0,,,,,,,,,,,,,,,,,,,1389.7074733000009,None,1389.7074733000009,None,1393.7559400999999,1395.1554130000004,0.0076700399949913844,None,0.48197483999683755,None,0.9650144399965939,None,"['num_1', 'return']","[1.9261478000007628, 2.2301619999998366]",1395.2054069000005,None,,,,,,,24,001,2021_Nov_09_1453,eeg_contingent_digits,2021.2.3,59.990737429449524,
37.0,5.0,4.0,1.0,14.0,1.0,0.0,-1.0,,,,,,,,,,,,,,,,,0,37,37,37,1,0,1,0,,,,,,,,,,,,,,,,,,,,,,,,,,,,,,,"['num_2', 'return']","[0.2042700000019977, 0.45230390000142506]",1397.471250999999,None,,,,,,,24,001,2021_Nov_09_1453,eeg_contingent_digits,2021.2.3,59.990737429449524,
37.0,5.0,4.0,1.0,14.0,1.0,0.0,-1.0,,,,,,,,,,,,,,,,,0,37,37,37,2,0,2,0,,,,,,,,,,,,,,,,,,,,,,,,,,,,,,,"['num_3', 'return']","[0.18453819999922416, 0.36064600000099745]",1397.9709870000006,None,,,,,,,24,001,2021_Nov_09_1453,eeg_contingent_digits,2021.2.3,59.990737429449524,
37.0,5.0,4.0,1.0,14.0,1.0,0.0,-1.0,,,,,,,,,,,,,,,,,0,37,37,37,,,,,,,,,,,,,,,,,,,,,,,,,,,,,,,,,,,,,,,None,None,None,None,None,,24,001,2021_Nov_09_1453,eeg_contingent_digits,2021.2.3,59.990737429449524,
38.0,9.0,4.0,2.0,14.0,1.0,1.0,0.0,,,,,,,,,,,,,,,,,0,38,38,38,0,0,0,0,,,,,,,,,,,,,,,,,,,1398.3875203000025,None,1398.3875203000025,None,1408.7502354999997,1410.1497215000018,0.00509737999891513,None,0.4769027799993637,None,0.9600143799980287,None,"['num_9', 'return']","[0.9150665999986813, 2.075091800001246]",1410.2163820000023,None,,,,,,,24,001,2021_Nov_09_1453,eeg_contingent_digits,2021.2.3,59.990737429449524,
38.0,9.0,4.0,2.0,14.0,1.0,1.0,0.0,,,,,,,,,,,,,,,,,0,38,38,38,1,0,1,0,,,,,,,,,,,,,,,,,,,,,,,,,,,,,,,"['num_7', 'return']","[0.38320759999987786, 0.8071810000001278]",1412.3322542999995,None,,,,,,,24,001,2021_Nov_09_1453,eeg_contingent_digits,2021.2.3,59.990737429449524,
38.0,9.0,4.0,2.0,14.0,1.0,1.0,0.0,,,,,,,,,,,,,,,,,0,38,38,38,2,0,2,0,,,,,,,,,,,,,,,,,,,,,,,,,,,,,,,"['num_2', 'return']","[0.5414378999994369, 0.8614272000013443]",1413.1819802999999,None,,,,,,,24,001,2021_Nov_09_1453,eeg_contingent_digits,2021.2.3,59.990737429449524,
38.0,9.0,4.0,2.0,14.0,1.0,1.0,0.0,,,,,,,,,,,,,,,,,0,38,38,38,,,,,,,,,,,,,,,,,,,,,,,,,,,,,,,,,,,,,,,None,None,None,None,None,,24,001,2021_Nov_09_1453,eeg_contingent_digits,2021.2.3,59.990737429449524,
39.0,1.0,3.0,5.0,13.0,1.0,0.0,-2.0,,,,,,,,,,,,,,,,,0,39,39,39,0,0,0,0,,,,,,,,,,,,,,,,,,,1414.0982072000006,None,1414.0982072000006,None,1417.1470630000003,1418.5465263000006,0.009526479996566195,None,0.48563327999727335,None,0.9687168799973733,None,['return'],[9.638121799998771],1418.6131846999997,None,,,,,,,24,001,2021_Nov_09_1453,eeg_contingent_digits,2021.2.3,59.990737429449524,
39.0,1.0,3.0,5.0,13.0,1.0,0.0,-2.0,,,,,,,,,,,,,,,,,0,39,39,39,1,0,1,0,,,,,,,,,,,,,,,,,,,,,,,,,,,,,,,['return'],[0.19052780000129133],1428.2928159000003,None,,,,,,,24,001,2021_Nov_09_1453,eeg_contingent_digits,2021.2.3,59.990737429449524,
39.0,1.0,3.0,5.0,13.0,1.0,0.0,-2.0,,,,,,,,,,,,,,,,,0,39,39,39,2,0,2,0,,,,,,,,,,,,,,,,,,,,,,,,,,,,,,,['return'],[0.20526560000143945],1428.5260670000025,None,,,,,,,24,001,2021_Nov_09_1453,eeg_contingent_digits,2021.2.3,59.990737429449524,
39.0,1.0,3.0,5.0,13.0,1.0,0.0,-2.0,,,,,,,,,,,,,,,,,0,39,39,39,,,,,,,,,,,,,,,,,,,,,,,,,,,,,,,,,,,,,,,None,None,None,None,None,,24,001,2021_Nov_09_1453,eeg_contingent_digits,2021.2.3,59.990737429449524,
40.0,8.0,9.0,1.0,49.0,1.0,1.0,0.0,,,,,,,,,,,,,,,,,0,40,40,40,0,0,0,0,,,,,,,,,,,,,,,,,,,1428.792696299999,None,1428.792696299999,None,1434.240617800002,1435.6400443999992,0.004283279999071965,None,0.47509397999965586,None,0.9582993799995165,None,"['num_5', 'return']","[6.129193000000669, 6.497226899999077]",1435.6900234999994,None,,,,,,,24,001,2021_Nov_09_1453,eeg_contingent_digits,2021.2.3,59.990737429449524,
40.0,8.0,9.0,1.0,49.0,1.0,1.0,0.0,,,,,,,,,,,,,,,,,0,40,40,40,1,0,1,0,,,,,,,,,,,,,,,,,,,,,,,,,,,,,,,"['num_4', 'return']","[0.31039270000110264, 0.654352800000197]",1442.2208630000023,None,,,,,,,24,001,2021_Nov_09_1453,eeg_contingent_digits,2021.2.3,59.990737429449524,
40.0,8.0,9.0,1.0,49.0,1.0,1.0,0.0,,,,,,,,,,,,,,,,,0,40,40,40,2,0,2,0,,,,,,,,,,,,,,,,,,,,,,,,,,,,,,,"['num_6', 'return']","[0.29052709999814397, 0.6025168999985908]",1442.9206448000004,None,,,,,,,24,001,2021_Nov_09_1453,eeg_contingent_digits,2021.2.3,59.990737429449524,
40.0,8.0,9.0,1.0,49.0,1.0,1.0,0.0,,,,,,,,,,,,,,,,,0,40,40,40,,,,,,,,,,,,,,,,,,,,,,,,,,,,,,,,,,,,,,,None,None,None,None,None,,24,001,2021_Nov_09_1453,eeg_contingent_digits,2021.2.3,59.990737429449524,
41.0,5.0,0.0,5.0,21.0,1.0,0.0,2.0,,,,,,,,,,,,,,,,,0,41,41,41,0,0,0,0,,,,,,,,,,,,,,,,,,,1443.5870622000002,None,1443.5870622000002,None,1451.1342003999998,1452.533643400002,0.009414579999429407,None,0.4853940799985139,None,0.9685497799982841,None,"['num_1', 'return']","[15.99472600000081, 16.2907449000013]",1452.600256400001,None,,,,,,,24,001,2021_Nov_09_1453,eeg_contingent_digits,2021.2.3,59.990737429449524,
41.0,5.0,0.0,5.0,21.0,1.0,0.0,2.0,,,,,,,,,,,,,,,,,0,41,41,41,1,0,1,0,,,,,,,,,,,,,,,,,,,,,,,,,,,,,,,"['num_2', 'return']","[0.21159700000134762, 0.44361690000005183]",1468.9273718000004,None,,,,,,,24,001,2021_Nov_09_1453,eeg_contingent_digits,2021.2.3,59.990737429449524,
41.0,5.0,0.0,5.0,21.0,1.0,0.0,2.0,,,,,,,,,,,,,,,,,0,41,41,41,2,0,2,0,,,,,,,,,,,,,,,,,,,,,,,,,,,,,,,"['num_3', 'return']","[0.20845429999826592, 0.40845839999747113]",1469.4105230999994,None,,,,,,,24,001,2021_Nov_09_1453,eeg_contingent_digits,2021.2.3,59.990737429449524,
41.0,5.0,0.0,5.0,21.0,1.0,0.0,2.0,,,,,,,,,,,,,,,,,0,41,41,41,,,,,,,,,,,,,,,,,,,,,,,,,,,,,,,,,,,,,,,None,None,None,None,None,,24,001,2021_Nov_09_1453,eeg_contingent_digits,2021.2.3,59.990737429449524,
42.0,2.0,6.0,3.0,7.0,1.0,1.0,0.0,,,,,,,,,,,,,,,,,0,42,42,42,0,0,0,0,,,,,,,,,,,,,,,,,,,1469.877054200002,None,1469.877054200002,None,1511.5445213999992,1512.9440077,0.015582250001898501,None,0.48104015000353684,None,0.9642670500034001,None,"['num_0', 'num_2', 'num_0', 'return']","[0.9606456000001344, 1.4326099999998405, 2.280606500000431, 2.640654999999242]",1512.9940019999995,None,,,,,,,24,001,2021_Nov_09_1453,eeg_contingent_digits,2021.2.3,59.990737429449524,
42.0,2.0,6.0,3.0,7.0,1.0,1.0,0.0,,,,,,,,,,,,,,,,,0,42,42,42,1,0,1,0,,,,,,,,,,,,,,,,,,,,,,,,,,,,,,,"['num_2', 'return']","[0.6624078000022564, 0.9183524000000034]",1515.6762659000015,None,,,,,,,24,001,2021_Nov_09_1453,eeg_contingent_digits,2021.2.3,59.990737429449524,
42.0,2.0,6.0,3.0,7.0,1.0,1.0,0.0,,,,,,,,,,,,,,,,,0,42,42,42,2,0,2,0,,,,,,,,,,,,,,,,,,,,,,,,,,,,,,,"['num_3', 'return']","[0.22407209999801125, 0.44803849999880185]",1516.6425732999996,None,,,,,,,24,001,2021_Nov_09_1453,eeg_contingent_digits,2021.2.3,59.990737429449524,
42.0,2.0,6.0,3.0,7.0,1.0,1.0,0.0,,,,,,,,,,,,,,,,,0,42,42,42,,,,,,,,,,,,,,,,,,,,,,,,,,,,,,,,,,,,,,,None,None,None,None,None,,24,001,2021_Nov_09_1453,eeg_contingent_digits,2021.2.3,59.990737429449524,
43.0,9.0,5.0,2.0,61.0,1.0,0.0,-2.0,,,,,,,,,,,,,,,,,0,43,43,43,0,0,0,0,,,,,,,,,,,,,,,,,,,1517.1424047,None,1517.1424047,None,1520.2578772000015,1521.6573371000013,0.0005257800003164448,None,0.48425908000353957,None,0.9673506800027099,None,"['num_5', 'return']","[0.9832606000018131, 1.3592463999993925]",1521.7073170000003,None,,,,,,,24,001,2021_Nov_09_1453,eeg_contingent_digits,2021.2.3,59.990737429449524,
43.0,9.0,5.0,2.0,61.0,1.0,0.0,-2.0,,,,,,,,,,,,,,,,,0,43,43,43,1,0,1,0,,,,,,,,,,,,,,,,,,,,,,,,,,,,,,,"['num_5', 'return']","[0.487755099999049, 0.8157730999992054]",1523.1067834000023,None,,,,,,,24,001,2021_Nov_09_1453,eeg_contingent_digits,2021.2.3,59.990737429449524,
43.0,9.0,5.0,2.0,61.0,1.0,0.0,-2.0,,,,,,,,,,,,,,,,,0,43,43,43,2,0,2,0,,,,,,,,,,,,,,,,,,,,,,,,,,,,,,,"['num_6', 'return']","[0.3020820999990974, 0.6300649000004341]",1523.956468700002,None,,,,,,,24,001,2021_Nov_09_1453,eeg_contingent_digits,2021.2.3,59.990737429449524,
43.0,9.0,5.0,2.0,61.0,1.0,0.0,-2.0,,,,,,,,,,,,,,,,,0,43,43,43,,,,,,,,,,,,,,,,,,,,,,,,,,,,,,,,,,,,,,,None,None,None,None,None,,24,001,2021_Nov_09_1453,eeg_contingent_digits,2021.2.3,59.990737429449524,
44.0,0.0,6.0,5.0,10.0,1.0,1.0,0.0,,,,,,,,,,,,,,,,,0,44,44,44,0,0,0,0,,,,,,,,,,,,,,,,,,,1524.6395459000014,None,1524.6395459000014,None,1543.8656138000006,1545.2650515000023,0.0070434799999929965,None,0.48078137999982573,None,0.9637694800003374,None,"['num_1', 'return']","[1.7513740000031248, 2.103362300000299]",1545.3149965000011,None,,,,,,,24,001,2021_Nov_09_1453,eeg_contingent_digits,2021.2.3,59.990737429449524,
44.0,0.0,6.0,5.0,10.0,1.0,1.0,0.0,,,,,,,,,,,,,,,,,0,44,44,44,1,0,1,0,,,,,,,,,,,,,,,,,,,,,,,,,,,,,,,"['num_0', 'return']","[0.3621844000008423, 1.1541940999995859]",1547.4641847999992,None,,,,,,,24,001,2021_Nov_09_1453,eeg_contingent_digits,2021.2.3,59.990737429449524,
44.0,0.0,6.0,5.0,10.0,1.0,1.0,0.0,,,,,,,,,,,,,,,,,0,44,44,44,2,0,2,0,,,,,,,,,,,,,,,,,,,,,,,,,,,,,,,"['num_6', 'num_3', 'num_6', 'return']","[1.7066827999988163, 1.7066827999988163, 3.0346414999985427, 3.4746467000004486]",1548.6637292000014,None,,,,,,,24,001,2021_Nov_09_1453,eeg_contingent_digits,2021.2.3,59.990737429449524,
44.0,0.0,6.0,5.0,10.0,1.0,1.0,0.0,,,,,,,,,,,,,,,,,0,44,44,44,,,,,,,,,,,,,,,,,,,,,,,,,,,,,,,,,,,,,,,None,None,None,None,None,,24,001,2021_Nov_09_1453,eeg_contingent_digits,2021.2.3,59.990737429449524,
45.0,5.0,3.0,1.0,1.0,1.0,0.0,-1.0,,,,,,,,,,,,,,,,,0,45,45,45,0,0,0,0,,,,,,,,,,,,,,,,,,,1552.2124377,None,1552.2124377,None,1556.2775586000025,1557.6769906000009,0.011222250002902001,None,0.4890212500031339,None,0.9721274500006984,None,"['num_2', 'return']","[7.026565899999696, 7.31457170000067]",1557.7436272000014,None,,,,,,,24,001,2021_Nov_09_1453,eeg_contingent_digits,2021.2.3,59.990737429449524,
45.0,5.0,3.0,1.0,1.0,1.0,0.0,-1.0,,,,,,,,,,,,,,,,,0,45,45,45,1,0,1,0,,,,,,,,,,,,,,,,,,,,,,,,,,,,,,,"['num_4', 'return']","[0.36737910000010743, 0.6314141000002564]",1565.0908242000005,None,,,,,,,24,001,2021_Nov_09_1453,eeg_contingent_digits,2021.2.3,59.990737429449524,
45.0,5.0,3.0,1.0,1.0,1.0,0.0,-1.0,,,,,,,,,,,,,,,,,0,45,45,45,2,0,2,0,,,,,,,,,,,,,,,,,,,,,,,,,,,,,,,"['num_6', 'return']","[0.2609209000002011, 0.468899200001033]",1565.7573048000013,None,,,,,,,24,001,2021_Nov_09_1453,eeg_contingent_digits,2021.2.3,59.990737429449524,
45.0,5.0,3.0,1.0,1.0,1.0,0.0,-1.0,,,,,,,,,,,,,,,,,0,45,45,45,,,,,,,,,,,,,,,,,,,,,,,,,,,,,,,,,,,,,,,None,None,None,None,None,,24,001,2021_Nov_09_1453,eeg_contingent_digits,2021.2.3,59.990737429449524,
46.0,4.0,0.0,8.0,49.0,1.0,1.0,0.0,,,,,,,,,,,,,,,,,0,46,46,46,0,0,0,0,,,,,,,,,,,,,,,,,,,1566.2903762999995,None,1566.2903762999995,None,1572.9212253000005,1574.3206496999992,0.013986750000185566,None,0.49448335000124644,None,0.9610454499998013,None,"['num_5', 'return']","[7.143439900002704, 7.4474432000024535]",1574.370690300002,None,,,,,,,24,001,2021_Nov_09_1453,eeg_contingent_digits,2021.2.3,59.990737429449524,
46.0,4.0,0.0,8.0,49.0,1.0,1.0,0.0,,,,,,,,,,,,,,,,,0,46,46,46,1,0,1,0,,,,,,,,,,,,,,,,,,,,,,,,,,,,,,,"['num_6', 'return']","[0.959077100000286, 1.2870827999977337]",1581.8510091999997,None,,,,,,,24,001,2021_Nov_09_1453,eeg_contingent_digits,2021.2.3,59.990737429449524,
46.0,4.0,0.0,8.0,49.0,1.0,1.0,0.0,,,,,,,,,,,,,,,,,0,46,46,46,2,0,2,0,,,,,,,,,,,,,,,,,,,,,,,,,,,,,,,"['num_9', 'return']","[0.5941563999986101, 0.7701740999982576]",1583.1839384000014,None,,,,,,,24,001,2021_Nov_09_1453,eeg_contingent_digits,2021.2.3,59.990737429449524,
46.0,4.0,0.0,8.0,49.0,1.0,1.0,0.0,,,,,,,,,,,,,,,,,0,46,46,46,,,,,,,,,,,,,,,,,,,,,,,,,,,,,,,,,,,,,,,None,None,None,None,None,,24,001,2021_Nov_09_1453,eeg_contingent_digits,2021.2.3,59.990737429449524,
47.0,4.0,9.0,9.0,14.0,1.0,0.0,-1.0,,,,,,,,,,,,,,,,,0,47,47,47,0,0,0,0,,,,,,,,,,,,,,,,,,,1584.0169714000003,None,1584.0169714000003,None,1589.681474500001,1591.080939899999,0.013806479997583665,None,0.4941508799965959,None,0.9606595799959905,None,"['num_4', 'return']","[2.423121200001333, 3.23109359999944]",1591.1309249000005,None,,,,,,,24,001,2021_Nov_09_1453,eeg_contingent_digits,2021.2.3,59.990737429449524,
47.0,4.0,9.0,9.0,14.0,1.0,0.0,-1.0,,,,,,,,,,,,,,,,,0,47,47,47,1,0,1,0,,,,,,,,,,,,,,,,,,,,,,,,,,,,,,,"['num_5', 'return']","[0.5496659000018553, 0.8216825999988941]",1594.3963231000016,None,,,,,,,24,001,2021_Nov_09_1453,eeg_contingent_digits,2021.2.3,59.990737429449524,
47.0,4.0,9.0,9.0,14.0,1.0,0.0,-1.0,,,,,,,,,,,,,,,,,0,47,47,47,2,0,2,0,,,,,,,,,,,,,,,,,,,,,,,,,,,,,,,"['num_5', 'return']","[0.23533990000214544, 0.5153188000003865]",1595.2626765999994,None,,,,,,,24,001,2021_Nov_09_1453,eeg_contingent_digits,2021.2.3,59.990737429449524,
47.0,4.0,9.0,9.0,14.0,1.0,0.0,-1.0,,,,,,,,,,,,,,,,,0,47,47,47,,,,,,,,,,,,,,,,,,,,,,,,,,,,,,,,,,,,,,,None,None,None,None,None,,24,001,2021_Nov_09_1453,eeg_contingent_digits,2021.2.3,59.990737429449524,
48.0,1.0,8.0,6.0,13.0,1.0,1.0,0.0,,,,,,,,,,,,,,,,,0,48,48,48,0,0,0,0,,,,,,,,,,,,,,,,,,,1595.8291477999992,None,1595.8291477999992,None,1597.8784084,1599.2778292000003,0.0064040799989015795,None,0.4793047800012573,None,0.962445379998826,None,"['num_5', 'return']","[2.505449899999803, 2.8814615000010235]",1599.3444866999998,None,,,,,,,24,001,2021_Nov_09_1453,eeg_contingent_digits,2021.2.3,59.990737429449524,
48.0,1.0,8.0,6.0,13.0,1.0,1.0,0.0,,,,,,,,,,,,,,,,,0,48,48,48,1,0,1,0,,,,,,,,,,,,,,,,,,,,,,,,,,,,,,,"['num_6', 'return']","[0.20591680000143242, 1.01393889999963]",1602.2600095000016,None,,,,,,,24,001,2021_Nov_09_1453,eeg_contingent_digits,2021.2.3,59.990737429449524,
48.0,1.0,8.0,6.0,13.0,1.0,1.0,0.0,,,,,,,,,,,,,,,,,0,48,48,48,2,0,2,0,,,,,,,,,,,,,,,,,,,,,,,,,,,,,,,"['num_5', 'return']","[0.2282928999993601, 0.4683128999968176]",1603.3096220000007,None,,,,,,,24,001,2021_Nov_09_1453,eeg_contingent_digits,2021.2.3,59.990737429449524,
48.0,1.0,8.0,6.0,13.0,1.0,1.0,0.0,,,,,,,,,,,,,,,,,0,48,48,48,,,,,,,,,,,,,,,,,,,,,,,,,,,,,,,,,,,,,,,None,None,None,None,None,,24,001,2021_Nov_09_1453,eeg_contingent_digits,2021.2.3,59.990737429449524,
49.0,9.0,3.0,9.0,10.0,1.0,0.0,1.0,,,,,,,,,,,,,,,,,0,49,49,49,0,0,0,0,,,,,,,,,,,,,,,,,,,1603.8595148999993,None,1603.8595148999993,None,1606.991578000001,1608.3910294000016,0.003983079997851746,None,0.4911727799953951,None,0.9744197799955145,None,"['num_1', 'return']","[0.7928424999990966, 1.0888411000014457]",1608.4410357000015,None,,,,,,,24,001,2021_Nov_09_1453,eeg_contingent_digits,2021.2.3,59.990737429449524,
49.0,9.0,3.0,9.0,10.0,1.0,0.0,1.0,,,,,,,,,,,,,,,,,0,49,49,49,1,0,1,0,,,,,,,,,,,,,,,,,,,,,,,,,,,,,,,"['num_2', 'return']","[0.49196710000251187, 0.811963400003151]",1609.5739009999998,None,,,,,,,24,001,2021_Nov_09_1453,eeg_contingent_digits,2021.2.3,59.990737429449524,
49.0,9.0,3.0,9.0,10.0,1.0,0.0,1.0,,,,,,,,,,,,,,,,,0,49,49,49,2,0,2,0,,,,,,,,,,,,,,,,,,,,,,,,,,,,,,,"['num_1', 'return']","[0.45821210000212886, 0.730197799999587]",1610.4236579000026,None,,,,,,,24,001,2021_Nov_09_1453,eeg_contingent_digits,2021.2.3,59.990737429449524,
49.0,9.0,3.0,9.0,10.0,1.0,0.0,1.0,,,,,,,,,,,,,,,,,0,49,49,49,,,,,,,,,,,,,,,,,,,,,,,,,,,,,,,,,,,,,,,None,None,None,None,None,,24,001,2021_Nov_09_1453,eeg_contingent_digits,2021.2.3,59.990737429449524,
50.0,8.0,9.0,2.0,13.0,1.0,1.0,0.0,,,,,,,,,,,,,,,,,0,50,50,50,0,0,0,0,,,,,,,,,,,,,,,,,,,1611.2066245999995,None,1611.2066245999995,None,1619.6034333999996,1621.0028915000003,0.00321987999996054,None,0.48966057999859913,None,0.9728315799984557,None,"['num_1', 'return']","[1.0449133000001893, 2.508912999997847]",1621.0528746000018,None,,,,,,,24,001,2021_Nov_09_1453,eeg_contingent_digits,2021.2.3,59.990737429449524,
50.0,8.0,9.0,2.0,13.0,1.0,1.0,0.0,,,,,,,,,,,,,,,,,0,50,50,50,1,0,1,0,,,,,,,,,,,,,,,,,,,,,,,,,,,,,,,"['num_2', 'return']","[0.23989820000133477, 0.4798626999981934]",1623.6018987999996,None,,,,,,,24,001,2021_Nov_09_1453,eeg_contingent_digits,2021.2.3,59.990737429449524,
50.0,8.0,9.0,2.0,13.0,1.0,1.0,0.0,,,,,,,,,,,,,,,,,0,50,50,50,2,0,2,0,,,,,,,,,,,,,,,,,,,,,,,,,,,,,,,"['num_3', 'return']","[0.2113281999991159, 0.4593569999997271]",1624.1184353000026,None,,,,,,,24,001,2021_Nov_09_1453,eeg_contingent_digits,2021.2.3,59.990737429449524,
50.0,8.0,9.0,2.0,13.0,1.0,1.0,0.0,,,,,,,,,,,,,,,,,0,50,50,50,,,,,,,,,,,,,,,,,,,,,,,,,,,,,,,,,,,,,,,None,None,None,None,None,,24,001,2021_Nov_09_1453,eeg_contingent_digits,2021.2.3,59.990737429449524,
51.0,9.0,4.0,8.0,48.0,1.0,0.0,-0.0,,,,,,,,,,,,,,,,,0,51,51,51,0,0,0,0,,,,,,,,,,,,,,,,,,,1624.6348933000008,None,1624.6348933000008,None,1633.098341500001,1634.4978174999997,0.014222549998521572,None,0.49501094999868656,None,0.9614981500017166,None,"['num_1', 'return']","[2.005920100000367, 2.2698985999995784]",1634.5477834000012,None,,,,,,,24,001,2021_Nov_09_1453,eeg_contingent_digits,2021.2.3,59.990737429449524,
51.0,9.0,4.0,8.0,48.0,1.0,0.0,-0.0,,,,,,,,,,,,,,,,,0,51,51,51,1,0,1,0,,,,,,,,,,,,,,,,,,,,,,,,,,,,,,,"['num_2', 'return']","[0.20214080000005197, 0.49017620000086026]",1636.8635257000024,None,,,,,,,24,001,2021_Nov_09_1453,eeg_contingent_digits,2021.2.3,59.990737429449524,
51.0,9.0,4.0,8.0,48.0,1.0,0.0,-0.0,,,,,,,,,,,,,,,,,0,51,51,51,2,0,2,0,,,,,,,,,,,,,,,,,,,,,,,,,,,,,,,"['num_0', 'return']","[0.2770139999993262, 0.5569605999990017]",1637.3966963999992,None,,,,,,,24,001,2021_Nov_09_1453,eeg_contingent_digits,2021.2.3,59.990737429449524,
51.0,9.0,4.0,8.0,48.0,1.0,0.0,-0.0,,,,,,,,,,,,,,,,,0,51,51,51,,,,,,,,,,,,,,,,,,,,,,,,,,,,,,,,,,,,,,,None,None,None,None,None,,24,001,2021_Nov_09_1453,eeg_contingent_digits,2021.2.3,59.990737429449524,
52.0,9.0,5.0,2.0,14.0,1.0,1.0,0.0,,,,,,,,,,,,,,,,,0,52,52,52,0,0,0,0,,,,,,,,,,,,,,,,,,,1638.013114100002,None,1638.013114100002,None,1640.1456359000003,1641.545178700002,0.003972249996877508,None,0.4911016499972902,None,0.9743496499977482,None,"['num_5', 'return']","[3.3264963000001444, 3.5905125999997836]",1641.5951184000005,None,,,,,,,24,001,2021_Nov_09_1453,eeg_contingent_digits,2021.2.3,59.990737429449524,
52.0,9.0,5.0,2.0,14.0,1.0,1.0,0.0,,,,,,,,,,,,,,,,,0,52,52,52,1,0,1,0,,,,,,,,,,,,,,,,,,,,,,,,,,,,,,,"['num_5', 'return']","[0.21461060000001453, 0.47055399999953806]",1645.2270057999995,None,,,,,,,24,001,2021_Nov_09_1453,eeg_contingent_digits,2021.2.3,59.990737429449524,
52.0,9.0,5.0,2.0,14.0,1.0,1.0,0.0,,,,,,,,,,,,,,,,,0,52,52,52,2,0,2,0,,,,,,,,,,,,,,,,,,,,,,,,,,,,,,,"['num_6', 'return']","[0.8421219999981986, 1.1061071999974956]",1645.743486200001,None,,,,,,,24,001,2021_Nov_09_1453,eeg_contingent_digits,2021.2.3,59.990737429449524,
52.0,9.0,5.0,2.0,14.0,1.0,1.0,0.0,,,,,,,,,,,,,,,,,0,52,52,52,,,,,,,,,,,,,,,,,,,,,,,,,,,,,,,,,,,,,,,None,None,None,None,None,,24,001,2021_Nov_09_1453,eeg_contingent_digits,2021.2.3,59.990737429449524,
53.0,4.0,3.0,4.0,33.0,1.0,0.0,1.0,,,,,,,,,,,,,,,,,0,53,53,53,0,0,0,0,,,,,,,,,,,,,,,,,,,1646.9097241000018,None,1646.9097241000018,None,1650.0585157000023,1651.458029100002,0.006919839997863164,None,0.48039523999977973,None,0.9636143399984576,None,"['num_1', 'return']","[9.341484999997192, 9.533476099997642]",1651.5080006999997,None,,,,,,,24,001,2021_Nov_09_1453,eeg_contingent_digits,2021.2.3,59.990737429449524,
53.0,4.0,3.0,4.0,33.0,1.0,0.0,1.0,,,,,,,,,,,,,,,,,0,53,53,53,1,0,1,0,,,,,,,,,,,,,,,,,,,,,,,,,,,,,,,"['num_0', 'return']","[0.2098264999985986, 0.4658376000006683]",1661.0876652000006,None,,,,,,,24,001,2021_Nov_09_1453,eeg_contingent_digits,2021.2.3,59.990737429449524,
53.0,4.0,3.0,4.0,33.0,1.0,0.0,1.0,,,,,,,,,,,,,,,,,0,53,53,53,2,0,2,0,,,,,,,,,,,,,,,,,,,,,,,,,,,,,,,"['num_1', 'return']","[0.2541543000006641, 0.49403760000132024]",1661.5874581000026,None,,,,,,,24,001,2021_Nov_09_1453,eeg_contingent_digits,2021.2.3,59.990737429449524,
53.0,4.0,3.0,4.0,33.0,1.0,0.0,1.0,,,,,,,,,,,,,,,,,0,53,53,53,,,,,,,,,,,,,,,,,,,,,,,,,,,,,,,,,,,,,,,None,None,None,None,None,,24,001,2021_Nov_09_1453,eeg_contingent_digits,2021.2.3,59.990737429449524,
54.0,5.0,9.0,4.0,49.0,1.0,1.0,0.0,,,,,,,,,,,,,,,,,0,54,54,54,0,0,0,0,,,,,,,,,,,,,,,,,,,1662.1372660000015,None,1662.1372660000015,None,1666.3856644000007,1667.7851078000022,0.008728539996809559,None,0.4839698399991903,None,0.9671522399985406,None,"['num_7', 'num_7', 'return']","[5.1903435999993235, 5.358290099997248, 5.982300899999245]",1667.835080500001,None,,,,,,,24,001,2021_Nov_09_1453,eeg_contingent_digits,2021.2.3,59.990737429449524,
54.0,5.0,9.0,4.0,49.0,1.0,1.0,0.0,,,,,,,,,,,,,,,,,0,54,54,54,1,0,1,0,,,,,,,,,,,,,,,,,,,,,,,,,,,,,,,"['num_7', 'return']","[0.4479129000028479, 0.7279216000024462]",1673.8494523000008,None,,,,,,,24,001,2021_Nov_09_1453,eeg_contingent_digits,2021.2.3,59.990737429449524,
54.0,5.0,9.0,4.0,49.0,1.0,1.0,0.0,,,,,,,,,,,,,,,,,0,54,54,54,2,0,2,0,,,,,,,,,,,,,,,,,,,,,,,,,,,,,,,"['num_8', 'return']","[0.3455341999979282, 0.6095306999995955]",1674.6158347000019,None,,,,,,,24,001,2021_Nov_09_1453,eeg_contingent_digits,2021.2.3,59.990737429449524,
54.0,5.0,9.0,4.0,49.0,1.0,1.0,0.0,,,,,,,,,,,,,,,,,0,54,54,54,,,,,,,,,,,,,,,,,,,,,,,,,,,,,,,,,,,,,,,None,None,None,None,None,,24,001,2021_Nov_09_1453,eeg_contingent_digits,2021.2.3,59.990737429449524,
55.0,6.0,3.0,0.0,7.0,1.0,0.0,2.0,,,,,,,,,,,,,,,,,0,55,55,55,0,0,0,0,,,,,,,,,,,,,,,,,,,1675.2822908000016,None,1675.2822908000016,None,1681.6131922000022,1683.0126531000024,0.001088079996407032,None,0.48548117999598617,None,0.96857467999871,None,"['num_4', 'return']","[5.978655599999911, 6.210683500001323]",1683.0626374999993,None,,,,,,,24,001,2021_Nov_09_1453,eeg_contingent_digits,2021.2.3,59.990737429449524,
55.0,6.0,3.0,0.0,7.0,1.0,0.0,2.0,,,,,,,,,,,,,,,,,0,55,55,55,1,0,1,0,,,,,,,,,,,,,,,,,,,,,,,,,,,,,,,"['num_5', 'return']","[0.49897690000216244, 0.7149837000033585]",1689.3102820999993,None,,,,,,,24,001,2021_Nov_09_1453,eeg_contingent_digits,2021.2.3,59.990737429449524,
55.0,6.0,3.0,0.0,7.0,1.0,0.0,2.0,,,,,,,,,,,,,,,,,0,55,55,55,2,0,2,0,,,,,,,,,,,,,,,,,,,,,,,,,,,,,,,"['num_4', 'return']","[0.36529199999858974, 0.6292967000008503]",1690.0599766000014,None,,,,,,,24,001,2021_Nov_09_1453,eeg_contingent_digits,2021.2.3,59.990737429449524,
55.0,6.0,3.0,0.0,7.0,1.0,0.0,2.0,,,,,,,,,,,,,,,,,0,55,55,55,,,,,,,,,,,,,,,,,,,,,,,,,,,,,,,,,,,,,,,None,None,None,None,None,,24,001,2021_Nov_09_1453,eeg_contingent_digits,2021.2.3,59.990737429449524,
56.0,2.0,4.0,0.0,14.0,1.0,1.0,0.0,,,,,,,,,,,,,,,,,0,56,56,56,0,0,0,0,,,,,,,,,,,,,,,,,,,1690.7430620000014,None,1690.7430620000014,None,1694.0751864000013,1695.4746183000025,0.011933450001379242,None,0.49049564999950235,None,0.9735763499993482,None,"['num_1', 'return']","[0.8839348000001337, 1.1319192000009934]",1695.5412706999996,None,,,,,,,24,001,2021_Nov_09_1453,eeg_contingent_digits,2021.2.3,59.990737429449524,
56.0,2.0,4.0,0.0,14.0,1.0,1.0,0.0,,,,,,,,,,,,,,,,,0,56,56,56,1,0,1,0,,,,,,,,,,,,,,,,,,,,,,,,,,,,,,,"['num_2', 'return']","[0.30972120000296854, 0.5417123000006541]",1696.7074794,None,,,,,,,24,001,2021_Nov_09_1453,eeg_contingent_digits,2021.2.3,59.990737429449524,
56.0,2.0,4.0,0.0,14.0,1.0,1.0,0.0,,,,,,,,,,,,,,,,,0,56,56,56,2,0,2,0,,,,,,,,,,,,,,,,,,,,,,,,,,,,,,,"['num_3', 'return']","[0.28665770000225166, 0.4466915000011795]",1697.2905391999993,None,,,,,,,24,001,2021_Nov_09_1453,eeg_contingent_digits,2021.2.3,59.990737429449524,
56.0,2.0,4.0,0.0,14.0,1.0,1.0,0.0,,,,,,,,,,,,,,,,,0,56,56,56,,,,,,,,,,,,,,,,,,,,,,,,,,,,,,,,,,,,,,,None,None,None,None,None,,24,001,2021_Nov_09_1453,eeg_contingent_digits,2021.2.3,59.990737429449524,
57.0,8.0,9.0,0.0,13.0,1.0,0.0,-1.0,,,,,,,,,,,,,,,,,0,57,57,57,0,0,0,0,,,,,,,,,,,,,,,,,,,1697.7903689000013,None,1697.7903689000013,None,1700.2394633000004,1701.6389230999994,0.013646049999806564,None,0.4938828500016825,None,0.9769908500020392,None,"['num_1', 'return']","[6.327567599997565, 6.623548999999912]",1701.7055404999992,None,,,,,,,24,001,2021_Nov_09_1453,eeg_contingent_digits,2021.2.3,59.990737429449524,
57.0,8.0,9.0,0.0,13.0,1.0,0.0,-1.0,,,,,,,,,,,,,,,,,0,57,57,57,1,0,1,0,,,,,,,,,,,,,,,,,,,,,,,,,,,,,,,"['num_4', 'return']","[0.6635059999971418, 0.9275304999973741]",1708.3696579999996,None,,,,,,,24,001,2021_Nov_09_1453,eeg_contingent_digits,2021.2.3,59.990737429449524,
57.0,8.0,9.0,0.0,13.0,1.0,0.0,-1.0,,,,,,,,,,,,,,,,,0,57,57,57,2,0,2,0,,,,,,,,,,,,,,,,,,,,,,,,,,,,,,,"['num_4', 'return']","[0.24922009999863803, 0.4812644999983604]",1709.3358943999992,None,,,,,,,24,001,2021_Nov_09_1453,eeg_contingent_digits,2021.2.3,59.990737429449524,
57.0,8.0,9.0,0.0,13.0,1.0,0.0,-1.0,,,,,,,,,,,,,,,,,0,57,57,57,,,,,,,,,,,,,,,,,,,,,,,,,,,,,,,,,,,,,,,None,None,None,None,None,,24,001,2021_Nov_09_1453,eeg_contingent_digits,2021.2.3,59.990737429449524,
58.0,6.0,9.0,1.0,14.0,1.0,1.0,0.0,,,,,,,,,,,,,,,,,0,58,58,58,0,0,0,0,,,,,,,,,,,,,,,,,,,1709.8858039000006,None,1709.8858039000006,None,1715.4503038000003,1716.8497712999997,0.009108350001042709,None,0.4847655500016117,None,0.9679113500023959,None,"['num_4', 'return']","[1.748612300001696, 2.036613500000385]",1716.9164380000002,None,,,,,,,24,001,2021_Nov_09_1453,eeg_contingent_digits,2021.2.3,59.990737429449524,
58.0,6.0,9.0,1.0,14.0,1.0,1.0,0.0,,,,,,,,,,,,,,,,,0,58,58,58,1,0,1,0,,,,,,,,,,,,,,,,,,,,,,,,,,,,,,,"['num_5', 'return']","[0.33008999999947264, 0.5940697999976692]",1718.998950000001,None,,,,,,,24,001,2021_Nov_09_1453,eeg_contingent_digits,2021.2.3,59.990737429449524,
58.0,6.0,9.0,1.0,14.0,1.0,1.0,0.0,,,,,,,,,,,,,,,,,0,58,58,58,2,0,2,0,,,,,,,,,,,,,,,,,,,,,,,,,,,,,,,"['num_6', 'return']","[0.3130161000008229, 0.48101730000053067]",1719.632027800002,None,,,,,,,24,001,2021_Nov_09_1453,eeg_contingent_digits,2021.2.3,59.990737429449524,
58.0,6.0,9.0,1.0,14.0,1.0,1.0,0.0,,,,,,,,,,,,,,,,,0,58,58,58,,,,,,,,,,,,,,,,,,,,,,,,,,,,,,,,,,,,,,,None,None,None,None,None,,24,001,2021_Nov_09_1453,eeg_contingent_digits,2021.2.3,59.990737429449524,
59.0,8.0,9.0,8.0,7.0,1.0,0.0,2.0,,,,,,,,,,,,,,,,,0,59,59,59,0,0,0,0,,,,,,,,,,,,,,,,,,,1720.1651947999999,None,1720.1651947999999,None,1727.8122698000006,1729.2117438999994,0.012262149997695815,None,0.49106434999703197,None,0.9742152499966323,None,"['num_1', 'return']","[1.1712274000019534, 1.5392597999998543]",1729.2617210000026,None,,,,,,,24,001,2021_Nov_09_1453,eeg_contingent_digits,2021.2.3,59.990737429449524,
59.0,8.0,9.0,8.0,7.0,1.0,0.0,2.0,,,,,,,,,,,,,,,,,0,59,59,59,1,0,1,0,,,,,,,,,,,,,,,,,,,,,,,,,,,,,,,"['num_2', 'return']","[0.3164591999993718, 0.6684379999969678]",1730.8444853,None,,,,,,,24,001,2021_Nov_09_1453,eeg_contingent_digits,2021.2.3,59.990737429449524,
59.0,8.0,9.0,8.0,7.0,1.0,0.0,2.0,,,,,,,,,,,,,,,,,0,59,59,59,2,0,2,0,,,,,,,,,,,,,,,,,,,,,,,,,,,,,,,"['num_1', 'return']","[0.2639533000001393, 0.5759810999988986]",1731.560969000002,None,,,,,,,24,001,2021_Nov_09_1453,eeg_contingent_digits,2021.2.3,59.990737429449524,
59.0,8.0,9.0,8.0,7.0,1.0,0.0,2.0,,,,,,,,,,,,,,,,,0,59,59,59,,,,,,,,,,,,,,,,,,,,,,,,,,,,,,,,,,,,,,,None,None,None,None,None,,24,001,2021_Nov_09_1453,eeg_contingent_digits,2021.2.3,59.990737429449524,
60.0,3.0,9.0,5.0,10.0,1.0,1.0,0.0,,,,,,,,,,,,,,,,,0,60,60,60,0,0,0,0,,,,,,,,,,,,,,,,,,,1732.1939875999997,None,1732.1939875999997,None,1737.3420264000015,1738.7414978000015,0.00821044999975129,None,0.48295415000029607,None,0.9661033499978657,None,"['num_1', 'return']","[0.6895175000026939, 1.1134485000002314]",1738.7914244999993,None,,,,,,,24,001,2021_Nov_09_1453,eeg_contingent_digits,2021.2.3,59.990737429449524,
60.0,3.0,9.0,5.0,10.0,1.0,1.0,0.0,,,,,,,,,,,,,,,,,0,60,60,60,1,0,1,0,,,,,,,,,,,,,,,,,,,,,,,,,,,,,,,"['num_2', 'return']","[0.4358122000012372, 0.9718324999994365]",1739.9410293,None,,,,,,,24,001,2021_Nov_09_1453,eeg_contingent_digits,2021.2.3,59.990737429449524,
60.0,3.0,9.0,5.0,10.0,1.0,1.0,0.0,,,,,,,,,,,,,,,,,0,60,60,60,2,0,2,0,,,,,,,,,,,,,,,,,,,,,,,,,,,,,,,"['num_4', 'return']","[0.5396978999997373, 0.9317059999993944]",1740.9571658999994,None,,,,,,,24,001,2021_Nov_09_1453,eeg_contingent_digits,2021.2.3,59.990737429449524,
60.0,3.0,9.0,5.0,10.0,1.0,1.0,0.0,,,,,,,,,,,,,,,,,0,60,60,60,,,,,,,,,,,,,,,,,,,,,,,,,,,,,,,,,,,,,,,None,None,None,None,None,,24,001,2021_Nov_09_1453,eeg_contingent_digits,2021.2.3,59.990737429449524,
61.0,8.0,4.0,2.0,1.0,1.0,0.0,1.0,,,,,,,,,,,,,,,,,0,61,61,61,0,0,0,0,,,,,,,,,,,,,,,,,,,1741.9569319000002,None,1741.9569319000002,None,1748.1712014000004,1749.5707036999993,0.010196719998930348,None,0.48695151999709196,None,0.9701673199997458,None,"['num_1', 'return']","[5.4760844000011275, 5.916095799999312]",1749.6206466000003,None,,,,,,,24,001,2021_Nov_09_1453,eeg_contingent_digits,2021.2.3,59.990737429449524,
61.0,8.0,4.0,2.0,1.0,1.0,0.0,1.0,,,,,,,,,,,,,,,,,0,61,61,61,1,0,1,0,,,,,,,,,,,,,,,,,,,,,,,,,,,,,,,"['num_7', 'return']","[0.35229460000118706, 0.7123234999999113]",1755.5684273000006,None,,,,,,,24,001,2021_Nov_09_1453,eeg_contingent_digits,2021.2.3,59.990737429449524,
61.0,8.0,4.0,2.0,1.0,1.0,0.0,1.0,,,,,,,,,,,,,,,,,0,61,61,61,2,0,2,0,,,,,,,,,,,,,,,,,,,,,,,,,,,,,,,"['num_2', 'return']","[0.266755299999204, 0.5306640999988304]",1756.3180764999997,None,,,,,,,24,001,2021_Nov_09_1453,eeg_contingent_digits,2021.2.3,59.990737429449524,
61.0,8.0,4.0,2.0,1.0,1.0,0.0,1.0,,,,,,,,,,,,,,,,,0,61,61,61,,,,,,,,,,,,,,,,,,,,,,,,,,,,,,,,,,,,,,,None,None,None,None,None,,24,001,2021_Nov_09_1453,eeg_contingent_digits,2021.2.3,59.990737429449524,
62.0,8.0,4.0,1.0,10.0,1.0,1.0,0.0,,,,,,,,,,,,,,,,,0,62,62,62,0,0,0,0,,,,,,,,,,,,,,,,,,,1756.9012115000005,None,1756.9012115000005,None,1762.3158213000024,1763.7153251000018,0.013615949996165,None,0.4938239499970223,None,0.9768851499939046,None,"['num_1', 'return']","[1.6914209999995364, 2.147420699999202]",1763.7652672000004,None,,,,,,,24,001,2021_Nov_09_1453,eeg_contingent_digits,2021.2.3,59.990737429449524,
62.0,8.0,4.0,1.0,10.0,1.0,1.0,0.0,,,,,,,,,,,,,,,,,0,62,62,62,1,0,1,0,,,,,,,,,,,,,,,,,,,,,,,,,,,,,,,"['num_7', 'return']","[0.3888643999998749, 0.6848578999997699]",1765.9478001999996,None,,,,,,,24,001,2021_Nov_09_1453,eeg_contingent_digits,2021.2.3,59.990737429449524,
62.0,8.0,4.0,1.0,10.0,1.0,1.0,0.0,,,,,,,,,,,,,,,,,0,62,62,62,2,0,2,0,,,,,,,,,,,,,,,,,,,,,,,,,,,,,,,"['num_8', 'return']","[0.2878195000012056, 0.5198190000010072]",1766.6808243000014,None,,,,,,,24,001,2021_Nov_09_1453,eeg_contingent_digits,2021.2.3,59.990737429449524,
62.0,8.0,4.0,1.0,10.0,1.0,1.0,0.0,,,,,,,,,,,,,,,,,0,62,62,62,,,,,,,,,,,,,,,,,,,,,,,,,,,,,,,,,,,,,,,None,None,None,None,None,,24,001,2021_Nov_09_1453,eeg_contingent_digits,2021.2.3,59.990737429449524,
63.0,5.0,2.0,1.0,1.0,1.0,0.0,1.0,,,,,,,,,,,,,,,,,0,63,63,63,0,0,0,0,,,,,,,,,,,,,,,,,,,1767.2639296000016,None,1767.2639296000016,None,1773.7614739000019,1775.1609298000003,0.012855450000643032,None,0.4923007500001404,None,0.9754142499987211,None,"['num_9', 'return']","[1.1249989999996615, 1.8689699999995355]",1775.2275893000005,None,,,,,,,24,001,2021_Nov_09_1453,eeg_contingent_digits,2021.2.3,59.990737429449524,
63.0,5.0,2.0,1.0,1.0,1.0,0.0,1.0,,,,,,,,,,,,,,,,,0,63,63,63,1,0,1,0,,,,,,,,,,,,,,,,,,,,,,,,,,,,,,,"['num_8', 'return']","[2.5850647000006575, 2.913093499999377]",1777.1435048000021,None,,,,,,,24,001,2021_Nov_09_1453,eeg_contingent_digits,2021.2.3,59.990737429449524,
63.0,5.0,2.0,1.0,1.0,1.0,0.0,1.0,,,,,,,,,,,,,,,,,0,63,63,63,2,0,2,0,,,,,,,,,,,,,,,,,,,,,,,,,,,,,,,"['num_8', 'return']","[0.25221910000254866, 0.5482265999999072]",1780.0923782999998,None,,,,,,,24,001,2021_Nov_09_1453,eeg_contingent_digits,2021.2.3,59.990737429449524,
63.0,5.0,2.0,1.0,1.0,1.0,0.0,1.0,,,,,,,,,,,,,,,,,0,63,63,63,,,,,,,,,,,,,,,,,,,,,,,,,,,,,,,,,,,,,,,None,None,None,None,None,,24,001,2021_Nov_09_1453,eeg_contingent_digits,2021.2.3,59.990737429449524,
64.0,9.0,8.0,0.0,1.0,1.0,1.0,0.0,,,,,,,,,,,,,,,,,0,64,64,64,0,0,0,0,,,,,,,,,,,,,,,,,,,1780.7088705000024,None,1780.7088705000024,None,1792.5209983000022,1793.920464499999,0.0029142799976398237,None,0.4890380799988634,None,0.9722371799980465,None,"['num_5', 'return']","[0.957990200000495, 1.1819771000009496]",1793.9704511000018,None,,,,,,,24,001,2021_Nov_09_1453,eeg_contingent_digits,2021.2.3,59.990737429449524,
64.0,9.0,8.0,0.0,1.0,1.0,1.0,0.0,,,,,,,,,,,,,,,,,0,64,64,64,1,0,1,0,,,,,,,,,,,,,,,,,,,,,,,,,,,,,,,"['num_6', 'return']","[0.9097622000008414, 1.1977478999979212]",1795.1866776999996,None,,,,,,,24,001,2021_Nov_09_1453,eeg_contingent_digits,2021.2.3,59.990737429449524,
64.0,9.0,8.0,0.0,1.0,1.0,1.0,0.0,,,,,,,,,,,,,,,,,0,64,64,64,2,0,2,0,,,,,,,,,,,,,,,,,,,,,,,,,,,,,,,"['num_8', 'return']","[0.4929918000016187, 0.6929434000012407]",1796.4195059000012,None,,,,,,,24,001,2021_Nov_09_1453,eeg_contingent_digits,2021.2.3,59.990737429449524,
64.0,9.0,8.0,0.0,1.0,1.0,1.0,0.0,,,,,,,,,,,,,,,,,0,64,64,64,,,,,,,,,,,,,,,,,,,,,,,,,,,,,,,,,,,,,,,None,None,None,None,None,,24,001,2021_Nov_09_1453,eeg_contingent_digits,2021.2.3,59.990737429449524,
65.0,6.0,8.0,3.0,14.0,1.0,0.0,1.0,,,,,,,,,,,,,,,,,0,65,65,65,0,0,0,0,,,,,,,,,,,,,,,,,,,1797.1692268000006,None,1797.1692268000006,None,1803.2835696000002,1804.6830436000018,0.016246949995547766,None,0.4823709499978577,None,0.9655405499979679,None,"['num_5', 'return']","[1.0273497000016505, 1.6593244000032428]",1804.7330313999992,None,,,,,,,24,001,2021_Nov_09_1453,eeg_contingent_digits,2021.2.3,59.990737429449524,
65.0,6.0,8.0,3.0,14.0,1.0,0.0,1.0,,,,,,,,,,,,,,,,,0,65,65,65,1,0,1,0,,,,,,,,,,,,,,,,,,,,,,,,,,,,,,,"['num_6', 'return']","[0.5279021999995166, 0.9839380999983405]",1806.4324349000017,None,,,,,,,24,001,2021_Nov_09_1453,eeg_contingent_digits,2021.2.3,59.990737429449524,
65.0,6.0,8.0,3.0,14.0,1.0,0.0,1.0,,,,,,,,,,,,,,,,,0,65,65,65,2,0,2,0,,,,,,,,,,,,,,,,,,,,,,,,,,,,,,,"['num_8', 'return']","[0.43969710000237683, 0.8716973000009602]",1807.448632800002,None,,,,,,,24,001,2021_Nov_09_1453,eeg_contingent_digits,2021.2.3,59.990737429449524,
65.0,6.0,8.0,3.0,14.0,1.0,0.0,1.0,,,,,,,,,,,,,,,,,0,65,65,65,,,,,,,,,,,,,,,,,,,,,,,,,,,,,,,,,,,,,,,None,None,None,None,None,,24,001,2021_Nov_09_1453,eeg_contingent_digits,2021.2.3,59.990737429449524,
66.0,1.0,6.0,2.0,49.0,1.0,1.0,0.0,,,,,,,,,,,,,,,,,0,66,66,66,0,0,0,0,,,,,,,,,,,,,,,,,,,1808.381670400002,None,1808.381670400002,None,1811.5804271000015,1812.979931400001,0.00633348000337719,None,0.47923628000353347,None,0.9623654800016084,None,"['num_1', 'return']","[0.6584073999983957, 1.5943743999996514]",1813.0299133000008,None,,,,,,,24,001,2021_Nov_09_1453,eeg_contingent_digits,2021.2.3,59.990737429449524,
66.0,1.0,6.0,2.0,49.0,1.0,1.0,0.0,,,,,,,,,,,,,,,,,0,66,66,66,1,0,1,0,,,,,,,,,,,,,,,,,,,,,,,,,,,,,,,"['num_2', 'return']","[0.44970459999967716, 1.1457121999992523]",1814.6625993000016,None,,,,,,,24,001,2021_Nov_09_1453,eeg_contingent_digits,2021.2.3,59.990737429449524,
66.0,1.0,6.0,2.0,49.0,1.0,1.0,0.0,,,,,,,,,,,,,,,,,0,66,66,66,2,0,2,0,,,,,,,,,,,,,,,,,,,,,,,,,,,,,,,"['num_1', 'num_3', 'return']","[0.5948376000014832, 2.1868341000008513, 2.4108106000021507]",1815.8454353000016,None,,,,,,,24,001,2021_Nov_09_1453,eeg_contingent_digits,2021.2.3,59.990737429449524,
66.0,1.0,6.0,2.0,49.0,1.0,1.0,0.0,,,,,,,,,,,,,,,,,0,66,66,66,,,,,,,,,,,,,,,,,,,,,,,,,,,,,,,,,,,,,,,None,None,None,None,None,,24,001,2021_Nov_09_1453,eeg_contingent_digits,2021.2.3,59.990737429449524,
67.0,1.0,4.0,5.0,21.0,1.0,0.0,1.0,,,,,,,,,,,,,,,,,0,67,67,67,0,0,0,0,,,,,,,,,,,,,,,,,,,1818.3278403000004,None,1818.3278403000004,None,1822.592960599999,1823.9923554000015,0.010576179996860446,None,0.48778397999922163,None,0.9708079799966072,None,"['num_1', 'return']","[0.9818739000002097, 1.8218990999994276]",1824.0423297000016,None,,,,,,,24,001,2021_Nov_09_1453,eeg_contingent_digits,2021.2.3,59.990737429449524,
67.0,1.0,4.0,5.0,21.0,1.0,0.0,1.0,,,,,,,,,,,,,,,,,0,67,67,67,1,0,1,0,,,,,,,,,,,,,,,,,,,,,,,,,,,,,,,"['num_2', 'return']","[0.2999180999977398, 0.6438987000001362]",1825.9083181999995,None,,,,,,,24,001,2021_Nov_09_1453,eeg_contingent_digits,2021.2.3,59.990737429449524,
67.0,1.0,4.0,5.0,21.0,1.0,0.0,1.0,,,,,,,,,,,,,,,,,0,67,67,67,2,0,2,0,,,,,,,,,,,,,,,,,,,,,,,,,,,,,,,"['num_0', 'return']","[0.24883910000062315, 0.5688375999998243]",1826.5913586000024,None,,,,,,,24,001,2021_Nov_09_1453,eeg_contingent_digits,2021.2.3,59.990737429449524,
67.0,1.0,4.0,5.0,21.0,1.0,0.0,1.0,,,,,,,,,,,,,,,,,0,67,67,67,,,,,,,,,,,,,,,,,,,,,,,,,,,,,,,,,,,,,,,None,None,None,None,None,,24,001,2021_Nov_09_1453,eeg_contingent_digits,2021.2.3,59.990737429449524,
68.0,9.0,5.0,1.0,48.0,1.0,1.0,0.0,,,,,,,,,,,,,,,,,0,68,68,68,0,0,0,0,,,,,,,,,,,,,,,,,,,1827.2244776000007,None,1827.2244776000007,None,1835.2214072999996,1836.6209340000023,0.014884119998896495,None,0.4796570200014685,None,0.9628139199994621,None,"['num_1', 'return']","[0.4092172999989998, 0.7851814999994531]",1836.6709033000006,None,,,,,,,24,001,2021_Nov_09_1453,eeg_contingent_digits,2021.2.3,59.990737429449524,
68.0,9.0,5.0,1.0,48.0,1.0,1.0,0.0,,,,,,,,,,,,,,,,,0,68,68,68,1,0,1,0,,,,,,,,,,,,,,,,,,,,,,,,,,,,,,,"['num_2', 'return']","[0.3842313999994076, 0.720226299999922]",1837.503865900002,None,,,,,,,24,001,2021_Nov_09_1453,eeg_contingent_digits,2021.2.3,59.990737429449524,
68.0,9.0,5.0,1.0,48.0,1.0,1.0,0.0,,,,,,,,,,,,,,,,,0,68,68,68,2,0,2,0,,,,,,,,,,,,,,,,,,,,,,,,,,,,,,,"['num_3', 'return']","[0.21783010000217473, 0.5218676000004052]",1838.2702443000017,None,,,,,,,24,001,2021_Nov_09_1453,eeg_contingent_digits,2021.2.3,59.990737429449524,
68.0,9.0,5.0,1.0,48.0,1.0,1.0,0.0,,,,,,,,,,,,,,,,,0,68,68,68,,,,,,,,,,,,,,,,,,,,,,,,,,,,,,,,,,,,,,,None,None,None,None,None,,24,001,2021_Nov_09_1453,eeg_contingent_digits,2021.2.3,59.990737429449524,
69.0,6.0,1.0,8.0,7.0,1.0,0.0,-1.0,,,,,,,,,,,,,,,,,0,69,69,69,0,0,0,0,,,,,,,,,,,,,,,,,,,1838.8533824000006,None,1838.8533824000006,None,1845.9006663,1847.300152300002,0.006499849998363061,None,0.47952594999878784,None,0.962725949997548,None,"['num_3', 'return']","[3.745135000001028, 4.033177299999807]",1847.3668710999991,None,,,,,,,24,001,2021_Nov_09_1453,eeg_contingent_digits,2021.2.3,59.990737429449524,
69.0,6.0,1.0,8.0,7.0,1.0,0.0,-1.0,,,,,,,,,,,,,,,,,0,69,69,69,1,0,1,0,,,,,,,,,,,,,,,,,,,,,,,,,,,,,,,"['num_4', 'return']","[1.2960265000001527, 1.672054599999683]",1851.4319491000024,None,,,,,,,24,001,2021_Nov_09_1453,eeg_contingent_digits,2021.2.3,59.990737429449524,
69.0,6.0,1.0,8.0,7.0,1.0,0.0,-1.0,,,,,,,,,,,,,,,,,0,69,69,69,2,0,2,0,,,,,,,,,,,,,,,,,,,,,,,,,,,,,,,"['num_4', 'return']","[0.14800990000003367, 0.35603959999934887]",1853.1479561000015,None,,,,,,,24,001,2021_Nov_09_1453,eeg_contingent_digits,2021.2.3,59.990737429449524,
69.0,6.0,1.0,8.0,7.0,1.0,0.0,-1.0,,,,,,,,,,,,,,,,,0,69,69,69,,,,,,,,,,,,,,,,,,,,,,,,,,,,,,,,,,,,,,,1853.5977568000017,None,return,1853.5977568000017,None,33.193967399998655,24,001,2021_Nov_09_1453,eeg_contingent_digits,2021.2.3,59.990737429449524,
70.0,5.0,1.0,6.0,33.0,1.0,1.0,0.0,,,,,,,,,,,,,,,,,0,70,70,70,0,0,0,0,,,,,,,,,,,,,,,,,,,1886.8351165000022,None,1886.8351165000022,None,1889.3508211000008,1890.7502864000016,0.007116980003047502,None,0.48084318000110216,None,0.9639381800006959,None,"['num_5', 'return']","[1.6627737999988312, 2.1987561999994796]",1890.8169220000018,None,,,,,,,24,001,2021_Nov_09_1453,eeg_contingent_digits,2021.2.3,59.990737429449524,
70.0,5.0,1.0,6.0,33.0,1.0,1.0,0.0,,,,,,,,,,,,,,,,,0,70,70,70,1,0,1,0,,,,,,,,,,,,,,,,,,,,,,,,,,,,,,,"['num_6', 'return']","[0.9822449999992386, 1.3582757000003767]",1893.0494065999992,None,,,,,,,24,001,2021_Nov_09_1453,eeg_contingent_digits,2021.2.3,59.990737429449524,
70.0,5.0,1.0,6.0,33.0,1.0,1.0,0.0,,,,,,,,,,,,,,,,,0,70,70,70,2,0,2,0,,,,,,,,,,,,,,,,,,,,,,,,,,,,,,,"['num_7', 'return']","[0.1908143000000564, 0.32680729999992764]",1894.4488633,None,,,,,,,24,001,2021_Nov_09_1453,eeg_contingent_digits,2021.2.3,59.990737429449524,
70.0,5.0,1.0,6.0,33.0,1.0,1.0,0.0,,,,,,,,,,,,,,,,,0,70,70,70,,,,,,,,,,,,,,,,,,,,,,,,,,,,,,,,,,,,,,,None,None,None,None,None,,24,001,2021_Nov_09_1453,eeg_contingent_digits,2021.2.3,59.990737429449524,
71.0,9.0,9.0,8.0,21.0,1.0,0.0,1.0,,,,,,,,,,,,,,,,,0,71,71,71,0,0,0,0,,,,,,,,,,,,,,,,,,,1894.8320491000013,None,1894.8320491000013,None,1898.4306849000022,1899.8301599000006,0.012241280001035193,None,0.49109038000096916,None,0.9741806799975166,None,"['num_4', 'return']","[0.43144329999995534, 0.8475188000011258]",1899.8801495000007,None,,,,,,,24,001,2021_Nov_09_1453,eeg_contingent_digits,2021.2.3,59.990737429449524,
71.0,9.0,9.0,8.0,21.0,1.0,0.0,1.0,,,,,,,,,,,,,,,,,0,71,71,71,1,0,1,0,,,,,,,,,,,,,,,,,,,,,,,,,,,,,,,"['num_5', 'return']","[0.2604480000009062, 0.44443739999769605]",1900.7631748000022,None,,,,,,,24,001,2021_Nov_09_1453,eeg_contingent_digits,2021.2.3,59.990737429449524,
71.0,9.0,9.0,8.0,21.0,1.0,0.0,1.0,,,,,,,,,,,,,,,,,0,71,71,71,2,0,2,0,,,,,,,,,,,,,,,,,,,,,,,,,,,,,,,"['num_6', 'return']","[0.13730740000028163, 0.3133114999982354]",1901.2462970000015,None,,,,,,,24,001,2021_Nov_09_1453,eeg_contingent_digits,2021.2.3,59.990737429449524,
71.0,9.0,9.0,8.0,21.0,1.0,0.0,1.0,,,,,,,,,,,,,,,,,0,71,71,71,,,,,,,,,,,,,,,,,,,,,,,,,,,,,,,,,,,,,,,None,None,None,None,None,,24,001,2021_Nov_09_1453,eeg_contingent_digits,2021.2.3,59.990737429449524,
72.0,3.0,8.0,9.0,7.0,1.0,1.0,0.0,,,,,,,,,,,,,,,,,0,72,72,72,0,0,0,0,,,,,,,,,,,,,,,,,,,1901.6128812000024,None,1901.6128812000024,None,1922.8881020000008,1924.2875239999994,0.014269849998527206,None,0.49513184999887017,None,0.9782389499996498,None,"['num_1', 'return']","[4.253189900002326, 4.541188300001522]",1924.3542299,None,,,,,,,24,001,2021_Nov_09_1453,eeg_contingent_digits,2021.2.3,59.990737429449524,
72.0,3.0,8.0,9.0,7.0,1.0,1.0,0.0,,,,,,,,,,,,,,,,,0,72,72,72,1,0,1,0,,,,,,,,,,,,,,,,,,,,,,,,,,,,,,,"['num_2', 'return']","[0.2236497000012605, 0.4236721999986912]",1928.935736899999,None,,,,,,,24,001,2021_Nov_09_1453,eeg_contingent_digits,2021.2.3,59.990737429449524,
72.0,3.0,8.0,9.0,7.0,1.0,1.0,0.0,,,,,,,,,,,,,,,,,0,72,72,72,2,0,2,0,,,,,,,,,,,,,,,,,,,,,,,,,,,,,,,['return'],[0.30114660000253934],1929.4022587,None,,,,,,,24,001,2021_Nov_09_1453,eeg_contingent_digits,2021.2.3,59.990737429449524,
72.0,3.0,8.0,9.0,7.0,1.0,1.0,0.0,,,,,,,,,,,,,,,,,0,72,72,72,,,,,,,,,,,,,,,,,,,,,,,,,,,,,,,,,,,,,,,None,None,None,None,None,,24,001,2021_Nov_09_1453,eeg_contingent_digits,2021.2.3,59.990737429449524,
73.0,6.0,9.0,3.0,21.0,1.0,0.0,1.0,,,,,,,,,,,,,,,,,0,73,73,73,0,0,0,0,,,,,,,,,,,,,,,,,,,1929.7521104000007,None,1929.7521104000007,None,1935.8164627000006,1937.215978799999,0.0043957800007774495,None,0.47527747999993153,None,0.9584157800018147,None,"['num_1', 'return']","[6.806159799998568, 7.334121899999445]",1937.249144100002,None,,,,,,,24,001,2021_Nov_09_1453,eeg_contingent_digits,2021.2.3,59.990737429449524,
73.0,6.0,9.0,3.0,21.0,1.0,0.0,1.0,,,,,,,,,,,,,,,,,0,73,73,73,1,0,1,0,,,,,,,,,,,,,,,,,,,,,,,,,,,,,,,"['num_4', 'return']","[0.6735130000015488, 1.153481000001193]",1944.629765900001,None,,,,,,,24,001,2021_Nov_09_1453,eeg_contingent_digits,2021.2.3,59.990737429449524,
73.0,6.0,9.0,3.0,21.0,1.0,0.0,1.0,,,,,,,,,,,,,,,,,0,73,73,73,2,0,2,0,,,,,,,,,,,,,,,,,,,,,,,,,,,,,,,"['num_6', 'return']","[0.36991889999990235, 0.6500304000001051]",1945.8293254000018,None,,,,,,,24,001,2021_Nov_09_1453,eeg_contingent_digits,2021.2.3,59.990737429449524,
73.0,6.0,9.0,3.0,21.0,1.0,0.0,1.0,,,,,,,,,,,,,,,,,0,73,73,73,,,,,,,,,,,,,,,,,,,,,,,,,,,,,,,,,,,,,,,None,None,None,None,None,,24,001,2021_Nov_09_1453,eeg_contingent_digits,2021.2.3,59.990737429449524,
74.0,4.0,0.0,9.0,10.0,1.0,1.0,0.0,,,,,,,,,,,,,,,,,0,74,74,74,0,0,0,0,,,,,,,,,,,,,,,,,,,1946.5291037000025,None,1946.5291037000025,None,1954.6426562000015,1956.042143999999,0.0026935800015053246,None,0.4885795800037158,None,0.9550916800035338,None,"['num_4', 'return']","[1.8750770000006014, 2.035138500003086]",1956.0920837000012,None,,,,,,,24,001,2021_Nov_09_1453,eeg_contingent_digits,2021.2.3,59.990737429449524,
74.0,4.0,0.0,9.0,10.0,1.0,1.0,0.0,,,,,,,,,,,,,,,,,0,74,74,74,1,0,1,0,,,,,,,,,,,,,,,,,,,,,,,,,,,,,,,"['num_5', 'return']","[0.1926132000007783, 0.3526119000016479]",1958.174556599999,None,,,,,,,24,001,2021_Nov_09_1453,eeg_contingent_digits,2021.2.3,59.990737429449524,
74.0,4.0,0.0,9.0,10.0,1.0,1.0,0.0,,,,,,,,,,,,,,,,,0,74,74,74,2,0,2,0,,,,,,,,,,,,,,,,,,,,,,,,,,,,,,,"['num_5', 'return']","[0.12878330000239657, 0.3287449000017659]",1958.5744178999994,None,,,,,,,24,001,2021_Nov_09_1453,eeg_contingent_digits,2021.2.3,59.990737429449524,
74.0,4.0,0.0,9.0,10.0,1.0,1.0,0.0,,,,,,,,,,,,,,,,,0,74,74,74,,,,,,,,,,,,,,,,,,,,,,,,,,,,,,,,,,,,,,,None,None,None,None,None,,24,001,2021_Nov_09_1453,eeg_contingent_digits,2021.2.3,59.990737429449524,
75.0,1.0,1.0,0.0,14.0,1.0,0.0,-1.0,,,,,,,,,,,,,,,,,0,75,75,75,0,0,0,0,,,,,,,,,,,,,,,,,,,1958.9576684000021,None,1958.9576684000021,None,1966.1549488000019,1967.5544088999995,0.0011684800010698382,None,0.4855457800003933,None,0.9687056799994025,None,"['num_1', 'return']","[3.45875089999754, 3.6986976000007417]",1967.604367,None,,,,,,,24,001,2021_Nov_09_1453,eeg_contingent_digits,2021.2.3,59.990737429449524,
75.0,1.0,1.0,0.0,14.0,1.0,0.0,-1.0,,,,,,,,,,,,,,,,,0,75,75,75,1,0,1,0,,,,,,,,,,,,,,,,,,,,,,,,,,,,,,,"['num_1', 'return']","[0.17480159999831812, 0.3908080000001064]",1971.3362689999994,None,,,,,,,24,001,2021_Nov_09_1453,eeg_contingent_digits,2021.2.3,59.990737429449524,
75.0,1.0,1.0,0.0,14.0,1.0,0.0,-1.0,,,,,,,,,,,,,,,,,0,75,75,75,2,0,2,0,,,,,,,,,,,,,,,,,,,,,,,,,,,,,,,"['num_0', 'return']","[0.16560179999942193, 0.45361849999972037]",1971.769441200002,None,,,,,,,24,001,2021_Nov_09_1453,eeg_contingent_digits,2021.2.3,59.990737429449524,
75.0,1.0,1.0,0.0,14.0,1.0,0.0,-1.0,,,,,,,,,,,,,,,,,0,75,75,75,,,,,,,,,,,,,,,,,,,,,,,,,,,,,,,,,,,,,,,None,None,None,None,None,,24,001,2021_Nov_09_1453,eeg_contingent_digits,2021.2.3,59.990737429449524,
76.0,9.0,3.0,0.0,49.0,1.0,1.0,0.0,,,,,,,,,,,,,,,,,0,76,76,76,0,0,0,0,,,,,,,,,,,,,,,,,,,1972.2859387000026,None,1972.2859387000026,None,1990.9121932000016,1992.3116402000014,0.00710361000164994,None,0.48076391000358853,None,0.9639066100025957,None,"['num_1', 'return']","[3.309272600003169, 3.677282300002844]",1992.3616012999992,None,,,,,,,24,001,2021_Nov_09_1453,eeg_contingent_digits,2021.2.3,59.990737429449524,
