videoFile,condition,video,speaker,callSign,colour,number,seq,id,block,exp.thisRepN,exp.thisTrialN,exp.thisN,exp.thisIndex,training.thisRepN,training.thisTrialN,training.thisN,training.thisIndex,firstHalf.thisRepN,firstHalf.thisTrialN,firstHalf.thisN,firstHalf.thisIndex,blocksA.thisRepN,blocksA.thisTrialN,blocksA.thisN,blocksA.thisIndex,secondHalf.thisRepN,secondHalf.thisTrialN,secondHalf.thisN,secondHalf.thisIndex,blocksB.thisRepN,blocksB.thisTrialN,blocksB.thisN,blocksB.thisIndex,mouseClickOnCall.x,mouseClickOnCall.y,mouseClickOnCall.leftButton,mouseClickOnCall.midButton,mouseClickOnCall.rightButton,mouseClickOnCall.time,mouseClickOnCall.clicked_name,mouseClickOnColour.x,mouseClickOnColour.y,mouseClickOnColour.leftButton,mouseClickOnColour.midButton,mouseClickOnColour.rightButton,mouseClickOnColour.time,mouseClickOnColour.clicked_name,mouseClickOnNumber.x,mouseClickOnNumber.y,mouseClickOnNumber.leftButton,mouseClickOnNumber.midButton,mouseClickOnNumber.rightButton,mouseClickOnNumber.time,mouseClickOnNumber.clicked_name,callSignCorrect,colourCorrect,numberCorrect,participant,order,date,expName,psychopyVersion,frameRate,
video/Training/zh_sp01_Ad_We_4_NVocInAudio_NoVideo.avi,vocoded,noVideo,sp01,Ad,We,4,,,,,,,,0,0,0,0,,,,,,,,,,,,,,,,,-0.3958333333333333,0.3226851851851852,1,0,0,7.291876500006765,call1,0.013888888888888888,-0.30787037037037035,1,0,0,8.739081799983978,colour4,0.4013888888888889,-0.30277777777777776,1,0,0,9.443961600016337,number4,True,True,True,15,5,2019_Nov_14_1105,MA_Theta_Exp,3.0.7,59.84694740782024,
video/Training/zh_sp07_Ad_Ge_3_NVocInAudio_NoVideo.avi,vocoded,noVideo,sp07,Ad,Ge,3,,,,,,,,0,1,1,1,,,,,,,,,,,,,,,,,-0.4166666666666667,0.2847222222222222,1,0,0,4.906919500033837,call1,0.015277777777777777,0.29212962962962963,1,0,0,5.82100709999213,colour1,0.37083333333333335,-0.09814814814814815,1,0,0,6.556039699993562,number3,True,True,True,15,5,2019_Nov_14_1105,MA_Theta_Exp,3.0.7,59.84694740782024,
video/Training/zh_sp01_Dr_Ro_3_NVocInAudio_GlobalThetaInVideo.avi,vocoded,plusVideo,sp01,Dr,Ro,3,,,,,,,,0,2,2,2,,,,,,,,,,,,,,,,,-0.38472222222222224,0.1111111111111111,1,0,0,6.981133900000714,call2,0.0125,-0.12175925925925926,1,0,0,8.181408000004012,colour3,0.4097222222222222,-0.1,1,0,0,9.105111000011675,number3,True,True,True,15,5,2019_Nov_14_1105,MA_Theta_Exp,3.0.7,59.84694740782024,
video/Training/zh_sp07_Dr_Gr_4_NVocInAudio_GlobalThetaInVideo.avi,vocoded,plusVideo,sp07,Dr,Gr,4,,,,,,,,0,3,3,3,,,,,,,,,,,,,,,,,-0.3736111111111111,0.0763888888888889,1,0,0,6.2938060000305995,call2,0.001388888888888889,0.08101851851851852,1,0,0,7.461660799977835,colour2,0.3638888888888889,-0.2759259259259259,1,0,0,8.202017999952659,number4,True,True,True,15,5,2019_Nov_14_1105,MA_Theta_Exp,3.0.7,59.84694740782024,
video/Training/zh_sp01_Ti_Gr_2_NoThetaInAudio_NoVideo.avi,noTheta,noVideo,sp01,Ti,Gr,2,,,,,,,,0,4,4,4,,,,,,,,,,,,,,,,,-0.4041666666666667,0.29583333333333334,1,0,0,6.9070838000043295,call1,0.03194444444444444,0.2777777777777778,1,0,0,8.101862400013488,colour1,0.40694444444444444,0.07083333333333333,1,0,0,8.933689500030596,number2,False,False,True,15,5,2019_Nov_14_1105,MA_Theta_Exp,3.0.7,59.84694740782024,
video/Training/zh_sp07_Ti_Ro_1_NoThetaInAudio_NoVideo.avi,noTheta,noVideo,sp07,Ti,Ro,1,,,,,,,,0,5,5,5,,,,,,,,,,,,,,,,,-0.3638888888888889,-0.11388888888888889,1,0,0,6.7759522999986075,call3,0.006944444444444444,-0.12453703703703704,1,0,0,8.326839899993502,colour3,0.40555555555555556,0.10138888888888889,1,0,0,9.161549300013576,number2,True,True,False,15,5,2019_Nov_14_1105,MA_Theta_Exp,3.0.7,59.84694740782024,
video/Training/zh_sp01_Un_Ge_1_NoThetaInAudio_GlobalThetaInVideo.avi,noTheta,plusVideo,sp01,Un,Ge,1,,,,,,,,0,6,6,6,,,,,,,,,,,,,,,,,-0.4236111111111111,-0.29953703703703705,1,0,0,6.569272399996407,call4,0.013888888888888888,0.2722222222222222,1,0,0,10.163896200014278,colour1,0.37916666666666665,0.29444444444444445,1,0,0,10.801519800035749,number1,True,True,True,15,5,2019_Nov_14_1105,MA_Theta_Exp,3.0.7,59.84694740782024,
video/Training/zh_sp07_Un_We_2_NoThetaInAudio_GlobalThetaInVideo.avi,noTheta,plusVideo,sp07,Un,We,2,,,,,,,,0,7,7,7,,,,,,,,,,,,,,,,,-0.41388888888888886,-0.32037037037037036,1,0,0,5.005789599963464,call4,-0.019444444444444445,-0.32037037037037036,1,0,0,6.156574800028466,colour4,0.3861111111111111,0.05555555555555555,1,0,0,7.2889362999703735,number2,True,True,True,15,5,2019_Nov_14_1105,MA_Theta_Exp,3.0.7,59.84694740782024,
video/Training/zh_sp01_Ad_Ge_1_GlobalTheta_NoVideo.avi,globalTheta,noVideo,sp01,Ad,Ge,1,,,,,,,,0,8,8,8,,,,,,,,,,,,,,,,,-0.3888888888888889,0.28194444444444444,1,0,0,6.188841100025456,call1,-0.005555555555555556,0.2972222222222222,1,0,0,6.922121200012043,colour1,0.3541666666666667,0.29074074074074074,1,0,0,7.6220866000512615,number1,True,True,True,15,5,2019_Nov_14_1105,MA_Theta_Exp,3.0.7,59.84694740782024,
video/Training/zh_sp07_Ad_Ro_3_GlobalTheta_NoVideo.avi,globalTheta,noVideo,sp07,Ad,Ro,3,,,,,,,,0,9,9,9,,,,,,,,,,,,,,,,,-0.375,0.24444444444444444,1,0,0,5.922635100025218,call1,-0.03194444444444444,0.28055555555555556,1,0,0,6.617624899954535,colour1,0.375,-0.29953703703703705,1,0,0,7.220333400007803,number4,True,False,False,15,5,2019_Nov_14_1105,MA_Theta_Exp,3.0.7,59.84694740782024,
video/Experiment/zh_sp07_Dr_Ge_2_NoThetaInAudio_NoVideo.avi,noTheta,noVideo,sp07,Dr,Ge,2,0,4,flow/blocks/NoThetaInAudio_NoVideo_A.csv,,,,,,,,,0,0,0,0,0,0,0,17,,,,,,,,,-0.38333333333333336,0.3263888888888889,1,0,0,5.955663700005971,call1,-0.034722222222222224,0.2865740740740741,1,0,0,6.64273989998037,colour1,0.36527777777777776,0.0962962962962963,1,0,0,7.539734400052112,number2,False,True,True,15,5,2019_Nov_14_1105,MA_Theta_Exp,3.0.7,59.84694740782024,
video/Experiment/zh_sp07_Dr_Gr_1_NoThetaInAudio_NoVideo.avi,noTheta,noVideo,sp07,Dr,Gr,1,0,4,flow/blocks/NoThetaInAudio_NoVideo_A.csv,,,,,,,,,0,0,0,0,0,1,1,20,,,,,,,,,-0.39166666666666666,-0.3375,1,0,0,4.913868800038472,call4,0.0125,0.08055555555555556,1,0,0,5.6454706999938935,colour2,0.4111111111111111,0.29583333333333334,1,0,0,6.378359799971804,number1,False,True,True,15,5,2019_Nov_14_1105,MA_Theta_Exp,3.0.7,59.84694740782024,
video/Experiment/zh_sp01_Ad_Ge_3_NoThetaInAudio_NoVideo.avi,noTheta,noVideo,sp01,Ad,Ge,3,0,4,flow/blocks/NoThetaInAudio_NoVideo_A.csv,,,,,,,,,0,0,0,0,0,2,2,2,,,,,,,,,-0.3763888888888889,0.28888888888888886,1,0,0,5.617453199985903,call1,0.006944444444444444,0.25833333333333336,1,0,0,6.399934200046118,colour1,0.4083333333333333,-0.1162037037037037,1,0,0,7.338000099989586,number3,True,True,True,15,5,2019_Nov_14_1105,MA_Theta_Exp,3.0.7,59.84694740782024,
video/Experiment/zh_sp01_Dr_We_2_NoThetaInAudio_NoVideo.avi,noTheta,noVideo,sp01,Dr,We,2,0,4,flow/blocks/NoThetaInAudio_NoVideo_A.csv,,,,,,,,,0,0,0,0,0,3,3,29,,,,,,,,,-0.3638888888888889,0.25833333333333336,1,0,0,5.69718679995276,call1,-0.009722222222222222,-0.3189814814814815,1,0,0,6.578326100017875,colour4,0.3875,0.07222222222222222,1,0,0,7.457848799997009,number2,False,True,True,15,5,2019_Nov_14_1105,MA_Theta_Exp,3.0.7,59.84694740782024,
video/Experiment/zh_sp07_Dr_We_4_NoThetaInAudio_NoVideo.avi,noTheta,noVideo,sp07,Dr,We,4,0,4,flow/blocks/NoThetaInAudio_NoVideo_A.csv,,,,,,,,,0,0,0,0,0,4,4,31,,,,,,,,,-0.3416666666666667,0.2833333333333333,1,0,0,5.1726447000401095,call1,0.019444444444444445,-0.31342592592592594,1,0,0,5.975322399986908,colour4,0.39305555555555555,-0.12083333333333333,1,0,0,6.8197917000507005,number3,False,True,False,15,5,2019_Nov_14_1105,MA_Theta_Exp,3.0.7,59.84694740782024,
video/Experiment/zh_sp07_Dr_Gr_3_NoThetaInAudio_NoVideo.avi,noTheta,noVideo,sp07,Dr,Gr,3,0,4,flow/blocks/NoThetaInAudio_NoVideo_A.csv,,,,,,,,,0,0,0,0,0,5,5,22,,,,,,,,,-0.37083333333333335,0.29444444444444445,1,0,0,4.68466939998325,call1,0.022222222222222223,0.0824074074074074,1,0,0,5.615976200031582,colour2,0.35833333333333334,-0.1037037037037037,1,0,0,6.239117900026031,number3,False,True,True,15,5,2019_Nov_14_1105,MA_Theta_Exp,3.0.7,59.84694740782024,
video/Experiment/zh_sp07_Ad_Ge_1_NoThetaInAudio_NoVideo.avi,noTheta,noVideo,sp07,Ad,Ge,1,0,4,flow/blocks/NoThetaInAudio_NoVideo_A.csv,,,,,,,,,0,0,0,0,0,6,6,0,,,,,,,,,-0.4013888888888889,0.33611111111111114,1,0,0,5.07695070002228,call1,-0.016666666666666666,0.300462962962963,1,0,0,5.677019199996721,colour1,0.3888888888888889,0.25833333333333336,1,0,0,6.379986700019799,number1,True,True,True,15,5,2019_Nov_14_1105,MA_Theta_Exp,3.0.7,59.84694740782024,
video/Experiment/zh_sp07_Ad_Ge_2_NoThetaInAudio_NoVideo.avi,noTheta,noVideo,sp07,Ad,Ge,2,0,4,flow/blocks/NoThetaInAudio_NoVideo_A.csv,,,,,,,,,0,0,0,0,0,7,7,1,,,,,,,,,-0.42083333333333334,0.28055555555555556,1,0,0,4.321887900005095,call1,-0.002777777777777778,0.31805555555555554,1,0,0,4.883039899985306,colour1,0.38333333333333336,0.11296296296296296,1,0,0,5.46673769998597,number2,True,True,True,15,5,2019_Nov_14_1105,MA_Theta_Exp,3.0.7,59.84694740782024,
video/Experiment/zh_sp07_Dr_Gr_2_NoThetaInAudio_NoVideo.avi,noTheta,noVideo,sp07,Dr,Gr,2,0,4,flow/blocks/NoThetaInAudio_NoVideo_A.csv,,,,,,,,,0,0,0,0,0,8,8,21,,,,,,,,,-0.40555555555555556,-0.3175925925925926,1,0,0,4.833387100021355,call4,0.005555555555555556,0.08611111111111111,1,0,0,5.499995000020135,colour2,0.3972222222222222,0.11712962962962963,1,0,0,6.283535299997311,number2,False,True,True,15,5,2019_Nov_14_1105,MA_Theta_Exp,3.0.7,59.84694740782024,
video/Experiment/zh_sp07_Ad_Ge_4_NoThetaInAudio_NoVideo.avi,noTheta,noVideo,sp07,Ad,Ge,4,0,4,flow/blocks/NoThetaInAudio_NoVideo_A.csv,,,,,,,,,0,0,0,0,0,9,9,3,,,,,,,,,-0.4083333333333333,0.300462962962963,1,0,0,4.826828800025396,call1,-0.030555555555555555,0.29074074074074074,1,0,0,5.39381019998109,colour1,0.35833333333333334,-0.2967592592592593,1,0,0,6.076492699969094,number4,True,True,True,15,5,2019_Nov_14_1105,MA_Theta_Exp,3.0.7,59.84694740782024,
video/Experiment/zh_sp07_Dr_Ro_1_NoThetaInAudio_NoVideo.avi,noTheta,noVideo,sp07,Dr,Ro,1,0,4,flow/blocks/NoThetaInAudio_NoVideo_A.csv,,,,,,,,,0,0,0,0,0,10,10,24,,,,,,,,,-0.3875,-0.2953703703703704,1,0,0,4.478119499981403,call4,-0.009722222222222222,-0.08194444444444444,1,0,0,5.072058300022036,colour3,0.42916666666666664,0.3416666666666667,1,0,0,5.705959299986716,number1,False,True,True,15,5,2019_Nov_14_1105,MA_Theta_Exp,3.0.7,59.84694740782024,
video/Experiment/zh_sp01_Ad_Ro_3_NoThetaInAudio_NoVideo.avi,noTheta,noVideo,sp01,Ad,Ro,3,0,4,flow/blocks/NoThetaInAudio_NoVideo_A.csv,,,,,,,,,0,0,0,0,0,11,11,10,,,,,,,,,-0.4041666666666667,0.28888888888888886,1,0,0,6.758872899983544,call1,-0.008333333333333333,-0.07037037037037037,1,0,0,8.025120400008745,colour3,0.35555555555555557,-0.10925925925925926,1,0,0,8.527872100006789,number3,True,True,True,15,5,2019_Nov_14_1105,MA_Theta_Exp,3.0.7,59.84694740782024,
video/Experiment/zh_sp07_Dr_Ge_4_NoThetaInAudio_NoVideo.avi,noTheta,noVideo,sp07,Dr,Ge,4,0,4,flow/blocks/NoThetaInAudio_NoVideo_A.csv,,,,,,,,,0,0,0,0,0,12,12,19,,,,,,,,,-0.4083333333333333,0.30416666666666664,1,0,0,5.203259100031573,call1,-0.004166666666666667,0.300462962962963,1,0,0,5.7384832999669015,colour1,0.3680555555555556,-0.2953703703703704,1,0,0,6.405064800055698,number4,False,True,True,15,5,2019_Nov_14_1105,MA_Theta_Exp,3.0.7,59.84694740782024,
video/Experiment/zh_sp01_Ad_We_4_NoThetaInAudio_NoVideo.avi,noTheta,noVideo,sp01,Ad,We,4,0,4,flow/blocks/NoThetaInAudio_NoVideo_A.csv,,,,,,,,,0,0,0,0,0,13,13,15,,,,,,,,,-0.35555555555555557,0.29583333333333334,1,0,0,4.924472799990326,call1,-0.03194444444444444,-0.32314814814814813,1,0,0,5.668574600014836,colour4,0.4,-0.30277777777777776,1,0,0,6.252586300019175,number4,True,True,True,15,5,2019_Nov_14_1105,MA_Theta_Exp,3.0.7,59.84694740782024,
video/Experiment/zh_sp01_Ad_We_3_NoThetaInAudio_NoVideo.avi,noTheta,noVideo,sp01,Ad,We,3,0,4,flow/blocks/NoThetaInAudio_NoVideo_A.csv,,,,,,,,,0,0,0,0,0,14,14,14,,,,,,,,,-0.41944444444444445,0.2847222222222222,1,0,0,4.95512450003298,call1,0.018055555555555554,-0.34120370370370373,1,0,0,5.660131599986926,colour4,0.36944444444444446,-0.10694444444444444,1,0,0,6.243816300004255,number3,True,True,True,15,5,2019_Nov_14_1105,MA_Theta_Exp,3.0.7,59.84694740782024,
video/Experiment/zh_sp01_Dr_Ro_3_NoThetaInAudio_NoVideo.avi,noTheta,noVideo,sp01,Dr,Ro,3,0,4,flow/blocks/NoThetaInAudio_NoVideo_A.csv,,,,,,,,,0,0,0,0,0,15,15,26,,,,,,,,,-0.41805555555555557,-0.31342592592592594,1,0,0,5.245552100008354,call4,-0.005555555555555556,-0.1125,1,0,0,5.809026000031736,colour3,0.40555555555555556,-0.08194444444444444,1,0,0,6.460655500006396,number3,False,True,True,15,5,2019_Nov_14_1105,MA_Theta_Exp,3.0.7,59.84694740782024,
video/Experiment/zh_sp01_Dr_Ro_2_NoThetaInAudio_NoVideo.avi,noTheta,noVideo,sp01,Dr,Ro,2,0,4,flow/blocks/NoThetaInAudio_NoVideo_A.csv,,,,,,,,,0,0,0,0,0,16,16,25,,,,,,,,,-0.3902777777777778,-0.32731481481481484,1,0,0,6.065687000053003,call4,0.002777777777777778,-0.10694444444444444,1,0,0,7.148080500017386,colour3,0.4222222222222222,0.09305555555555556,1,0,0,7.699422999983653,number2,False,True,True,15,5,2019_Nov_14_1105,MA_Theta_Exp,3.0.7,59.84694740782024,
video/Experiment/zh_sp07_Dr_Ge_1_NoThetaInAudio_NoVideo.avi,noTheta,noVideo,sp07,Dr,Ge,1,0,4,flow/blocks/NoThetaInAudio_NoVideo_A.csv,,,,,,,,,0,0,0,0,0,17,17,16,,,,,,,,,-0.4305555555555556,-0.30648148148148147,1,0,0,4.784430600004271,call4,0.011111111111111112,0.3125,1,0,0,5.601083800022025,colour1,0.3972222222222222,0.3282407407407407,1,0,0,6.25194059999194,number1,False,True,True,15,5,2019_Nov_14_1105,MA_Theta_Exp,3.0.7,59.84694740782024,
video/Experiment/zh_sp01_Dr_Ro_4_NoThetaInAudio_NoVideo.avi,noTheta,noVideo,sp01,Dr,Ro,4,0,4,flow/blocks/NoThetaInAudio_NoVideo_A.csv,,,,,,,,,0,0,0,0,0,18,18,27,,,,,,,,,-0.4013888888888889,-0.32731481481481484,1,0,0,5.685832499992102,call4,0.03611111111111111,0.26666666666666666,1,0,0,7.182638400001451,colour1,0.36666666666666664,-0.26481481481481484,1,0,0,7.91428550001001,number4,False,False,True,15,5,2019_Nov_14_1105,MA_Theta_Exp,3.0.7,59.84694740782024,
video/Experiment/zh_sp01_Dr_Ge_3_NoThetaInAudio_NoVideo.avi,noTheta,noVideo,sp01,Dr,Ge,3,0,4,flow/blocks/NoThetaInAudio_NoVideo_A.csv,,,,,,,,,0,0,0,0,0,19,19,18,,,,,,,,,-0.3875,-0.3055555555555556,1,0,0,5.8817236999748275,call4,0.02638888888888889,0.2875,1,0,0,6.7817833999870345,colour1,0.4166666666666667,-0.09537037037037037,1,0,0,7.9324730999651365,number3,False,True,True,15,5,2019_Nov_14_1105,MA_Theta_Exp,3.0.7,59.84694740782024,
video/Experiment/zh_sp01_Dr_Gr_4_NoThetaInAudio_NoVideo.avi,noTheta,noVideo,sp01,Dr,Gr,4,0,4,flow/blocks/NoThetaInAudio_NoVideo_A.csv,,,,,,,,,0,0,0,0,0,20,20,23,,,,,,,,,-0.3861111111111111,0.08333333333333333,1,0,0,5.996810099983122,call2,0.011111111111111112,0.07361111111111111,1,0,0,7.446909699996468,colour2,0.3902777777777778,-0.3050925925925926,1,0,0,8.212011899973731,number4,True,True,True,15,5,2019_Nov_14_1105,MA_Theta_Exp,3.0.7,59.84694740782024,
video/Experiment/zh_sp01_Ad_Gr_3_NoThetaInAudio_NoVideo.avi,noTheta,noVideo,sp01,Ad,Gr,3,0,4,flow/blocks/NoThetaInAudio_NoVideo_A.csv,,,,,,,,,0,0,0,0,0,21,21,6,,,,,,,,,-0.3902777777777778,0.3236111111111111,1,0,0,5.128880399977788,call1,0.027777777777777776,0.06574074074074074,1,0,0,6.511063100013416,colour2,0.42083333333333334,-0.10138888888888889,1,0,0,7.129643300024327,number3,True,True,True,15,5,2019_Nov_14_1105,MA_Theta_Exp,3.0.7,59.84694740782024,
video/Experiment/zh_sp07_Ad_Gr_2_NoThetaInAudio_NoVideo.avi,noTheta,noVideo,sp07,Ad,Gr,2,0,4,flow/blocks/NoThetaInAudio_NoVideo_A.csv,,,,,,,,,0,0,0,0,0,22,22,5,,,,,,,,,-0.4027777777777778,0.30277777777777776,1,0,0,4.670551500050351,call1,-0.020833333333333332,0.09074074074074075,1,0,0,5.2492864999803714,colour2,0.36666666666666664,0.09444444444444444,1,0,0,5.835594400006812,number2,True,True,True,15,5,2019_Nov_14_1105,MA_Theta_Exp,3.0.7,59.84694740782024,
video/Experiment/zh_sp07_Ad_Gr_4_NoThetaInAudio_NoVideo.avi,noTheta,noVideo,sp07,Ad,Gr,4,0,4,flow/blocks/NoThetaInAudio_NoVideo_A.csv,,,,,,,,,0,0,0,0,0,23,23,7,,,,,,,,,-0.3958333333333333,0.3101851851851852,1,0,0,4.60487280000234,call1,-0.025,0.11574074074074074,1,0,0,5.154896099993493,colour2,0.3736111111111111,-0.33287037037037037,1,0,0,5.800539299962111,number4,True,True,True,15,5,2019_Nov_14_1105,MA_Theta_Exp,3.0.7,59.84694740782024,
video/Experiment/zh_sp07_Ad_Ro_1_NoThetaInAudio_NoVideo.avi,noTheta,noVideo,sp07,Ad,Ro,1,0,4,flow/blocks/NoThetaInAudio_NoVideo_A.csv,,,,,,,,,0,0,0,0,0,24,24,8,,,,,,,,,-0.3958333333333333,0.3277777777777778,1,0,0,4.88613090000581,call1,0.013888888888888888,-0.06898148148148148,1,0,0,5.63365580001846,colour3,0.42777777777777776,0.30972222222222223,1,0,0,6.41423420002684,number1,True,True,True,15,5,2019_Nov_14_1105,MA_Theta_Exp,3.0.7,59.84694740782024,
video/Experiment/zh_sp07_Ad_Gr_1_NoThetaInAudio_NoVideo.avi,noTheta,noVideo,sp07,Ad,Gr,1,0,4,flow/blocks/NoThetaInAudio_NoVideo_A.csv,,,,,,,,,0,0,0,0,0,25,25,4,,,,,,,,,-0.4027777777777778,0.30694444444444446,1,0,0,4.460049999994226,call1,-0.004166666666666667,0.10462962962962963,1,0,0,5.024333699955605,colour2,0.4222222222222222,0.3055555555555556,1,0,0,5.622469599999022,number1,True,True,True,15,5,2019_Nov_14_1105,MA_Theta_Exp,3.0.7,59.84694740782024,
video/Experiment/zh_sp01_Ad_Ro_4_NoThetaInAudio_NoVideo.avi,noTheta,noVideo,sp01,Ad,Ro,4,0,4,flow/blocks/NoThetaInAudio_NoVideo_A.csv,,,,,,,,,0,0,0,0,0,26,26,11,,,,,,,,,-0.3902777777777778,0.28055555555555556,1,0,0,5.9926037000259385,call1,-0.002777777777777778,0.3013888888888889,1,0,0,6.508886699972209,colour1,0.375,-0.2814814814814815,1,0,0,7.112652100040577,number4,True,False,True,15,5,2019_Nov_14_1105,MA_Theta_Exp,3.0.7,59.84694740782024,
video/Experiment/zh_sp01_Ad_We_1_NoThetaInAudio_NoVideo.avi,noTheta,noVideo,sp01,Ad,We,1,0,4,flow/blocks/NoThetaInAudio_NoVideo_A.csv,,,,,,,,,0,0,0,0,0,27,27,12,,,,,,,,,-0.4041666666666667,0.3,1,0,0,5.85130440001376,call1,0.05277777777777778,-0.3148148148148148,1,0,0,6.532059699995443,colour4,0.3861111111111111,0.30277777777777776,1,0,0,7.250777800043579,number1,True,True,True,15,5,2019_Nov_14_1105,MA_Theta_Exp,3.0.7,59.84694740782024,
video/Experiment/zh_sp01_Dr_We_3_NoThetaInAudio_NoVideo.avi,noTheta,noVideo,sp01,Dr,We,3,0,4,flow/blocks/NoThetaInAudio_NoVideo_A.csv,,,,,,,,,0,0,0,0,0,28,28,30,,,,,,,,,-0.3972222222222222,0.11527777777777778,1,0,0,5.4352281000465155,call2,0.004166666666666667,-0.32592592592592595,1,0,0,6.21745389996795,colour4,0.41388888888888886,-0.09583333333333334,1,0,0,7.0471277999458835,number3,True,True,True,15,5,2019_Nov_14_1105,MA_Theta_Exp,3.0.7,59.84694740782024,
video/Experiment/zh_sp01_Ad_We_2_NoThetaInAudio_NoVideo.avi,noTheta,noVideo,sp01,Ad,We,2,0,4,flow/blocks/NoThetaInAudio_NoVideo_A.csv,,,,,,,,,0,0,0,0,0,29,29,13,,,,,,,,,-0.4027777777777778,0.30972222222222223,1,0,0,5.002685199957341,call1,-0.025,-0.30092592592592593,1,0,0,5.648455900023691,colour4,0.4111111111111111,0.11388888888888889,1,0,0,6.640113000001293,number2,True,True,True,15,5,2019_Nov_14_1105,MA_Theta_Exp,3.0.7,59.84694740782024,
video/Experiment/zh_sp01_Dr_We_1_NoThetaInAudio_NoVideo.avi,noTheta,noVideo,sp01,Dr,We,1,0,4,flow/blocks/NoThetaInAudio_NoVideo_A.csv,,,,,,,,,0,0,0,0,0,30,30,28,,,,,,,,,-0.4125,0.09768518518518518,1,0,0,5.314984900003765,call2,-0.027777777777777776,-0.2912037037037037,1,0,0,6.085908800014295,colour4,0.37222222222222223,0.3333333333333333,1,0,0,6.810638899973128,number1,True,True,True,15,5,2019_Nov_14_1105,MA_Theta_Exp,3.0.7,59.84694740782024,
video/Experiment/zh_sp07_Ad_Ro_2_NoThetaInAudio_NoVideo.avi,noTheta,noVideo,sp07,Ad,Ro,2,0,4,flow/blocks/NoThetaInAudio_NoVideo_A.csv,,,,,,,,,0,0,0,0,0,31,31,9,,,,,,,,,-0.4236111111111111,0.33194444444444443,1,0,0,4.731313000025693,call1,-0.0125,-0.10648148148148148,1,0,0,5.413894199999049,colour3,0.45555555555555555,0.13055555555555556,1,0,0,6.021219399990514,number2,True,True,True,15,5,2019_Nov_14_1105,MA_Theta_Exp,3.0.7,59.84694740782024,
video/Experiment/zh_sp07_Ad_Ge_4_NVocInAudio_NoVideo.avi,vocoded,noVideo,sp07,Ad,Ge,4,1,2,flow/blocks/NVocInAudio_NoVideo_A.csv,,,,,,,,,0,1,1,1,0,0,0,3,,,,,,,,,-0.38333333333333336,0.3458333333333333,1,0,0,5.187481500033755,call1,-0.0375,0.30462962962962964,1,0,0,5.75368119997438,colour1,0.3958333333333333,-0.3277777777777778,1,0,0,6.515676400042139,number4,True,True,True,15,5,2019_Nov_14_1105,MA_Theta_Exp,3.0.7,59.84694740782024,
video/Experiment/zh_sp01_Dr_We_4_NVocInAudio_NoVideo.avi,vocoded,noVideo,sp01,Dr,We,4,1,2,flow/blocks/NVocInAudio_NoVideo_A.csv,,,,,,,,,0,1,1,1,0,1,1,31,,,,,,,,,-0.3736111111111111,0.10694444444444444,1,0,0,5.655114099965431,call2,0.0,-0.3175925925925926,1,0,0,6.832846699981019,colour4,0.4125,-0.29305555555555557,1,0,0,7.7060469999560155,number4,True,True,True,15,5,2019_Nov_14_1105,MA_Theta_Exp,3.0.7,59.84694740782024,
video/Experiment/zh_sp07_Dr_Ro_2_NVocInAudio_NoVideo.avi,vocoded,noVideo,sp07,Dr,Ro,2,1,2,flow/blocks/NVocInAudio_NoVideo_A.csv,,,,,,,,,0,1,1,1,0,2,2,25,,,,,,,,,-0.4111111111111111,0.09861111111111111,1,0,0,5.220968499954324,call2,0.015277777777777777,-0.09675925925925925,1,0,0,5.890067200001795,colour3,0.42777777777777776,0.11805555555555555,1,0,0,6.554134299978614,number2,True,True,True,15,5,2019_Nov_14_1105,MA_Theta_Exp,3.0.7,59.84694740782024,
video/Experiment/zh_sp01_Dr_Ro_4_NVocInAudio_NoVideo.avi,vocoded,noVideo,sp01,Dr,Ro,4,1,2,flow/blocks/NVocInAudio_NoVideo_A.csv,,,,,,,,,0,1,1,1,0,3,3,27,,,,,,,,,-0.38333333333333336,0.08611111111111111,1,0,0,5.228009799961001,call2,-0.011111111111111112,-0.12314814814814815,1,0,0,6.162528400018346,colour3,0.4263888888888889,-0.33194444444444443,1,0,0,7.089664899976924,number4,True,True,True,15,5,2019_Nov_14_1105,MA_Theta_Exp,3.0.7,59.84694740782024,
video/Experiment/zh_sp01_Ad_Gr_4_NVocInAudio_NoVideo.avi,vocoded,noVideo,sp01,Ad,Gr,4,1,2,flow/blocks/NVocInAudio_NoVideo_A.csv,,,,,,,,,0,1,1,1,0,4,4,7,,,,,,,,,-0.3875,0.30833333333333335,1,0,0,6.7853344999603,call1,-0.025,0.07546296296296297,1,0,0,7.5516837000031956,colour2,0.3875,-0.31527777777777777,1,0,0,8.503647700010333,number4,True,True,True,15,5,2019_Nov_14_1105,MA_Theta_Exp,3.0.7,59.84694740782024,
video/Experiment/zh_sp01_Dr_Ro_3_NVocInAudio_NoVideo.avi,vocoded,noVideo,sp01,Dr,Ro,3,1,2,flow/blocks/NVocInAudio_NoVideo_A.csv,,,,,,,,,0,1,1,1,0,5,5,26,,,,,,,,,-0.38472222222222224,0.1125,1,0,0,6.4661119999946095,call2,0.030555555555555555,-0.09583333333333334,1,0,0,7.133493300003465,colour3,0.40694444444444444,-0.08611111111111111,1,0,0,7.816669000021648,number3,True,True,True,15,5,2019_Nov_14_1105,MA_Theta_Exp,3.0.7,59.84694740782024,
video/Experiment/zh_sp01_Dr_Ro_1_NVocInAudio_NoVideo.avi,vocoded,noVideo,sp01,Dr,Ro,1,1,2,flow/blocks/NVocInAudio_NoVideo_A.csv,,,,,,,,,0,1,1,1,0,6,6,24,,,,,,,,,-0.4486111111111111,0.11388888888888889,1,0,0,5.2918586999876425,call2,-0.006944444444444444,-0.10648148148148148,1,0,0,6.023093199997675,colour3,0.3861111111111111,0.3486111111111111,1,0,0,6.77291530004004,number1,True,True,True,15,5,2019_Nov_14_1105,MA_Theta_Exp,3.0.7,59.84694740782024,
video/Experiment/zh_sp07_Dr_Ge_4_NVocInAudio_NoVideo.avi,vocoded,noVideo,sp07,Dr,Ge,4,1,2,flow/blocks/NVocInAudio_NoVideo_A.csv,,,,,,,,,0,1,1,1,0,7,7,19,,,,,,,,,-0.4166666666666667,0.07268518518518519,1,0,0,4.619859799975529,call2,0.005555555555555556,0.3458333333333333,1,0,0,5.413074400043115,colour1,0.38055555555555554,-0.3050925925925926,1,0,0,6.348180999979377,number4,True,True,True,15,5,2019_Nov_14_1105,MA_Theta_Exp,3.0.7,59.84694740782024,
video/Experiment/zh_sp07_Dr_We_2_NVocInAudio_NoVideo.avi,vocoded,noVideo,sp07,Dr,We,2,1,2,flow/blocks/NVocInAudio_NoVideo_A.csv,,,,,,,,,0,1,1,1,0,8,8,29,,,,,,,,,-0.41944444444444445,0.12777777777777777,1,0,0,4.965404299960937,call2,-0.025,-0.31203703703703706,1,0,0,5.666405700030737,colour4,0.39166666666666666,0.11944444444444445,1,0,0,6.350731800019275,number2,True,True,True,15,5,2019_Nov_14_1105,MA_Theta_Exp,3.0.7,59.84694740782024,
video/Experiment/zh_sp07_Ad_Ro_4_NVocInAudio_NoVideo.avi,vocoded,noVideo,sp07,Ad,Ro,4,1,2,flow/blocks/NVocInAudio_NoVideo_A.csv,,,,,,,,,0,1,1,1,0,9,9,11,,,,,,,,,-0.41388888888888886,0.32916666666666666,1,0,0,6.5202680000220425,call1,0.0,-0.10833333333333334,1,0,0,7.202654999971855,colour3,0.41944444444444445,-0.3388888888888889,1,0,0,7.9201809000223875,number4,True,True,True,15,5,2019_Nov_14_1105,MA_Theta_Exp,3.0.7,59.84694740782024,
video/Experiment/zh_sp01_Ad_Gr_3_NVocInAudio_NoVideo.avi,vocoded,noVideo,sp01,Ad,Gr,3,1,2,flow/blocks/NVocInAudio_NoVideo_A.csv,,,,,,,,,0,1,1,1,0,10,10,6,,,,,,,,,-0.35555555555555557,0.30277777777777776,1,0,0,5.026987699966412,call1,0.018055555555555554,0.11388888888888889,1,0,0,5.776478299987502,colour2,0.4388888888888889,-0.10138888888888889,1,0,0,6.45800829998916,number3,True,True,True,15,5,2019_Nov_14_1105,MA_Theta_Exp,3.0.7,59.84694740782024,
video/Experiment/zh_sp01_Ad_We_4_NVocInAudio_NoVideo.avi,vocoded,noVideo,sp01,Ad,We,4,1,2,flow/blocks/NVocInAudio_NoVideo_A.csv,,,,,,,,,0,1,1,1,0,11,11,15,,,,,,,,,-0.41388888888888886,0.325,1,0,0,5.886740899994038,call1,-0.004166666666666667,-0.3106481481481482,1,0,0,6.6058009000262246,colour4,0.40694444444444444,-0.3111111111111111,1,0,0,7.250867799972184,number4,True,True,True,15,5,2019_Nov_14_1105,MA_Theta_Exp,3.0.7,59.84694740782024,
video/Experiment/zh_sp01_Ad_Ge_2_NVocInAudio_NoVideo.avi,vocoded,noVideo,sp01,Ad,Ge,2,1,2,flow/blocks/NVocInAudio_NoVideo_A.csv,,,,,,,,,0,1,1,1,0,12,12,1,,,,,,,,,-0.4388888888888889,0.32546296296296295,1,0,0,5.172288500005379,call1,-0.059722222222222225,0.28194444444444444,1,0,0,5.8722008999902755,colour1,0.37916666666666665,0.06018518518518518,1,0,0,6.567793499969412,number2,True,True,True,15,5,2019_Nov_14_1105,MA_Theta_Exp,3.0.7,59.84694740782024,
video/Experiment/zh_sp07_Dr_We_1_NVocInAudio_NoVideo.avi,vocoded,noVideo,sp07,Dr,We,1,1,2,flow/blocks/NVocInAudio_NoVideo_A.csv,,,,,,,,,0,1,1,1,0,13,13,28,,,,,,,,,-0.4111111111111111,0.10694444444444444,1,0,0,4.744602499995381,call2,0.002777777777777778,-0.30648148148148147,1,0,0,5.475895199982915,colour4,0.3875,0.33611111111111114,1,0,0,6.495249499974307,number1,True,True,True,15,5,2019_Nov_14_1105,MA_Theta_Exp,3.0.7,59.84694740782024,
video/Experiment/zh_sp07_Ad_Ro_1_NVocInAudio_NoVideo.avi,vocoded,noVideo,sp07,Ad,Ro,1,1,2,flow/blocks/NVocInAudio_NoVideo_A.csv,,,,,,,,,0,1,1,1,0,14,14,8,,,,,,,,,-0.41944444444444445,0.32083333333333336,1,0,0,4.429962900001556,call1,0.019444444444444445,-0.13564814814814816,1,0,0,5.110954899981152,colour3,0.34444444444444444,0.29305555555555557,1,0,0,5.767280799977016,number1,True,True,True,15,5,2019_Nov_14_1105,MA_Theta_Exp,3.0.7,59.84694740782024,
video/Experiment/zh_sp01_Ad_We_3_NVocInAudio_NoVideo.avi,vocoded,noVideo,sp01,Ad,We,3,1,2,flow/blocks/NVocInAudio_NoVideo_A.csv,,,,,,,,,0,1,1,1,0,15,15,14,,,,,,,,,-0.4027777777777778,0.32685185185185184,1,0,0,6.111077500041574,call1,-0.002777777777777778,-0.3050925925925926,1,0,0,6.849230699997861,colour4,0.40694444444444444,-0.05,1,0,0,7.428928799985442,number3,True,True,True,15,5,2019_Nov_14_1105,MA_Theta_Exp,3.0.7,59.84694740782024,
video/Experiment/zh_sp01_Ad_We_2_NVocInAudio_NoVideo.avi,vocoded,noVideo,sp01,Ad,We,2,1,2,flow/blocks/NVocInAudio_NoVideo_A.csv,,,,,,,,,0,1,1,1,0,16,16,13,,,,,,,,,-0.4097222222222222,0.30277777777777776,1,0,0,5.009405299962964,call1,-0.008333333333333333,-0.3037037037037037,1,0,0,5.76303850003751,colour4,0.39305555555555555,0.0875,1,0,0,6.327500100014731,number2,True,True,True,15,5,2019_Nov_14_1105,MA_Theta_Exp,3.0.7,59.84694740782024,
video/Experiment/zh_sp07_Dr_Gr_3_NVocInAudio_NoVideo.avi,vocoded,noVideo,sp07,Dr,Gr,3,1,2,flow/blocks/NVocInAudio_NoVideo_A.csv,,,,,,,,,0,1,1,1,0,17,17,22,,,,,,,,,-0.38333333333333336,0.10972222222222222,1,0,0,5.271420000004582,call2,-0.011111111111111112,0.1087962962962963,1,0,0,5.783215300005395,colour2,0.3888888888888889,-0.09537037037037037,1,0,0,6.417363700049464,number3,True,True,True,15,5,2019_Nov_14_1105,MA_Theta_Exp,3.0.7,59.84694740782024,
video/Experiment/zh_sp07_Ad_Ro_2_NVocInAudio_NoVideo.avi,vocoded,noVideo,sp07,Ad,Ro,2,1,2,flow/blocks/NVocInAudio_NoVideo_A.csv,,,,,,,,,0,1,1,1,0,18,18,9,,,,,,,,,-0.39166666666666666,0.3138888888888889,1,0,0,4.8870641000103205,call1,0.027777777777777776,-0.11342592592592593,1,0,0,5.428601999999955,colour3,0.3972222222222222,0.07083333333333333,1,0,0,5.990154600003734,number2,True,True,True,15,5,2019_Nov_14_1105,MA_Theta_Exp,3.0.7,59.84694740782024,
video/Experiment/zh_sp01_Dr_Gr_4_NVocInAudio_NoVideo.avi,vocoded,noVideo,sp01,Dr,Gr,4,1,2,flow/blocks/NVocInAudio_NoVideo_A.csv,,,,,,,,,0,1,1,1,0,19,19,23,,,,,,,,,-0.3861111111111111,0.10462962962962963,1,0,0,5.281059300003108,call2,0.001388888888888889,0.08935185185185185,1,0,0,5.794071000011172,colour2,0.3763888888888889,-0.32592592592592595,1,0,0,6.363273000053596,number4,True,True,True,15,5,2019_Nov_14_1105,MA_Theta_Exp,3.0.7,59.84694740782024,
video/Experiment/zh_sp01_Ad_Gr_2_NVocInAudio_NoVideo.avi,vocoded,noVideo,sp01,Ad,Gr,2,1,2,flow/blocks/NVocInAudio_NoVideo_A.csv,,,,,,,,,0,1,1,1,0,20,20,5,,,,,,,,,-0.4027777777777778,0.28935185185185186,1,0,0,5.252591700002085,call1,0.015277777777777777,0.08611111111111111,1,0,0,6.0736809999798425,colour2,0.3958333333333333,0.13055555555555556,1,0,0,6.635389300005045,number2,True,True,True,15,5,2019_Nov_14_1105,MA_Theta_Exp,3.0.7,59.84694740782024,
video/Experiment/zh_sp07_Ad_Ge_1_NVocInAudio_NoVideo.avi,vocoded,noVideo,sp07,Ad,Ge,1,1,2,flow/blocks/NVocInAudio_NoVideo_A.csv,,,,,,,,,0,1,1,1,0,21,21,0,,,,,,,,,-0.3902777777777778,0.3,1,0,0,4.7856700999545865,call1,-0.04583333333333333,0.30833333333333335,1,0,0,5.335958599986043,colour1,0.3819444444444444,0.3111111111111111,1,0,0,6.00402579997899,number1,True,True,True,15,5,2019_Nov_14_1105,MA_Theta_Exp,3.0.7,59.84694740782024,
video/Experiment/zh_sp07_Dr_Ge_2_NVocInAudio_NoVideo.avi,vocoded,noVideo,sp07,Dr,Ge,2,1,2,flow/blocks/NVocInAudio_NoVideo_A.csv,,,,,,,,,0,1,1,1,0,22,22,17,,,,,,,,,-0.3736111111111111,0.300462962962963,1,0,0,4.774881699995603,call1,-0.043055555555555555,0.30694444444444446,1,0,0,5.239004100032616,colour1,0.36666666666666664,0.11296296296296296,1,0,0,5.750017000013031,number2,False,True,True,15,5,2019_Nov_14_1105,MA_Theta_Exp,3.0.7,59.84694740782024,
video/Experiment/zh_sp07_Ad_We_1_NVocInAudio_NoVideo.avi,vocoded,noVideo,sp07,Ad,We,1,1,2,flow/blocks/NVocInAudio_NoVideo_A.csv,,,,,,,,,0,1,1,1,0,23,23,12,,,,,,,,,-0.4041666666666667,0.30694444444444446,1,0,0,4.498567899980117,call1,-0.016666666666666666,-0.28564814814814815,1,0,0,5.164974800019991,colour4,0.3736111111111111,0.28194444444444444,1,0,0,5.786105100007262,number1,True,True,True,15,5,2019_Nov_14_1105,MA_Theta_Exp,3.0.7,59.84694740782024,
video/Experiment/zh_sp07_Dr_Ge_3_NVocInAudio_NoVideo.avi,vocoded,noVideo,sp07,Dr,Ge,3,1,2,flow/blocks/NVocInAudio_NoVideo_A.csv,,,,,,,,,0,1,1,1,0,24,24,18,,,,,,,,,-0.39305555555555555,0.1,1,0,0,4.914686499978416,call2,0.034722222222222224,0.29305555555555557,1,0,0,5.52666400000453,colour1,0.3333333333333333,-0.08148148148148149,1,0,0,6.164562200021464,number3,True,True,True,15,5,2019_Nov_14_1105,MA_Theta_Exp,3.0.7,59.84694740782024,
video/Experiment/zh_sp01_Dr_We_3_NVocInAudio_NoVideo.avi,vocoded,noVideo,sp01,Dr,We,3,1,2,flow/blocks/NVocInAudio_NoVideo_A.csv,,,,,,,,,0,1,1,1,0,25,25,30,,,,,,,,,-0.37083333333333335,0.07361111111111111,1,0,0,5.0314404999953695,call2,-0.03611111111111111,-0.30925925925925923,1,0,0,5.6484233000082895,colour4,0.3861111111111111,-0.10648148148148148,1,0,0,6.749990799988154,number3,True,True,True,15,5,2019_Nov_14_1105,MA_Theta_Exp,3.0.7,59.84694740782024,
video/Experiment/zh_sp01_Ad_Ro_3_NVocInAudio_NoVideo.avi,vocoded,noVideo,sp01,Ad,Ro,3,1,2,flow/blocks/NVocInAudio_NoVideo_A.csv,,,,,,,,,0,1,1,1,0,26,26,10,,,,,,,,,-0.3625,0.3194444444444444,1,0,0,4.964250800025184,call1,0.002777777777777778,-0.09537037037037037,1,0,0,5.579422099981457,colour3,0.41805555555555557,-0.10833333333333334,1,0,0,6.186558999994304,number3,True,True,True,15,5,2019_Nov_14_1105,MA_Theta_Exp,3.0.7,59.84694740782024,
video/Experiment/zh_sp07_Dr_Gr_1_NVocInAudio_NoVideo.avi,vocoded,noVideo,sp07,Dr,Gr,1,1,2,flow/blocks/NVocInAudio_NoVideo_A.csv,,,,,,,,,0,1,1,1,0,27,27,20,,,,,,,,,-0.4083333333333333,0.12916666666666668,1,0,0,5.358125800034031,call2,-0.004166666666666667,0.09305555555555556,1,0,0,6.067740099970251,colour2,0.4152777777777778,0.31666666666666665,1,0,0,6.778420100046787,number1,True,True,True,15,5,2019_Nov_14_1105,MA_Theta_Exp,3.0.7,59.84694740782024,
video/Experiment/zh_sp07_Ad_Gr_1_NVocInAudio_NoVideo.avi,vocoded,noVideo,sp07,Ad,Gr,1,1,2,flow/blocks/NVocInAudio_NoVideo_A.csv,,,,,,,,,0,1,1,1,0,28,28,4,,,,,,,,,-0.43472222222222223,0.34629629629629627,1,0,0,4.533194799965713,call1,-0.020833333333333332,0.11018518518518519,1,0,0,5.13705319998553,colour2,0.4,0.3277777777777778,1,0,0,5.764854999957606,number1,True,True,True,15,5,2019_Nov_14_1105,MA_Theta_Exp,3.0.7,59.84694740782024,
video/Experiment/zh_sp07_Dr_Gr_2_NVocInAudio_NoVideo.avi,vocoded,noVideo,sp07,Dr,Gr,2,1,2,flow/blocks/NVocInAudio_NoVideo_A.csv,,,,,,,,,0,1,1,1,0,29,29,21,,,,,,,,,-0.3902777777777778,0.12638888888888888,1,0,0,4.366739799967036,call2,0.015277777777777777,0.11944444444444445,1,0,0,5.033460000006016,colour2,0.4041666666666667,0.09907407407407408,1,0,0,5.800782000005711,number2,True,True,True,15,5,2019_Nov_14_1105,MA_Theta_Exp,3.0.7,59.84694740782024,
video/Experiment/zh_sp01_Ad_Ge_3_NVocInAudio_NoVideo.avi,vocoded,noVideo,sp01,Ad,Ge,3,1,2,flow/blocks/NVocInAudio_NoVideo_A.csv,,,,,,,,,0,1,1,1,0,30,30,2,,,,,,,,,-0.3736111111111111,0.30277777777777776,1,0,0,4.7946511000045575,call1,-0.011111111111111112,0.33611111111111114,1,0,0,5.311335100035649,colour1,0.38333333333333336,-0.1037037037037037,1,0,0,6.027167199994437,number3,True,True,True,15,5,2019_Nov_14_1105,MA_Theta_Exp,3.0.7,59.84694740782024,
video/Experiment/zh_sp01_Dr_Ge_1_NVocInAudio_NoVideo.avi,vocoded,noVideo,sp01,Dr,Ge,1,1,2,flow/blocks/NVocInAudio_NoVideo_A.csv,,,,,,,,,0,1,1,1,0,31,31,16,,,,,,,,,-0.3902777777777778,0.11388888888888889,1,0,0,5.566846000030637,call2,-0.015277777777777777,0.3277777777777778,1,0,0,6.166477599996142,colour1,0.36944444444444446,0.325,1,0,0,6.795653700013645,number1,True,True,True,15,5,2019_Nov_14_1105,MA_Theta_Exp,3.0.7,59.84694740782024,
video/Experiment/zh_sp01_Dr_Ge_2_NoThetaInAudio_GlobalThetaInVideo.avi,noTheta,plusVideo,sp01,Dr,Ge,2,2,3,flow/blocks/NoThetaInAudio_GlobalThetaInVideo_A.csv,,,,,,,,,0,2,2,2,0,0,0,17,,,,,,,,,-0.38333333333333336,0.09768518518518518,1,0,0,5.832036399981007,call2,0.006944444444444444,0.3347222222222222,1,0,0,6.707252500054892,colour1,0.3972222222222222,0.10972222222222222,1,0,0,8.604490600002464,number2,True,True,True,15,5,2019_Nov_14_1105,MA_Theta_Exp,3.0.7,59.84694740782024,
video/Experiment/zh_sp07_Ad_Ro_1_NoThetaInAudio_GlobalThetaInVideo.avi,noTheta,plusVideo,sp07,Ad,Ro,1,2,3,flow/blocks/NoThetaInAudio_GlobalThetaInVideo_A.csv,,,,,,,,,0,2,2,2,0,1,1,8,,,,,,,,,-0.3472222222222222,0.31805555555555554,1,0,0,4.623458000016399,call1,-0.027777777777777776,-0.12037037037037036,1,0,0,5.273886500042863,colour3,0.4027777777777778,0.32083333333333336,1,0,0,6.40601819998119,number1,True,True,True,15,5,2019_Nov_14_1105,MA_Theta_Exp,3.0.7,59.84694740782024,
video/Experiment/zh_sp01_Ad_Ro_2_NoThetaInAudio_GlobalThetaInVideo.avi,noTheta,plusVideo,sp01,Ad,Ro,2,2,3,flow/blocks/NoThetaInAudio_GlobalThetaInVideo_A.csv,,,,,,,,,0,2,2,2,0,2,2,9,,,,,,,,,-0.3861111111111111,0.3,1,0,0,5.470633400022052,call1,-0.018055555555555554,-0.09398148148148149,1,0,0,6.049951799970586,colour3,0.37916666666666665,0.12777777777777777,1,0,0,6.762754800030962,number2,True,True,True,15,5,2019_Nov_14_1105,MA_Theta_Exp,3.0.7,59.84694740782024,
video/Experiment/zh_sp07_Dr_Ge_1_NoThetaInAudio_GlobalThetaInVideo.avi,noTheta,plusVideo,sp07,Dr,Ge,1,2,3,flow/blocks/NoThetaInAudio_GlobalThetaInVideo_A.csv,,,,,,,,,0,2,2,2,0,3,3,16,,,,,,,,,-0.41388888888888886,-0.32037037037037036,1,0,0,5.284976899973117,call4,-0.022222222222222223,0.30694444444444446,1,0,0,5.983072400034871,colour1,0.39861111111111114,0.3212962962962963,1,0,0,6.816517100029159,number1,False,True,True,15,5,2019_Nov_14_1105,MA_Theta_Exp,3.0.7,59.84694740782024,
video/Experiment/zh_sp07_Ad_We_1_NoThetaInAudio_GlobalThetaInVideo.avi,noTheta,plusVideo,sp07,Ad,We,1,2,3,flow/blocks/NoThetaInAudio_GlobalThetaInVideo_A.csv,,,,,,,,,0,2,2,2,0,4,4,12,,,,,,,,,-0.42916666666666664,0.29074074074074074,1,0,0,5.195485599979293,call1,-0.019444444444444445,-0.3148148148148148,1,0,0,6.027378500031773,colour4,0.39444444444444443,0.32222222222222224,1,0,0,7.388647600018885,number1,True,True,True,15,5,2019_Nov_14_1105,MA_Theta_Exp,3.0.7,59.84694740782024,
video/Experiment/zh_sp07_Dr_Gr_1_NoThetaInAudio_GlobalThetaInVideo.avi,noTheta,plusVideo,sp07,Dr,Gr,1,2,3,flow/blocks/NoThetaInAudio_GlobalThetaInVideo_A.csv,,,,,,,,,0,2,2,2,0,5,5,20,,,,,,,,,-0.40694444444444444,-0.33055555555555555,1,0,0,6.42917929997202,call4,-0.013888888888888888,0.10555555555555556,1,0,0,7.245982000022195,colour2,0.39305555555555555,0.3277777777777778,1,0,0,7.9133564999792725,number1,False,True,True,15,5,2019_Nov_14_1105,MA_Theta_Exp,3.0.7,59.84694740782024,
video/Experiment/zh_sp01_Dr_Gr_2_NoThetaInAudio_GlobalThetaInVideo.avi,noTheta,plusVideo,sp01,Dr,Gr,2,2,3,flow/blocks/NoThetaInAudio_GlobalThetaInVideo_A.csv,,,,,,,,,0,2,2,2,0,6,6,21,,,,,,,,,-0.4097222222222222,-0.337037037037037,1,0,0,6.213635899999645,call4,0.005555555555555556,0.10277777777777777,1,0,0,6.9250841999892145,colour2,0.4083333333333333,0.10601851851851851,1,0,0,7.592541699996218,number2,False,True,True,15,5,2019_Nov_14_1105,MA_Theta_Exp,3.0.7,59.84694740782024,
video/Experiment/zh_sp01_Dr_Ge_3_NoThetaInAudio_GlobalThetaInVideo.avi,noTheta,plusVideo,sp01,Dr,Ge,3,2,3,flow/blocks/NoThetaInAudio_GlobalThetaInVideo_A.csv,,,,,,,,,0,2,2,2,0,7,7,18,,,,,,,,,-0.3958333333333333,-0.32916666666666666,1,0,0,5.451962699997239,call4,0.022222222222222223,0.31527777777777777,1,0,0,6.7181737999781035,colour1,0.3611111111111111,-0.08981481481481482,1,0,0,7.552680099965073,number3,False,True,True,15,5,2019_Nov_14_1105,MA_Theta_Exp,3.0.7,59.84694740782024,
video/Experiment/zh_sp01_Ad_Gr_1_NoThetaInAudio_GlobalThetaInVideo.avi,noTheta,plusVideo,sp01,Ad,Gr,1,2,3,flow/blocks/NoThetaInAudio_GlobalThetaInVideo_A.csv,,,,,,,,,0,2,2,2,0,8,8,4,,,,,,,,,-0.3861111111111111,0.3074074074074074,1,0,0,5.663683699967805,call1,0.015277777777777777,0.10185185185185185,1,0,0,6.548832100001164,colour2,0.4027777777777778,0.3101851851851852,1,0,0,8.712929999979679,number1,True,True,True,15,5,2019_Nov_14_1105,MA_Theta_Exp,3.0.7,59.84694740782024,
video/Experiment/zh_sp01_Ad_Ro_3_NoThetaInAudio_GlobalThetaInVideo.avi,noTheta,plusVideo,sp01,Ad,Ro,3,2,3,flow/blocks/NoThetaInAudio_GlobalThetaInVideo_A.csv,,,,,,,,,0,2,2,2,0,9,9,10,,,,,,,,,-0.42916666666666664,0.3111111111111111,1,0,0,5.149135100014973,call1,-0.0125,-0.09814814814814815,1,0,0,5.963055600004736,colour3,0.36944444444444446,-0.09583333333333334,1,0,0,6.714409800013527,number3,True,True,True,15,5,2019_Nov_14_1105,MA_Theta_Exp,3.0.7,59.84694740782024,
video/Experiment/zh_sp07_Ad_Gr_4_NoThetaInAudio_GlobalThetaInVideo.avi,noTheta,plusVideo,sp07,Ad,Gr,4,2,3,flow/blocks/NoThetaInAudio_GlobalThetaInVideo_A.csv,,,,,,,,,0,2,2,2,0,10,10,7,,,,,,,,,-0.4,0.31805555555555554,1,0,0,4.8842564999940805,call1,-0.02361111111111111,0.10555555555555556,1,0,0,6.044263400021009,colour2,0.3902777777777778,-0.2800925925925926,1,0,0,6.829478700004984,number4,True,True,True,15,5,2019_Nov_14_1105,MA_Theta_Exp,3.0.7,59.84694740782024,
video/Experiment/zh_sp01_Ad_Ge_4_NoThetaInAudio_GlobalThetaInVideo.avi,noTheta,plusVideo,sp01,Ad,Ge,4,2,3,flow/blocks/NoThetaInAudio_GlobalThetaInVideo_A.csv,,,,,,,,,0,2,2,2,0,11,11,3,,,,,,,,,-0.3875,0.30833333333333335,1,0,0,5.884070899977814,call1,-0.029166666666666667,0.2810185185185185,1,0,0,6.900113199953921,colour1,0.4305555555555556,-0.3175925925925926,1,0,0,7.583746400021482,number4,True,True,True,15,5,2019_Nov_14_1105,MA_Theta_Exp,3.0.7,59.84694740782024,
video/Experiment/zh_sp07_Dr_Ro_4_NoThetaInAudio_GlobalThetaInVideo.avi,noTheta,plusVideo,sp07,Dr,Ro,4,2,3,flow/blocks/NoThetaInAudio_GlobalThetaInVideo_A.csv,,,,,,,,,0,2,2,2,0,12,12,27,,,,,,,,,-0.35555555555555557,0.2875,1,0,0,5.037000199954491,call1,0.002777777777777778,0.3236111111111111,1,0,0,5.5147996000014246,colour1,0.36666666666666664,-0.27314814814814814,1,0,0,6.138197699969169,number4,False,False,True,15,5,2019_Nov_14_1105,MA_Theta_Exp,3.0.7,59.84694740782024,
video/Experiment/zh_sp01_Dr_Gr_3_NoThetaInAudio_GlobalThetaInVideo.avi,noTheta,plusVideo,sp01,Dr,Gr,3,2,3,flow/blocks/NoThetaInAudio_GlobalThetaInVideo_A.csv,,,,,,,,,0,2,2,2,0,13,13,22,,,,,,,,,-0.4,0.10972222222222222,1,0,0,5.260032400023192,call2,-0.04027777777777778,0.10324074074074074,1,0,0,5.795055199996568,colour2,0.3875,-0.08611111111111111,1,0,0,6.709064099995885,number3,True,True,True,15,5,2019_Nov_14_1105,MA_Theta_Exp,3.0.7,59.84694740782024,
video/Experiment/zh_sp07_Dr_We_1_NoThetaInAudio_GlobalThetaInVideo.avi,noTheta,plusVideo,sp07,Dr,We,1,2,3,flow/blocks/NoThetaInAudio_GlobalThetaInVideo_A.csv,,,,,,,,,0,2,2,2,0,14,14,28,,,,,,,,,-0.41805555555555557,0.12824074074074074,1,0,0,4.918772500008345,call2,-0.006944444444444444,-0.32037037037037036,1,0,0,5.5702882000477985,colour4,0.3861111111111111,0.2847222222222222,1,0,0,6.257736400002614,number1,True,True,True,15,5,2019_Nov_14_1105,MA_Theta_Exp,3.0.7,59.84694740782024,
video/Experiment/zh_sp07_Dr_We_2_NoThetaInAudio_GlobalThetaInVideo.avi,noTheta,plusVideo,sp07,Dr,We,2,2,3,flow/blocks/NoThetaInAudio_GlobalThetaInVideo_A.csv,,,,,,,,,0,2,2,2,0,15,15,29,,,,,,,,,-0.38333333333333336,0.30416666666666664,1,0,0,4.4926344999694265,call1,-0.011111111111111112,-0.31527777777777777,1,0,0,5.202659800008405,colour4,0.3861111111111111,0.2708333333333333,1,0,0,6.487333800003398,number1,False,True,False,15,5,2019_Nov_14_1105,MA_Theta_Exp,3.0.7,59.84694740782024,
video/Experiment/zh_sp07_Dr_Gr_4_NoThetaInAudio_GlobalThetaInVideo.avi,noTheta,plusVideo,sp07,Dr,Gr,4,2,3,flow/blocks/NoThetaInAudio_GlobalThetaInVideo_A.csv,,,,,,,,,0,2,2,2,0,16,16,23,,,,,,,,,-0.3902777777777778,0.32083333333333336,1,0,0,5.224995800002944,call1,0.013888888888888888,0.11388888888888889,1,0,0,5.980023599986453,colour2,0.3902777777777778,-0.08564814814814815,1,0,0,7.346257400000468,number3,False,True,False,15,5,2019_Nov_14_1105,MA_Theta_Exp,3.0.7,59.84694740782024,
video/Experiment/zh_sp01_Dr_We_3_NoThetaInAudio_GlobalThetaInVideo.avi,noTheta,plusVideo,sp01,Dr,We,3,2,3,flow/blocks/NoThetaInAudio_GlobalThetaInVideo_A.csv,,,,,,,,,0,2,2,2,0,17,17,30,,,,,,,,,-0.4166666666666667,0.09722222222222222,1,0,0,5.180797900015023,call2,-0.001388888888888889,-0.29259259259259257,1,0,0,5.8492645000224,colour4,0.4083333333333333,-0.08888888888888889,1,0,0,6.610491900006309,number3,True,True,True,15,5,2019_Nov_14_1105,MA_Theta_Exp,3.0.7,59.84694740782024,
video/Experiment/zh_sp01_Dr_Ro_2_NoThetaInAudio_GlobalThetaInVideo.avi,noTheta,plusVideo,sp01,Dr,Ro,2,2,3,flow/blocks/NoThetaInAudio_GlobalThetaInVideo_A.csv,,,,,,,,,0,2,2,2,0,18,18,25,,,,,,,,,-0.4152777777777778,0.12361111111111112,1,0,0,5.722590700024739,call2,-0.0125,-0.10231481481481482,1,0,0,6.367070299980696,colour3,0.39861111111111114,0.11666666666666667,1,0,0,7.533726699999534,number2,True,True,True,15,5,2019_Nov_14_1105,MA_Theta_Exp,3.0.7,59.84694740782024,
video/Experiment/zh_sp07_Dr_Ro_1_NoThetaInAudio_GlobalThetaInVideo.avi,noTheta,plusVideo,sp07,Dr,Ro,1,2,3,flow/blocks/NoThetaInAudio_GlobalThetaInVideo_A.csv,,,,,,,,,0,2,2,2,0,19,19,24,,,,,,,,,-0.3972222222222222,0.10601851851851851,1,0,0,4.7794125999789685,call2,0.002777777777777778,-0.10833333333333334,1,0,0,5.940214500005823,colour3,0.4125,0.3236111111111111,1,0,0,6.840898099995684,number1,True,True,True,15,5,2019_Nov_14_1105,MA_Theta_Exp,3.0.7,59.84694740782024,
video/Experiment/zh_sp07_Ad_We_4_NoThetaInAudio_GlobalThetaInVideo.avi,noTheta,plusVideo,sp07,Ad,We,4,2,3,flow/blocks/NoThetaInAudio_GlobalThetaInVideo_A.csv,,,,,,,,,0,2,2,2,0,20,20,15,,,,,,,,,-0.36527777777777776,0.31157407407407406,1,0,0,4.610820600006264,call1,-0.002777777777777778,-0.34675925925925927,1,0,0,5.2945562999811955,colour4,0.38472222222222224,-0.28055555555555556,1,0,0,5.996049400011543,number4,True,True,True,15,5,2019_Nov_14_1105,MA_Theta_Exp,3.0.7,59.84694740782024,
video/Experiment/zh_sp07_Ad_We_3_NoThetaInAudio_GlobalThetaInVideo.avi,noTheta,plusVideo,sp07,Ad,We,3,2,3,flow/blocks/NoThetaInAudio_GlobalThetaInVideo_A.csv,,,,,,,,,0,2,2,2,0,21,21,14,,,,,,,,,-0.4361111111111111,0.3236111111111111,1,0,0,4.445573799952399,call1,-0.04027777777777778,-0.30648148148148147,1,0,0,5.4435664000338875,colour4,0.39444444444444443,-0.08287037037037037,1,0,0,6.427865199977532,number3,True,True,True,15,5,2019_Nov_14_1105,MA_Theta_Exp,3.0.7,59.84694740782024,
video/Experiment/zh_sp01_Dr_Ge_4_NoThetaInAudio_GlobalThetaInVideo.avi,noTheta,plusVideo,sp01,Dr,Ge,4,2,3,flow/blocks/NoThetaInAudio_GlobalThetaInVideo_A.csv,,,,,,,,,0,2,2,2,0,22,22,19,,,,,,,,,-0.4125,0.11388888888888889,1,0,0,6.1160192000097595,call2,-0.006944444444444444,0.3333333333333333,1,0,0,7.531718100013677,colour1,0.3902777777777778,-0.31342592592592594,1,0,0,8.602499999979045,number4,True,True,True,15,5,2019_Nov_14_1105,MA_Theta_Exp,3.0.7,59.84694740782024,
video/Experiment/zh_sp07_Dr_Ro_3_NoThetaInAudio_GlobalThetaInVideo.avi,noTheta,plusVideo,sp07,Dr,Ro,3,2,3,flow/blocks/NoThetaInAudio_GlobalThetaInVideo_A.csv,,,,,,,,,0,2,2,2,0,23,23,26,,,,,,,,,-0.4027777777777778,0.3111111111111111,1,0,0,4.723324300022796,call1,-0.016666666666666666,-0.11481481481481481,1,0,0,5.3257956999586895,colour3,0.3888888888888889,-0.07361111111111111,1,0,0,6.026278300036211,number3,False,True,True,15,5,2019_Nov_14_1105,MA_Theta_Exp,3.0.7,59.84694740782024,
video/Experiment/zh_sp07_Ad_We_2_NoThetaInAudio_GlobalThetaInVideo.avi,noTheta,plusVideo,sp07,Ad,We,2,2,3,flow/blocks/NoThetaInAudio_GlobalThetaInVideo_A.csv,,,,,,,,,0,2,2,2,0,24,24,13,,,,,,,,,-0.3763888888888889,0.3125,1,0,0,4.60877160000382,call1,-0.015277777777777777,-0.29953703703703705,1,0,0,5.374753699987195,colour4,0.35,0.1125,1,0,0,6.109999099979177,number2,True,True,True,15,5,2019_Nov_14_1105,MA_Theta_Exp,3.0.7,59.84694740782024,
video/Experiment/zh_sp01_Ad_Ge_3_NoThetaInAudio_GlobalThetaInVideo.avi,noTheta,plusVideo,sp01,Ad,Ge,3,2,3,flow/blocks/NoThetaInAudio_GlobalThetaInVideo_A.csv,,,,,,,,,0,2,2,2,0,25,25,2,,,,,,,,,-0.39444444444444443,0.2916666666666667,1,0,0,5.484203499974683,call1,0.011111111111111112,0.30185185185185187,1,0,0,6.221401499991771,colour1,0.39305555555555555,-0.09953703703703703,1,0,0,6.999690299970098,number3,True,True,True,15,5,2019_Nov_14_1105,MA_Theta_Exp,3.0.7,59.84694740782024,
video/Experiment/zh_sp01_Ad_Ro_4_NoThetaInAudio_GlobalThetaInVideo.avi,noTheta,plusVideo,sp01,Ad,Ro,4,2,3,flow/blocks/NoThetaInAudio_GlobalThetaInVideo_A.csv,,,,,,,,,0,2,2,2,0,26,26,11,,,,,,,,,-0.3972222222222222,0.31805555555555554,1,0,0,5.594928100006655,call1,-0.019444444444444445,-0.12916666666666668,1,0,0,6.595646099944133,colour3,0.3819444444444444,-0.29953703703703705,1,0,0,8.226621500041801,number4,True,True,True,15,5,2019_Nov_14_1105,MA_Theta_Exp,3.0.7,59.84694740782024,
video/Experiment/zh_sp07_Ad_Ge_2_NoThetaInAudio_GlobalThetaInVideo.avi,noTheta,plusVideo,sp07,Ad,Ge,2,2,3,flow/blocks/NoThetaInAudio_GlobalThetaInVideo_A.csv,,,,,,,,,0,2,2,2,0,27,27,1,,,,,,,,,-0.4083333333333333,0.300462962962963,1,0,0,4.866224500001408,call1,0.002777777777777778,0.32916666666666666,1,0,0,6.98301809997065,colour1,0.4041666666666667,0.11990740740740741,1,0,0,7.882666999998037,number2,True,True,True,15,5,2019_Nov_14_1105,MA_Theta_Exp,3.0.7,59.84694740782024,
video/Experiment/zh_sp01_Dr_We_4_NoThetaInAudio_GlobalThetaInVideo.avi,noTheta,plusVideo,sp01,Dr,We,4,2,3,flow/blocks/NoThetaInAudio_GlobalThetaInVideo_A.csv,,,,,,,,,0,2,2,2,0,28,28,31,,,,,,,,,-0.375,0.10555555555555556,1,0,0,5.194610700011253,call2,-0.002777777777777778,-0.32731481481481484,1,0,0,5.933106599957682,colour4,0.3763888888888889,-0.30694444444444446,1,0,0,6.782939600001555,number4,True,True,True,15,5,2019_Nov_14_1105,MA_Theta_Exp,3.0.7,59.84694740782024,
video/Experiment/zh_sp01_Ad_Gr_2_NoThetaInAudio_GlobalThetaInVideo.avi,noTheta,plusVideo,sp01,Ad,Gr,2,2,3,flow/blocks/NoThetaInAudio_GlobalThetaInVideo_A.csv,,,,,,,,,0,2,2,2,0,29,29,5,,,,,,,,,-0.3819444444444444,0.30277777777777776,1,0,0,5.513927299994975,call1,0.0,0.09861111111111111,1,0,0,6.425430900009815,colour2,0.4222222222222222,0.12546296296296297,1,0,0,7.46481540001696,number2,True,True,True,15,5,2019_Nov_14_1105,MA_Theta_Exp,3.0.7,59.84694740782024,
video/Experiment/zh_sp01_Ad_Gr_3_NoThetaInAudio_GlobalThetaInVideo.avi,noTheta,plusVideo,sp01,Ad,Gr,3,2,3,flow/blocks/NoThetaInAudio_GlobalThetaInVideo_A.csv,,,,,,,,,0,2,2,2,0,30,30,6,,,,,,,,,-0.4027777777777778,0.32407407407407407,1,0,0,5.144789599988144,call1,0.015277777777777777,0.09305555555555556,1,0,0,6.012160999991465,colour2,0.4,-0.10277777777777777,1,0,0,6.900178399984725,number3,True,True,True,15,5,2019_Nov_14_1105,MA_Theta_Exp,3.0.7,59.84694740782024,
video/Experiment/zh_sp07_Ad_Ge_1_NoThetaInAudio_GlobalThetaInVideo.avi,noTheta,plusVideo,sp07,Ad,Ge,1,2,3,flow/blocks/NoThetaInAudio_GlobalThetaInVideo_A.csv,,,,,,,,,0,2,2,2,0,31,31,0,,,,,,,,,-0.41805555555555557,0.3143518518518518,1,0,0,5.0873274999903515,call1,0.005555555555555556,0.3111111111111111,1,0,0,5.669314900005702,colour1,0.3888888888888889,0.3236111111111111,1,0,0,6.383523600001354,number1,True,True,True,15,5,2019_Nov_14_1105,MA_Theta_Exp,3.0.7,59.84694740782024,
video/Experiment/zh_sp01_Dr_Ge_3_GlobalTheta_NoVideo.avi,globalTheta,noVideo,sp01,Dr,Ge,3,3,5,flow/blocks/GlobalTheta_NoVideo_A.csv,,,,,,,,,0,3,3,3,0,0,0,18,,,,,,,,,-0.3958333333333333,0.09490740740740741,1,0,0,5.500954699993599,call2,-0.016666666666666666,0.31851851851851853,1,0,0,6.136936799972318,colour1,0.41805555555555557,-0.10648148148148148,1,0,0,6.984090099984314,number3,True,True,True,15,5,2019_Nov_14_1105,MA_Theta_Exp,3.0.7,59.84694740782024,
video/Experiment/zh_sp01_Ad_We_2_GlobalTheta_NoVideo.avi,globalTheta,noVideo,sp01,Ad,We,2,3,5,flow/blocks/GlobalTheta_NoVideo_A.csv,,,,,,,,,0,3,3,3,0,1,1,13,,,,,,,,,-0.41805555555555557,0.30833333333333335,1,0,0,5.323949199984781,call1,0.008333333333333333,-0.3138888888888889,1,0,0,6.330138200020883,colour4,0.4083333333333333,0.10833333333333334,1,0,0,7.422045499959495,number2,True,True,True,15,5,2019_Nov_14_1105,MA_Theta_Exp,3.0.7,59.84694740782024,
video/Experiment/zh_sp07_Ad_We_4_GlobalTheta_NoVideo.avi,globalTheta,noVideo,sp07,Ad,We,4,3,5,flow/blocks/GlobalTheta_NoVideo_A.csv,,,,,,,,,0,3,3,3,0,2,2,15,,,,,,,,,-0.4166666666666667,0.29305555555555557,1,0,0,5.478972300013993,call1,-0.027777777777777776,-0.3300925925925926,1,0,0,6.956427900004201,colour4,0.4111111111111111,-0.0875,1,0,0,8.945419099996798,number3,True,True,False,15,5,2019_Nov_14_1105,MA_Theta_Exp,3.0.7,59.84694740782024,
video/Experiment/zh_sp01_Ad_We_3_GlobalTheta_NoVideo.avi,globalTheta,noVideo,sp01,Ad,We,3,3,5,flow/blocks/GlobalTheta_NoVideo_A.csv,,,,,,,,,0,3,3,3,0,3,3,14,,,,,,,,,-0.42083333333333334,0.32916666666666666,1,0,0,5.037084700015839,call1,0.018055555555555554,-0.31203703703703706,1,0,0,5.82299229997443,colour4,0.4125,-0.09166666666666666,1,0,0,6.524366399971768,number3,True,True,True,15,5,2019_Nov_14_1105,MA_Theta_Exp,3.0.7,59.84694740782024,
video/Experiment/zh_sp01_Ad_Ge_2_GlobalTheta_NoVideo.avi,globalTheta,noVideo,sp01,Ad,Ge,2,3,5,flow/blocks/GlobalTheta_NoVideo_A.csv,,,,,,,,,0,3,3,3,0,4,4,1,,,,,,,,,-0.4083333333333333,0.325,1,0,0,5.146502399991732,call1,-0.008333333333333333,0.31157407407407406,1,0,0,6.466757800022606,colour1,0.4027777777777778,0.09305555555555556,1,0,0,9.055366099986713,number2,True,True,True,15,5,2019_Nov_14_1105,MA_Theta_Exp,3.0.7,59.84694740782024,
video/Experiment/zh_sp01_Dr_Gr_3_GlobalTheta_NoVideo.avi,globalTheta,noVideo,sp01,Dr,Gr,3,3,5,flow/blocks/GlobalTheta_NoVideo_A.csv,,,,,,,,,0,3,3,3,0,5,5,22,,,,,,,,,-0.40555555555555556,0.10277777777777777,1,0,0,5.410779100027867,call2,-0.034722222222222224,0.11527777777777778,1,0,0,6.001720100000966,colour2,0.3902777777777778,-0.1050925925925926,1,0,0,6.911698900046758,number3,True,True,True,15,5,2019_Nov_14_1105,MA_Theta_Exp,3.0.7,59.84694740782024,
video/Experiment/zh_sp07_Ad_We_1_GlobalTheta_NoVideo.avi,globalTheta,noVideo,sp07,Ad,We,1,3,5,flow/blocks/GlobalTheta_NoVideo_A.csv,,,,,,,,,0,3,3,3,0,6,6,12,,,,,,,,,-0.3902777777777778,0.2962962962962963,1,0,0,4.719898800016381,call1,-0.001388888888888889,-0.3175925925925926,1,0,0,5.470229299971834,colour4,0.41944444444444445,0.30972222222222223,1,0,0,6.253390600031707,number1,True,True,True,15,5,2019_Nov_14_1105,MA_Theta_Exp,3.0.7,59.84694740782024,
video/Experiment/zh_sp01_Dr_We_1_GlobalTheta_NoVideo.avi,globalTheta,noVideo,sp01,Dr,We,1,3,5,flow/blocks/GlobalTheta_NoVideo_A.csv,,,,,,,,,0,3,3,3,0,7,7,28,,,,,,,,,-0.4166666666666667,0.1125,1,0,0,7.7540083000203595,call2,-0.043055555555555555,-0.2773148148148148,1,0,0,8.440975499979686,colour4,0.42083333333333334,0.33194444444444443,1,0,0,9.157049000030383,number1,True,True,True,15,5,2019_Nov_14_1105,MA_Theta_Exp,3.0.7,59.84694740782024,
video/Experiment/zh_sp07_Dr_Ge_2_GlobalTheta_NoVideo.avi,globalTheta,noVideo,sp07,Dr,Ge,2,3,5,flow/blocks/GlobalTheta_NoVideo_A.csv,,,,,,,,,0,3,3,3,0,8,8,17,,,,,,,,,-0.41944444444444445,0.1125,1,0,0,5.126705200003926,call2,-0.020833333333333332,0.30694444444444446,1,0,0,5.877003300003707,colour1,0.37916666666666665,0.09212962962962963,1,0,0,6.579246299981605,number2,True,True,True,15,5,2019_Nov_14_1105,MA_Theta_Exp,3.0.7,59.84694740782024,
video/Experiment/zh_sp07_Ad_Gr_3_GlobalTheta_NoVideo.avi,globalTheta,noVideo,sp07,Ad,Gr,3,3,5,flow/blocks/GlobalTheta_NoVideo_A.csv,,,,,,,,,0,3,3,3,0,9,9,6,,,,,,,,,-0.425,0.29907407407407405,1,0,0,5.104814799968153,call1,-0.011111111111111112,0.08796296296296297,1,0,0,5.900474700029008,colour2,0.37777777777777777,-0.13703703703703704,1,0,0,6.485171900014393,number3,True,True,True,15,5,2019_Nov_14_1105,MA_Theta_Exp,3.0.7,59.84694740782024,
video/Experiment/zh_sp01_Dr_Gr_1_GlobalTheta_NoVideo.avi,globalTheta,noVideo,sp01,Dr,Gr,1,3,5,flow/blocks/GlobalTheta_NoVideo_A.csv,,,,,,,,,0,3,3,3,0,10,10,20,,,,,,,,,-0.4041666666666667,0.09907407407407408,1,0,0,6.379369500034954,call2,-0.019444444444444445,0.09907407407407408,1,0,0,6.9796439000056125,colour2,0.4361111111111111,0.31666666666666665,1,0,0,7.630025200021919,number1,True,True,True,15,5,2019_Nov_14_1105,MA_Theta_Exp,3.0.7,59.84694740782024,
video/Experiment/zh_sp01_Ad_Ge_3_GlobalTheta_NoVideo.avi,globalTheta,noVideo,sp01,Ad,Ge,3,3,5,flow/blocks/GlobalTheta_NoVideo_A.csv,,,,,,,,,0,3,3,3,0,11,11,2,,,,,,,,,-0.3902777777777778,0.2861111111111111,1,0,0,4.591689500026405,call1,-0.027777777777777776,0.32222222222222224,1,0,0,5.1397417999687605,colour1,0.3972222222222222,-0.09259259259259259,1,0,0,5.859752300020773,number3,True,True,True,15,5,2019_Nov_14_1105,MA_Theta_Exp,3.0.7,59.84694740782024,
video/Experiment/zh_sp01_Dr_Gr_2_GlobalTheta_NoVideo.avi,globalTheta,noVideo,sp01,Dr,Gr,2,3,5,flow/blocks/GlobalTheta_NoVideo_A.csv,,,,,,,,,0,3,3,3,0,12,12,21,,,,,,,,,-0.4013888888888889,0.10277777777777777,1,0,0,6.2793215999845415,call2,-0.02361111111111111,0.09907407407407408,1,0,0,6.825647099991329,colour2,0.4152777777777778,0.09305555555555556,1,0,0,7.427405499969609,number2,True,True,True,15,5,2019_Nov_14_1105,MA_Theta_Exp,3.0.7,59.84694740782024,
video/Experiment/zh_sp01_Dr_Ro_3_GlobalTheta_NoVideo.avi,globalTheta,noVideo,sp01,Dr,Ro,3,3,5,flow/blocks/GlobalTheta_NoVideo_A.csv,,,,,,,,,0,3,3,3,0,13,13,26,,,,,,,,,-0.4111111111111111,0.10416666666666667,1,0,0,4.812979799986351,call2,-0.004166666666666667,-0.11203703703703703,1,0,0,5.924100700009149,colour3,0.39305555555555555,-0.08888888888888889,1,0,0,8.06492510001408,number3,True,True,True,15,5,2019_Nov_14_1105,MA_Theta_Exp,3.0.7,59.84694740782024,
video/Experiment/zh_sp07_Dr_We_4_GlobalTheta_NoVideo.avi,globalTheta,noVideo,sp07,Dr,We,4,3,5,flow/blocks/GlobalTheta_NoVideo_A.csv,,,,,,,,,0,3,3,3,0,14,14,31,,,,,,,,,-0.42083333333333334,0.09861111111111111,1,0,0,5.388970200030599,call2,0.005555555555555556,-0.32731481481481484,1,0,0,6.70821369998157,colour4,0.3875,-0.31203703703703706,1,0,0,7.917714400042314,number4,True,True,True,15,5,2019_Nov_14_1105,MA_Theta_Exp,3.0.7,59.84694740782024,
video/Experiment/zh_sp07_Ad_Ge_4_GlobalTheta_NoVideo.avi,globalTheta,noVideo,sp07,Ad,Ge,4,3,5,flow/blocks/GlobalTheta_NoVideo_A.csv,,,,,,,,,0,3,3,3,0,15,15,3,,,,,,,,,-0.4111111111111111,0.29583333333333334,1,0,0,4.569217199983541,call1,0.013888888888888888,0.29583333333333334,1,0,0,5.169817799993325,colour1,0.39305555555555555,-0.30972222222222223,1,0,0,6.256375199998729,number4,True,True,True,15,5,2019_Nov_14_1105,MA_Theta_Exp,3.0.7,59.84694740782024,
video/Experiment/zh_sp07_Ad_Ro_3_GlobalTheta_NoVideo.avi,globalTheta,noVideo,sp07,Ad,Ro,3,3,5,flow/blocks/GlobalTheta_NoVideo_A.csv,,,,,,,,,0,3,3,3,0,16,16,10,,,,,,,,,-0.4041666666666667,0.32222222222222224,1,0,0,4.891684400034137,call1,-0.008333333333333333,0.29768518518518516,1,0,0,5.728881299961358,colour1,0.4263888888888889,-0.10694444444444444,1,0,0,6.41497680003522,number3,True,False,True,15,5,2019_Nov_14_1105,MA_Theta_Exp,3.0.7,59.84694740782024,
video/Experiment/zh_sp07_Ad_Ro_1_GlobalTheta_NoVideo.avi,globalTheta,noVideo,sp07,Ad,Ro,1,3,5,flow/blocks/GlobalTheta_NoVideo_A.csv,,,,,,,,,0,3,3,3,0,17,17,8,,,,,,,,,-0.41805555555555557,0.32083333333333336,1,0,0,4.277076600003056,call1,-0.018055555555555554,0.32916666666666666,1,0,0,4.938466299965512,colour1,0.4,0.29583333333333334,1,0,0,5.722120999998879,number1,True,False,True,15,5,2019_Nov_14_1105,MA_Theta_Exp,3.0.7,59.84694740782024,
video/Experiment/zh_sp07_Ad_Gr_2_GlobalTheta_NoVideo.avi,globalTheta,noVideo,sp07,Ad,Gr,2,3,5,flow/blocks/GlobalTheta_NoVideo_A.csv,,,,,,,,,0,3,3,3,0,18,18,5,,,,,,,,,-0.39305555555555555,0.30694444444444446,1,0,0,4.535414499987382,call1,-0.013888888888888888,0.09907407407407408,1,0,0,5.282723799988162,colour2,0.4111111111111111,0.12361111111111112,1,0,0,6.0199687000131235,number2,True,True,True,15,5,2019_Nov_14_1105,MA_Theta_Exp,3.0.7,59.84694740782024,
video/Experiment/zh_sp07_Dr_Ge_1_GlobalTheta_NoVideo.avi,globalTheta,noVideo,sp07,Dr,Ge,1,3,5,flow/blocks/GlobalTheta_NoVideo_A.csv,,,,,,,,,0,3,3,3,0,19,19,16,,,,,,,,,-0.3819444444444444,0.3111111111111111,1,0,0,4.500816100044176,call1,-0.004166666666666667,0.3282407407407407,1,0,0,5.149542799976189,colour1,0.4027777777777778,0.33055555555555555,1,0,0,5.8694320999784395,number1,False,True,True,15,5,2019_Nov_14_1105,MA_Theta_Exp,3.0.7,59.84694740782024,
video/Experiment/zh_sp01_Dr_Ro_1_GlobalTheta_NoVideo.avi,globalTheta,noVideo,sp01,Dr,Ro,1,3,5,flow/blocks/GlobalTheta_NoVideo_A.csv,,,,,,,,,0,3,3,3,0,20,20,24,,,,,,,,,-0.4041666666666667,-0.31203703703703706,1,0,0,5.3734992000390776,call4,-0.008333333333333333,-0.10555555555555556,1,0,0,7.088269900006708,colour3,0.4083333333333333,0.3111111111111111,1,0,0,7.870349699980579,number1,False,True,True,15,5,2019_Nov_14_1105,MA_Theta_Exp,3.0.7,59.84694740782024,
video/Experiment/zh_sp07_Dr_Gr_4_GlobalTheta_NoVideo.avi,globalTheta,noVideo,sp07,Dr,Gr,4,3,5,flow/blocks/GlobalTheta_NoVideo_A.csv,,,,,,,,,0,3,3,3,0,21,21,23,,,,,,,,,-0.3736111111111111,0.2902777777777778,1,0,0,5.952461700013373,call1,0.001388888888888889,0.0837962962962963,1,0,0,6.644623700005468,colour2,0.4,-0.12083333333333333,1,0,0,7.449514700041618,number3,False,True,False,15,5,2019_Nov_14_1105,MA_Theta_Exp,3.0.7,59.84694740782024,
video/Experiment/zh_sp07_Dr_We_3_GlobalTheta_NoVideo.avi,globalTheta,noVideo,sp07,Dr,We,3,3,5,flow/blocks/GlobalTheta_NoVideo_A.csv,,,,,,,,,0,3,3,3,0,22,22,30,,,,,,,,,-0.4097222222222222,0.30277777777777776,1,0,0,4.318549399962649,call1,0.004166666666666667,-0.3050925925925926,1,0,0,5.1058390000252984,colour4,0.39166666666666666,-0.09305555555555556,1,0,0,5.884968900005333,number3,False,True,True,15,5,2019_Nov_14_1105,MA_Theta_Exp,3.0.7,59.84694740782024,
video/Experiment/zh_sp07_Dr_Ro_4_GlobalTheta_NoVideo.avi,globalTheta,noVideo,sp07,Dr,Ro,4,3,5,flow/blocks/GlobalTheta_NoVideo_A.csv,,,,,,,,,0,3,3,3,0,23,23,27,,,,,,,,,-0.39166666666666666,0.3125,1,0,0,4.559897199971601,call1,0.015277777777777777,-0.07731481481481481,1,0,0,5.193555600009859,colour3,0.3888888888888889,-0.325,1,0,0,5.902932099997997,number4,False,True,True,15,5,2019_Nov_14_1105,MA_Theta_Exp,3.0.7,59.84694740782024,
video/Experiment/zh_sp01_Dr_Ro_2_GlobalTheta_NoVideo.avi,globalTheta,noVideo,sp01,Dr,Ro,2,3,5,flow/blocks/GlobalTheta_NoVideo_A.csv,,,,,,,,,0,3,3,3,0,24,24,25,,,,,,,,,-0.38055555555555554,-0.30648148148148147,1,0,0,5.833809900039341,call4,-0.004166666666666667,-0.13194444444444445,1,0,0,6.585438899986912,colour3,0.4125,0.12638888888888888,1,0,0,7.302793599956203,number2,False,True,True,15,5,2019_Nov_14_1105,MA_Theta_Exp,3.0.7,59.84694740782024,
video/Experiment/zh_sp01_Ad_Gr_1_GlobalTheta_NoVideo.avi,globalTheta,noVideo,sp01,Ad,Gr,1,3,5,flow/blocks/GlobalTheta_NoVideo_A.csv,,,,,,,,,0,3,3,3,0,25,25,4,,,,,,,,,-0.4083333333333333,0.2972222222222222,1,0,0,6.33605930005433,call1,-0.015277777777777777,0.10324074074074074,1,0,0,7.4342856999719515,colour2,0.3958333333333333,0.30277777777777776,1,0,0,8.685980999958701,number1,True,True,True,15,5,2019_Nov_14_1105,MA_Theta_Exp,3.0.7,59.84694740782024,
video/Experiment/zh_sp01_Dr_We_2_GlobalTheta_NoVideo.avi,globalTheta,noVideo,sp01,Dr,We,2,3,5,flow/blocks/GlobalTheta_NoVideo_A.csv,,,,,,,,,0,3,3,3,0,26,26,29,,,,,,,,,-0.36527777777777776,0.0962962962962963,1,0,0,5.729170500009786,call2,-0.016666666666666666,-0.2953703703703704,1,0,0,6.365956199995708,colour4,0.3902777777777778,0.12638888888888888,1,0,0,6.993966199981514,number2,True,True,True,15,5,2019_Nov_14_1105,MA_Theta_Exp,3.0.7,59.84694740782024,
video/Experiment/zh_sp01_Ad_Ro_4_GlobalTheta_NoVideo.avi,globalTheta,noVideo,sp01,Ad,Ro,4,3,5,flow/blocks/GlobalTheta_NoVideo_A.csv,,,,,,,,,0,3,3,3,0,27,27,11,,,,,,,,,-0.38055555555555554,0.29583333333333334,1,0,0,5.649517000012565,call1,-0.011111111111111112,-0.12731481481481483,1,0,0,6.380775099969469,colour3,0.4125,-0.3236111111111111,1,0,0,7.397021399985533,number4,True,True,True,15,5,2019_Nov_14_1105,MA_Theta_Exp,3.0.7,59.84694740782024,
video/Experiment/zh_sp07_Dr_Ge_4_GlobalTheta_NoVideo.avi,globalTheta,noVideo,sp07,Dr,Ge,4,3,5,flow/blocks/GlobalTheta_NoVideo_A.csv,,,,,,,,,0,3,3,3,0,28,28,19,,,,,,,,,-0.375,-0.27870370370370373,1,0,0,5.134238799975719,call4,-0.0375,0.3013888888888889,1,0,0,5.802935999992769,colour1,0.38055555555555554,-0.3050925925925926,1,0,0,6.54563299997244,number4,False,True,True,15,5,2019_Nov_14_1105,MA_Theta_Exp,3.0.7,59.84694740782024,
video/Experiment/zh_sp07_Ad_Ro_2_GlobalTheta_NoVideo.avi,globalTheta,noVideo,sp07,Ad,Ro,2,3,5,flow/blocks/GlobalTheta_NoVideo_A.csv,,,,,,,,,0,3,3,3,0,29,29,9,,,,,,,,,-0.4083333333333333,0.32916666666666666,1,0,0,4.36972420004895,call1,0.009722222222222222,-0.10925925925925926,1,0,0,5.029832499974873,colour3,0.3861111111111111,0.10277777777777777,1,0,0,5.607114399957936,number2,True,True,True,15,5,2019_Nov_14_1105,MA_Theta_Exp,3.0.7,59.84694740782024,
video/Experiment/zh_sp07_Ad_Gr_4_GlobalTheta_NoVideo.avi,globalTheta,noVideo,sp07,Ad,Gr,4,3,5,flow/blocks/GlobalTheta_NoVideo_A.csv,,,,,,,,,0,3,3,3,0,30,30,7,,,,,,,,,-0.37222222222222223,0.28888888888888886,1,0,0,4.357199100020807,call1,-0.025,0.0824074074074074,1,0,0,4.946014399989508,colour2,0.4097222222222222,-0.31203703703703706,1,0,0,5.606348700006492,number4,True,True,True,15,5,2019_Nov_14_1105,MA_Theta_Exp,3.0.7,59.84694740782024,
video/Experiment/zh_sp01_Ad_Ge_1_GlobalTheta_NoVideo.avi,globalTheta,noVideo,sp01,Ad,Ge,1,3,5,flow/blocks/GlobalTheta_NoVideo_A.csv,,,,,,,,,0,3,3,3,0,31,31,0,,,,,,,,,-0.4083333333333333,0.3111111111111111,1,0,0,5.2207692000083625,call1,-0.041666666666666664,0.32222222222222224,1,0,0,6.169213999994099,colour1,0.3972222222222222,0.2986111111111111,1,0,0,6.840474300028291,number1,True,True,True,15,5,2019_Nov_14_1105,MA_Theta_Exp,3.0.7,59.84694740782024,
video/Experiment/zh_sp07_Ad_Ro_4_NVocInAudio_GlobalThetaInVideo.avi,vocoded,plusVideo,sp07,Ad,Ro,4,4,1,flow/blocks/NVocInAudio_GlobalThetaInVideo_A.csv,,,,,,,,,0,4,4,4,0,0,0,11,,,,,,,,,-0.3861111111111111,0.2722222222222222,1,0,0,5.298197600001004,call1,-0.022222222222222223,-0.09814814814814815,1,0,0,6.004975000047125,colour3,0.36944444444444446,-0.34814814814814815,1,0,0,6.649627399980091,number4,True,True,True,15,5,2019_Nov_14_1105,MA_Theta_Exp,3.0.7,59.84694740782024,
video/Experiment/zh_sp01_Dr_We_2_NVocInAudio_GlobalThetaInVideo.avi,vocoded,plusVideo,sp01,Dr,We,2,4,1,flow/blocks/NVocInAudio_GlobalThetaInVideo_A.csv,,,,,,,,,0,4,4,4,0,1,1,29,,,,,,,,,-0.3958333333333333,0.12407407407407407,1,0,0,5.4535315000102855,call2,0.020833333333333332,-0.31203703703703706,1,0,0,6.094110700010788,colour4,0.41805555555555557,0.0875,1,0,0,7.004114800016396,number2,True,True,True,15,5,2019_Nov_14_1105,MA_Theta_Exp,3.0.7,59.84694740782024,
video/Experiment/zh_sp07_Ad_Ro_2_NVocInAudio_GlobalThetaInVideo.avi,vocoded,plusVideo,sp07,Ad,Ro,2,4,1,flow/blocks/NVocInAudio_GlobalThetaInVideo_A.csv,,,,,,,,,0,4,4,4,0,2,2,9,,,,,,,,,-0.41388888888888886,0.30277777777777776,1,0,0,4.445722400036175,call1,0.005555555555555556,-0.11481481481481481,1,0,0,5.144011800002772,colour3,0.39166666666666666,0.10555555555555556,1,0,0,5.8106080000288785,number2,True,True,True,15,5,2019_Nov_14_1105,MA_Theta_Exp,3.0.7,59.84694740782024,
video/Experiment/zh_sp01_Ad_Ge_2_NVocInAudio_GlobalThetaInVideo.avi,vocoded,plusVideo,sp01,Ad,Ge,2,4,1,flow/blocks/NVocInAudio_GlobalThetaInVideo_A.csv,,,,,,,,,0,4,4,4,0,3,3,1,,,,,,,,,-0.4388888888888889,0.2986111111111111,1,0,0,5.402256699977443,call1,-0.016666666666666666,0.32222222222222224,1,0,0,6.091496900015045,colour1,0.4125,0.11157407407407408,1,0,0,6.906105300004128,number2,True,True,True,15,5,2019_Nov_14_1105,MA_Theta_Exp,3.0.7,59.84694740782024,
video/Experiment/zh_sp01_Ad_We_4_NVocInAudio_GlobalThetaInVideo.avi,vocoded,plusVideo,sp01,Ad,We,4,4,1,flow/blocks/NVocInAudio_GlobalThetaInVideo_A.csv,,,,,,,,,0,4,4,4,0,4,4,15,,,,,,,,,-0.4097222222222222,0.3111111111111111,1,0,0,5.307134800008498,call1,0.001388888888888889,-0.29259259259259257,1,0,0,5.9709087000228465,colour4,0.39305555555555555,-0.31342592592592594,1,0,0,6.5924281000043266,number4,True,True,True,15,5,2019_Nov_14_1105,MA_Theta_Exp,3.0.7,59.84694740782024,
video/Experiment/zh_sp01_Dr_Ge_2_NVocInAudio_GlobalThetaInVideo.avi,vocoded,plusVideo,sp01,Dr,Ge,2,4,1,flow/blocks/NVocInAudio_GlobalThetaInVideo_A.csv,,,,,,,,,0,4,4,4,0,5,5,17,,,,,,,,,-0.4111111111111111,0.11851851851851852,1,0,0,5.197600700019393,call2,0.015277777777777777,0.3277777777777778,1,0,0,6.097313899954315,colour1,0.36944444444444446,0.11990740740740741,1,0,0,6.877659899997525,number2,True,True,True,15,5,2019_Nov_14_1105,MA_Theta_Exp,3.0.7,59.84694740782024,
video/Experiment/zh_sp01_Dr_Gr_4_NVocInAudio_GlobalThetaInVideo.avi,vocoded,plusVideo,sp01,Dr,Gr,4,4,1,flow/blocks/NVocInAudio_GlobalThetaInVideo_A.csv,,,,,,,,,0,4,4,4,0,6,6,23,,,,,,,,,-0.4027777777777778,0.10833333333333334,1,0,0,6.7039188999915496,call2,-0.004166666666666667,0.11388888888888889,1,0,0,7.469905900012236,colour2,0.4152777777777778,-0.2912037037037037,1,0,0,8.704826099972706,number4,True,True,True,15,5,2019_Nov_14_1105,MA_Theta_Exp,3.0.7,59.84694740782024,
video/Experiment/zh_sp01_Dr_Gr_2_NVocInAudio_GlobalThetaInVideo.avi,vocoded,plusVideo,sp01,Dr,Gr,2,4,1,flow/blocks/NVocInAudio_GlobalThetaInVideo_A.csv,,,,,,,,,0,4,4,4,0,7,7,21,,,,,,,,,-0.4027777777777778,0.11666666666666667,1,0,0,5.607311800005846,call2,-0.02361111111111111,0.09907407407407408,1,0,0,6.312579099962022,colour2,0.39305555555555555,0.11527777777777778,1,0,0,7.2348128000157885,number2,True,True,True,15,5,2019_Nov_14_1105,MA_Theta_Exp,3.0.7,59.84694740782024,
video/Experiment/zh_sp01_Dr_Ge_1_NVocInAudio_GlobalThetaInVideo.avi,vocoded,plusVideo,sp01,Dr,Ge,1,4,1,flow/blocks/NVocInAudio_GlobalThetaInVideo_A.csv,,,,,,,,,0,4,4,4,0,8,8,16,,,,,,,,,-0.4222222222222222,0.10694444444444444,1,0,0,4.960164400050417,call2,0.002777777777777778,0.325,1,0,0,5.704701200011186,colour1,0.39305555555555555,0.33101851851851855,1,0,0,6.33098249998875,number1,True,True,True,15,5,2019_Nov_14_1105,MA_Theta_Exp,3.0.7,59.84694740782024,
video/Experiment/zh_sp01_Ad_Ge_4_NVocInAudio_GlobalThetaInVideo.avi,vocoded,plusVideo,sp01,Ad,Ge,4,4,1,flow/blocks/NVocInAudio_GlobalThetaInVideo_A.csv,,,,,,,,,0,4,4,4,0,9,9,3,,,,,,,,,-0.3861111111111111,0.29212962962962963,1,0,0,5.167132400034461,call1,-0.029166666666666667,0.3138888888888889,1,0,0,5.672263699991163,colour1,0.39444444444444443,-0.3037037037037037,1,0,0,6.318833900033496,number4,True,True,True,15,5,2019_Nov_14_1105,MA_Theta_Exp,3.0.7,59.84694740782024,
video/Experiment/zh_sp01_Dr_We_4_NVocInAudio_GlobalThetaInVideo.avi,vocoded,plusVideo,sp01,Dr,We,4,4,1,flow/blocks/NVocInAudio_GlobalThetaInVideo_A.csv,,,,,,,,,0,4,4,4,0,10,10,31,,,,,,,,,-0.4083333333333333,0.1125,1,0,0,5.311180099961348,call2,0.0375,-0.3384259259259259,1,0,0,6.345430399989709,colour4,0.425,-0.34444444444444444,1,0,0,6.909701199969277,number4,True,True,True,15,5,2019_Nov_14_1105,MA_Theta_Exp,3.0.7,59.84694740782024,
video/Experiment/zh_sp07_Dr_We_3_NVocInAudio_GlobalThetaInVideo.avi,vocoded,plusVideo,sp07,Dr,We,3,4,1,flow/blocks/NVocInAudio_GlobalThetaInVideo_A.csv,,,,,,,,,0,4,4,4,0,11,11,30,,,,,,,,,-0.4375,0.11944444444444445,1,0,0,4.4212563000037335,call2,-0.019444444444444445,-0.28425925925925927,1,0,0,5.0502216999884695,colour4,0.425,-0.09166666666666666,1,0,0,5.649919599993154,number3,True,True,True,15,5,2019_Nov_14_1105,MA_Theta_Exp,3.0.7,59.84694740782024,
video/Experiment/zh_sp07_Ad_Gr_3_NVocInAudio_GlobalThetaInVideo.avi,vocoded,plusVideo,sp07,Ad,Gr,3,4,1,flow/blocks/NVocInAudio_GlobalThetaInVideo_A.csv,,,,,,,,,0,4,4,4,0,12,12,6,,,,,,,,,-0.35694444444444445,0.3194444444444444,1,0,0,4.689397000009194,call1,0.002777777777777778,0.0962962962962963,1,0,0,5.2062373999506235,colour2,0.37916666666666665,-0.1398148148148148,1,0,0,5.760138100013137,number3,True,True,True,15,5,2019_Nov_14_1105,MA_Theta_Exp,3.0.7,59.84694740782024,
video/Experiment/zh_sp07_Dr_Ge_3_NVocInAudio_GlobalThetaInVideo.avi,vocoded,plusVideo,sp07,Dr,Ge,3,4,1,flow/blocks/NVocInAudio_GlobalThetaInVideo_A.csv,,,,,,,,,0,4,4,4,0,13,13,18,,,,,,,,,-0.4027777777777778,0.2875,1,0,0,5.4208138000103645,call1,0.002777777777777778,0.2972222222222222,1,0,0,5.933163800043985,colour1,0.41388888888888886,-0.08055555555555556,1,0,0,6.7260686000227,number3,False,True,True,15,5,2019_Nov_14_1105,MA_Theta_Exp,3.0.7,59.84694740782024,
video/Experiment/zh_sp01_Dr_Ro_2_NVocInAudio_GlobalThetaInVideo.avi,vocoded,plusVideo,sp01,Dr,Ro,2,4,1,flow/blocks/NVocInAudio_GlobalThetaInVideo_A.csv,,,,,,,,,0,4,4,4,0,14,14,25,,,,,,,,,-0.3763888888888889,0.12268518518518519,1,0,0,5.337338200013619,call2,0.016666666666666666,-0.10648148148148148,1,0,0,6.100383699988015,colour3,0.425,0.07916666666666666,1,0,0,6.827946399978828,number2,True,True,True,15,5,2019_Nov_14_1105,MA_Theta_Exp,3.0.7,59.84694740782024,
video/Experiment/zh_sp07_Ad_Ro_3_NVocInAudio_GlobalThetaInVideo.avi,vocoded,plusVideo,sp07,Ad,Ro,3,4,1,flow/blocks/NVocInAudio_GlobalThetaInVideo_A.csv,,,,,,,,,0,4,4,4,0,15,15,10,,,,,,,,,-0.36944444444444446,0.30416666666666664,1,0,0,4.321570799977053,call1,0.005555555555555556,-0.08981481481481482,1,0,0,4.93754730001092,colour3,0.36527777777777776,-0.09861111111111111,1,0,0,5.4767464000033215,number3,True,True,True,15,5,2019_Nov_14_1105,MA_Theta_Exp,3.0.7,59.84694740782024,
video/Experiment/zh_sp01_Dr_Gr_1_NVocInAudio_GlobalThetaInVideo.avi,vocoded,plusVideo,sp01,Dr,Gr,1,4,1,flow/blocks/NVocInAudio_GlobalThetaInVideo_A.csv,,,,,,,,,0,4,4,4,0,16,16,20,,,,,,,,,-0.43472222222222223,0.14444444444444443,1,0,0,5.073189600021578,call2,0.05555555555555555,0.09861111111111111,1,0,0,5.8050087000010535,colour2,0.44027777777777777,0.2847222222222222,1,0,0,7.209542999975383,number1,True,True,True,15,5,2019_Nov_14_1105,MA_Theta_Exp,3.0.7,59.84694740782024,
video/Experiment/zh_sp07_Ad_Ge_1_NVocInAudio_GlobalThetaInVideo.avi,vocoded,plusVideo,sp07,Ad,Ge,1,4,1,flow/blocks/NVocInAudio_GlobalThetaInVideo_A.csv,,,,,,,,,0,4,4,4,0,17,17,0,,,,,,,,,-0.39305555555555555,0.2833333333333333,1,0,0,5.264678600011393,call1,-0.05138888888888889,0.29583333333333334,1,0,0,5.778002400009427,colour1,0.33055555555555555,0.29583333333333334,1,0,0,6.449850699980743,number1,True,True,True,15,5,2019_Nov_14_1105,MA_Theta_Exp,3.0.7,59.84694740782024,
video/Experiment/zh_sp01_Ad_Gr_2_NVocInAudio_GlobalThetaInVideo.avi,vocoded,plusVideo,sp01,Ad,Gr,2,4,1,flow/blocks/NVocInAudio_GlobalThetaInVideo_A.csv,,,,,,,,,0,4,4,4,0,18,18,5,,,,,,,,,-0.375,0.28194444444444444,1,0,0,5.523755500034895,call1,-0.02638888888888889,0.09768518518518518,1,0,0,6.2942642999696545,colour2,0.38333333333333336,0.09444444444444444,1,0,0,6.96649050002452,number2,True,True,True,15,5,2019_Nov_14_1105,MA_Theta_Exp,3.0.7,59.84694740782024,
video/Experiment/zh_sp07_Dr_Gr_3_NVocInAudio_GlobalThetaInVideo.avi,vocoded,plusVideo,sp07,Dr,Gr,3,4,1,flow/blocks/NVocInAudio_GlobalThetaInVideo_A.csv,,,,,,,,,0,4,4,4,0,19,19,22,,,,,,,,,-0.3736111111111111,0.1,1,0,0,4.6249887000303715,call2,-0.044444444444444446,0.09212962962962963,1,0,0,5.291484699991997,colour2,0.3888888888888889,-0.12453703703703704,1,0,0,5.972642900014762,number3,True,True,True,15,5,2019_Nov_14_1105,MA_Theta_Exp,3.0.7,59.84694740782024,
video/Experiment/zh_sp07_Dr_Ro_4_NVocInAudio_GlobalThetaInVideo.avi,vocoded,plusVideo,sp07,Dr,Ro,4,4,1,flow/blocks/NVocInAudio_GlobalThetaInVideo_A.csv,,,,,,,,,0,4,4,4,0,20,20,27,,,,,,,,,-0.3736111111111111,0.11574074074074074,1,0,0,4.755686999997124,call2,0.022222222222222223,0.07777777777777778,1,0,0,6.036431799991988,colour2,0.39444444444444443,-0.29259259259259257,1,0,0,6.606558900035452,number4,True,False,True,15,5,2019_Nov_14_1105,MA_Theta_Exp,3.0.7,59.84694740782024,
video/Experiment/zh_sp07_Ad_We_1_NVocInAudio_GlobalThetaInVideo.avi,vocoded,plusVideo,sp07,Ad,We,1,4,1,flow/blocks/NVocInAudio_GlobalThetaInVideo_A.csv,,,,,,,,,0,4,4,4,0,21,21,12,,,,,,,,,-0.3972222222222222,0.31296296296296294,1,0,0,4.315149700036272,call1,-0.019444444444444445,-0.27870370370370373,1,0,0,4.899272899958305,colour4,0.3763888888888889,0.29583333333333334,1,0,0,5.56262440001592,number1,True,True,True,15,5,2019_Nov_14_1105,MA_Theta_Exp,3.0.7,59.84694740782024,
video/Experiment/zh_sp01_Ad_We_2_NVocInAudio_GlobalThetaInVideo.avi,vocoded,plusVideo,sp01,Ad,We,2,4,1,flow/blocks/NVocInAudio_GlobalThetaInVideo_A.csv,,,,,,,,,0,4,4,4,0,22,22,13,,,,,,,,,-0.3416666666666667,0.29768518518518516,1,0,0,5.345744599995669,call1,-0.001388888888888889,-0.2884259259259259,1,0,0,6.146028500050306,colour4,0.37916666666666665,0.09722222222222222,1,0,0,6.846052300010342,number2,True,True,True,15,5,2019_Nov_14_1105,MA_Theta_Exp,3.0.7,59.84694740782024,
video/Experiment/zh_sp07_Ad_Gr_1_NVocInAudio_GlobalThetaInVideo.avi,vocoded,plusVideo,sp07,Ad,Gr,1,4,1,flow/blocks/NVocInAudio_GlobalThetaInVideo_A.csv,,,,,,,,,0,4,4,4,0,23,23,4,,,,,,,,,-0.37083333333333335,0.29212962962962963,1,0,0,4.993274200009182,call1,-0.011111111111111112,0.09490740740740741,1,0,0,5.69230160000734,colour2,0.39305555555555555,0.26805555555555555,1,0,0,6.3096033000038005,number1,True,True,True,15,5,2019_Nov_14_1105,MA_Theta_Exp,3.0.7,59.84694740782024,
video/Experiment/zh_sp01_Dr_Ro_3_NVocInAudio_GlobalThetaInVideo.avi,vocoded,plusVideo,sp01,Dr,Ro,3,4,1,flow/blocks/NVocInAudio_GlobalThetaInVideo_A.csv,,,,,,,,,0,4,4,4,0,24,24,26,,,,,,,,,-0.40555555555555556,0.06944444444444445,1,0,0,5.035378300002776,call2,-0.03194444444444444,-0.1175925925925926,1,0,0,5.7348800000036135,colour3,0.37083333333333335,-0.12453703703703704,1,0,0,6.26191599998856,number3,True,True,True,15,5,2019_Nov_14_1105,MA_Theta_Exp,3.0.7,59.84694740782024,
video/Experiment/zh_sp01_Ad_We_3_NVocInAudio_GlobalThetaInVideo.avi,vocoded,plusVideo,sp01,Ad,We,3,4,1,flow/blocks/NVocInAudio_GlobalThetaInVideo_A.csv,,,,,,,,,0,4,4,4,0,25,25,14,,,,,,,,,-0.3972222222222222,0.31666666666666665,1,0,0,5.198806900007185,call1,-0.02638888888888889,-0.29814814814814816,1,0,0,5.832153099996503,colour4,0.39305555555555555,-0.10555555555555556,1,0,0,6.414607900020201,number3,True,True,True,15,5,2019_Nov_14_1105,MA_Theta_Exp,3.0.7,59.84694740782024,
video/Experiment/zh_sp07_Dr_Ro_1_NVocInAudio_GlobalThetaInVideo.avi,vocoded,plusVideo,sp07,Dr,Ro,1,4,1,flow/blocks/NVocInAudio_GlobalThetaInVideo_A.csv,,,,,,,,,0,4,4,4,0,26,26,24,,,,,,,,,-0.4111111111111111,0.09583333333333334,1,0,0,4.55345840001246,call2,-0.04861111111111111,-0.09259259259259259,1,0,0,5.16859029995976,colour3,0.38472222222222224,0.26944444444444443,1,0,0,5.82267010002397,number1,True,True,True,15,5,2019_Nov_14_1105,MA_Theta_Exp,3.0.7,59.84694740782024,
video/Experiment/zh_sp01_Ad_Gr_4_NVocInAudio_GlobalThetaInVideo.avi,vocoded,plusVideo,sp01,Ad,Gr,4,4,1,flow/blocks/NVocInAudio_GlobalThetaInVideo_A.csv,,,,,,,,,0,4,4,4,0,27,27,7,,,,,,,,,-0.3194444444444444,0.2611111111111111,1,0,0,5.1142066000029445,call1,0.004166666666666667,0.12824074074074074,1,0,0,5.942699599952903,colour2,0.43194444444444446,-0.3648148148148148,1,0,0,7.792085900029633,number4,True,True,True,15,5,2019_Nov_14_1105,MA_Theta_Exp,3.0.7,59.84694740782024,
video/Experiment/zh_sp07_Dr_Ge_4_NVocInAudio_GlobalThetaInVideo.avi,vocoded,plusVideo,sp07,Dr,Ge,4,4,1,flow/blocks/NVocInAudio_GlobalThetaInVideo_A.csv,,,,,,,,,0,4,4,4,0,28,28,19,,,,,,,,,-0.35138888888888886,0.09444444444444444,1,0,0,5.062364300014451,call2,0.027777777777777776,0.28194444444444444,1,0,0,6.013192199985497,colour1,0.4083333333333333,-0.32314814814814813,1,0,0,6.781841000018176,number4,True,True,True,15,5,2019_Nov_14_1105,MA_Theta_Exp,3.0.7,59.84694740782024,
video/Experiment/zh_sp07_Dr_We_1_NVocInAudio_GlobalThetaInVideo.avi,vocoded,plusVideo,sp07,Dr,We,1,4,1,flow/blocks/NVocInAudio_GlobalThetaInVideo_A.csv,,,,,,,,,0,4,4,4,0,29,29,28,,,,,,,,,-0.39166666666666666,0.10555555555555556,1,0,0,4.533176800003275,call2,0.030555555555555555,-0.33425925925925926,1,0,0,5.751440599968191,colour4,0.38472222222222224,0.275,1,0,0,7.002022900036536,number1,True,True,True,15,5,2019_Nov_14_1105,MA_Theta_Exp,3.0.7,59.84694740782024,
video/Experiment/zh_sp07_Ad_Ge_3_NVocInAudio_GlobalThetaInVideo.avi,vocoded,plusVideo,sp07,Ad,Ge,3,4,1,flow/blocks/NVocInAudio_GlobalThetaInVideo_A.csv,,,,,,,,,0,4,4,4,0,30,30,2,,,,,,,,,-0.39305555555555555,0.29444444444444445,1,0,0,4.6033656999934465,call1,-0.030555555555555555,0.31527777777777777,1,0,0,5.183461999986321,colour1,0.3861111111111111,-0.10092592592592593,1,0,0,5.844110100006219,number3,True,True,True,15,5,2019_Nov_14_1105,MA_Theta_Exp,3.0.7,59.84694740782024,
video/Experiment/zh_sp07_Ad_Ro_1_NVocInAudio_GlobalThetaInVideo.avi,vocoded,plusVideo,sp07,Ad,Ro,1,4,1,flow/blocks/NVocInAudio_GlobalThetaInVideo_A.csv,,,,,,,,,0,4,4,4,0,31,31,8,,,,,,,,,-0.3611111111111111,0.27361111111111114,1,0,0,4.90286269999342,call1,0.019444444444444445,0.25833333333333336,1,0,0,6.954963299969677,colour1,0.3638888888888889,0.25972222222222224,1,0,0,7.477070500026457,number1,True,False,True,15,5,2019_Nov_14_1105,MA_Theta_Exp,3.0.7,59.84694740782024,
video/Experiment/zh_sp07_Un_Gr_1_NoThetaInAudio_NoVideo.avi,noTheta,noVideo,sp07,Un,Gr,1,0,4,flow/blocks/NoThetaInAudio_NoVideo_B.csv,,,,,,,,,,,,,,,,,0,0,0,0,0,0,0,20,-0.4,-0.3287037037037037,1,0,0,4.691572000039741,call4,0.002777777777777778,0.08888888888888889,1,0,0,5.310006699990481,colour2,0.4041666666666667,0.30833333333333335,1,0,0,5.810838499979582,number1,True,True,True,15,5,2019_Nov_14_1105,MA_Theta_Exp,3.0.7,59.84694740782024,
video/Experiment/zh_sp07_Ti_We_2_NoThetaInAudio_NoVideo.avi,noTheta,noVideo,sp07,Ti,We,2,0,4,flow/blocks/NoThetaInAudio_NoVideo_B.csv,,,,,,,,,,,,,,,,,0,0,0,0,0,1,1,13,-0.39861111111111114,-0.09444444444444444,1,0,0,5.131159299984574,call3,-0.027777777777777776,-0.29398148148148145,1,0,0,6.314673500019126,colour4,0.3763888888888889,0.10416666666666667,1,0,0,7.002505499986,number2,True,True,True,15,5,2019_Nov_14_1105,MA_Theta_Exp,3.0.7,59.84694740782024,
video/Experiment/zh_sp01_Ti_We_3_NoThetaInAudio_NoVideo.avi,noTheta,noVideo,sp01,Ti,We,3,0,4,flow/blocks/NoThetaInAudio_NoVideo_B.csv,,,,,,,,,,,,,,,,,0,0,0,0,0,2,2,14,-0.4097222222222222,-0.09814814814814815,1,0,0,5.442759099998511,call3,-0.027777777777777776,-0.30787037037037035,1,0,0,6.044701599981636,colour4,0.4083333333333333,-0.1259259259259259,1,0,0,6.8664333000197075,number3,True,True,True,15,5,2019_Nov_14_1105,MA_Theta_Exp,3.0.7,59.84694740782024,
video/Experiment/zh_sp07_Un_Ge_2_NoThetaInAudio_NoVideo.avi,noTheta,noVideo,sp07,Un,Ge,2,0,4,flow/blocks/NoThetaInAudio_NoVideo_B.csv,,,,,,,,,,,,,,,,,0,0,0,0,0,3,3,17,-0.3888888888888889,-0.2912037037037037,1,0,0,4.563016999978572,call4,-0.013888888888888888,0.31527777777777777,1,0,0,5.327950400009286,colour1,0.4263888888888889,0.09907407407407408,1,0,0,6.362583999987692,number2,True,True,True,15,5,2019_Nov_14_1105,MA_Theta_Exp,3.0.7,59.84694740782024,
video/Experiment/zh_sp07_Un_We_3_NoThetaInAudio_NoVideo.avi,noTheta,noVideo,sp07,Un,We,3,0,4,flow/blocks/NoThetaInAudio_NoVideo_B.csv,,,,,,,,,,,,,,,,,0,0,0,0,0,4,4,30,-0.3972222222222222,-0.29814814814814816,1,0,0,4.875399800017476,call4,-0.02361111111111111,-0.3050925925925926,1,0,0,6.186383799999021,colour4,0.40694444444444444,-0.07777777777777778,1,0,0,7.485923000029288,number3,True,True,True,15,5,2019_Nov_14_1105,MA_Theta_Exp,3.0.7,59.84694740782024,
video/Experiment/zh_sp01_Un_Ge_1_NoThetaInAudio_NoVideo.avi,noTheta,noVideo,sp01,Un,Ge,1,0,4,flow/blocks/NoThetaInAudio_NoVideo_B.csv,,,,,,,,,,,,,,,,,0,0,0,0,0,5,5,16,-0.4013888888888889,-0.29953703703703705,1,0,0,5.379595100006554,call4,-0.006944444444444444,0.3125,1,0,0,6.351132300042082,colour1,0.3958333333333333,0.35694444444444445,1,0,0,7.051313699979801,number1,True,True,True,15,5,2019_Nov_14_1105,MA_Theta_Exp,3.0.7,59.84694740782024,
video/Experiment/zh_sp07_Un_Ro_1_NoThetaInAudio_NoVideo.avi,noTheta,noVideo,sp07,Un,Ro,1,0,4,flow/blocks/NoThetaInAudio_NoVideo_B.csv,,,,,,,,,,,,,,,,,0,0,0,0,0,6,6,24,-0.3875,-0.28055555555555556,1,0,0,4.777526699996088,call4,0.022222222222222223,0.30694444444444446,1,0,0,6.810930199979339,colour1,0.39305555555555555,0.3111111111111111,1,0,0,7.899711299978662,number1,True,False,True,15,5,2019_Nov_14_1105,MA_Theta_Exp,3.0.7,59.84694740782024,
video/Experiment/zh_sp07_Un_Ro_3_NoThetaInAudio_NoVideo.avi,noTheta,noVideo,sp07,Un,Ro,3,0,4,flow/blocks/NoThetaInAudio_NoVideo_B.csv,,,,,,,,,,,,,,,,,0,0,0,0,0,7,7,26,-0.40694444444444444,-0.3398148148148148,1,0,0,4.564768599986564,call4,-0.001388888888888889,-0.08287037037037037,1,0,0,5.4618791999528185,colour3,0.37083333333333335,-0.08564814814814815,1,0,0,6.032481100002769,number3,True,True,True,15,5,2019_Nov_14_1105,MA_Theta_Exp,3.0.7,59.84694740782024,
video/Experiment/zh_sp07_Un_Gr_4_NoThetaInAudio_NoVideo.avi,noTheta,noVideo,sp07,Un,Gr,4,0,4,flow/blocks/NoThetaInAudio_NoVideo_B.csv,,,,,,,,,,,,,,,,,0,0,0,0,0,8,8,23,-0.4041666666666667,-0.3263888888888889,1,0,0,5.187163199996576,call4,0.018055555555555554,0.07222222222222222,1,0,0,6.048166599997785,colour2,0.3902777777777778,-0.3333333333333333,1,0,0,6.968462400021963,number4,True,True,True,15,5,2019_Nov_14_1105,MA_Theta_Exp,3.0.7,59.84694740782024,
video/Experiment/zh_sp01_Ti_Gr_1_NoThetaInAudio_NoVideo.avi,noTheta,noVideo,sp01,Ti,Gr,1,0,4,flow/blocks/NoThetaInAudio_NoVideo_B.csv,,,,,,,,,,,,,,,,,0,0,0,0,0,9,9,4,-0.4263888888888889,-0.1375,1,0,0,5.299197699991055,call3,-0.008333333333333333,0.2972222222222222,1,0,0,5.96469969995087,colour1,0.39444444444444443,0.22916666666666666,1,0,0,7.016787100001238,number1,True,False,True,15,5,2019_Nov_14_1105,MA_Theta_Exp,3.0.7,59.84694740782024,
video/Experiment/zh_sp01_Ti_Ro_4_NoThetaInAudio_NoVideo.avi,noTheta,noVideo,sp01,Ti,Ro,4,0,4,flow/blocks/NoThetaInAudio_NoVideo_B.csv,,,,,,,,,,,,,,,,,0,0,0,0,0,10,10,11,-0.4666666666666667,-0.1050925925925926,1,0,0,5.552968600008171,call3,0.02361111111111111,-0.07592592592592592,1,0,0,6.221357899950817,colour3,0.4388888888888889,-0.3333333333333333,1,0,0,7.086100200016517,number4,True,True,True,15,5,2019_Nov_14_1105,MA_Theta_Exp,3.0.7,59.84694740782024,
video/Experiment/zh_sp01_Un_Ro_2_NoThetaInAudio_NoVideo.avi,noTheta,noVideo,sp01,Un,Ro,2,0,4,flow/blocks/NoThetaInAudio_NoVideo_B.csv,,,,,,,,,,,,,,,,,0,0,0,0,0,11,11,25,-0.3861111111111111,-0.33564814814814814,1,0,0,4.96882219996769,call4,0.018055555555555554,-0.11388888888888889,1,0,0,5.615584500017576,colour3,0.41944444444444445,0.0875,1,0,0,6.235331400006544,number2,True,True,True,15,5,2019_Nov_14_1105,MA_Theta_Exp,3.0.7,59.84694740782024,
video/Experiment/zh_sp07_Un_Gr_3_NoThetaInAudio_NoVideo.avi,noTheta,noVideo,sp07,Un,Gr,3,0,4,flow/blocks/NoThetaInAudio_NoVideo_B.csv,,,,,,,,,,,,,,,,,0,0,0,0,0,12,12,22,-0.3888888888888889,-0.33287037037037037,1,0,0,4.600953600020148,call4,-0.006944444444444444,0.09305555555555556,1,0,0,5.267712899949402,colour2,0.39305555555555555,-0.12453703703703704,1,0,0,6.014380700013135,number3,True,True,True,15,5,2019_Nov_14_1105,MA_Theta_Exp,3.0.7,59.84694740782024,
video/Experiment/zh_sp01_Ti_Ge_3_NoThetaInAudio_NoVideo.avi,noTheta,noVideo,sp01,Ti,Ge,3,0,4,flow/blocks/NoThetaInAudio_NoVideo_B.csv,,,,,,,,,,,,,,,,,0,0,0,0,0,13,13,2,-0.41944444444444445,-0.10694444444444444,1,0,0,5.352300099970307,call3,-0.018055555555555554,0.28888888888888886,1,0,0,6.234913900028914,colour1,0.39305555555555555,-0.1162037037037037,1,0,0,6.952532799972687,number3,True,True,True,15,5,2019_Nov_14_1105,MA_Theta_Exp,3.0.7,59.84694740782024,
video/Experiment/zh_sp01_Ti_Ge_2_NoThetaInAudio_NoVideo.avi,noTheta,noVideo,sp01,Ti,Ge,2,0,4,flow/blocks/NoThetaInAudio_NoVideo_B.csv,,,,,,,,,,,,,,,,,0,0,0,0,0,14,14,1,-0.39305555555555555,-0.07916666666666666,1,0,0,5.560101400013082,call3,-0.027777777777777776,0.29444444444444445,1,0,0,6.243082600005437,colour1,0.44583333333333336,0.10601851851851851,1,0,0,6.864699500030838,number2,True,True,True,15,5,2019_Nov_14_1105,MA_Theta_Exp,3.0.7,59.84694740782024,
video/Experiment/zh_sp01_Ti_We_1_NoThetaInAudio_NoVideo.avi,noTheta,noVideo,sp01,Ti,We,1,0,4,flow/blocks/NoThetaInAudio_NoVideo_B.csv,,,,,,,,,,,,,,,,,0,0,0,0,0,15,15,12,-0.3902777777777778,-0.09166666666666666,1,0,0,5.313363900000695,call3,-0.006944444444444444,-0.29398148148148145,1,0,0,6.226034899998922,colour4,0.37916666666666665,0.30694444444444446,1,0,0,6.859745400026441,number1,True,True,True,15,5,2019_Nov_14_1105,MA_Theta_Exp,3.0.7,59.84694740782024,
video/Experiment/zh_sp01_Ti_Ge_4_NoThetaInAudio_NoVideo.avi,noTheta,noVideo,sp01,Ti,Ge,4,0,4,flow/blocks/NoThetaInAudio_NoVideo_B.csv,,,,,,,,,,,,,,,,,0,0,0,0,0,16,16,3,-0.3888888888888889,-0.12453703703703704,1,0,0,5.095748499967158,call3,0.001388888888888889,0.30416666666666664,1,0,0,5.656411300005857,colour1,0.4013888888888889,-0.2773148148148148,1,0,0,6.3184598999796435,number4,True,True,True,15,5,2019_Nov_14_1105,MA_Theta_Exp,3.0.7,59.84694740782024,
video/Experiment/zh_sp01_Ti_Ro_1_NoThetaInAudio_NoVideo.avi,noTheta,noVideo,sp01,Ti,Ro,1,0,4,flow/blocks/NoThetaInAudio_NoVideo_B.csv,,,,,,,,,,,,,,,,,0,0,0,0,0,17,17,8,-0.42777777777777776,-0.10277777777777777,1,0,0,5.289262200007215,call3,-0.034722222222222224,-0.075,1,0,0,5.744116400019266,colour3,0.3819444444444444,0.26666666666666666,1,0,0,6.239527199999429,number1,True,True,True,15,5,2019_Nov_14_1105,MA_Theta_Exp,3.0.7,59.84694740782024,
video/Experiment/zh_sp01_Un_Ro_4_NoThetaInAudio_NoVideo.avi,noTheta,noVideo,sp01,Un,Ro,4,0,4,flow/blocks/NoThetaInAudio_NoVideo_B.csv,,,,,,,,,,,,,,,,,0,0,0,0,0,18,18,27,-0.4013888888888889,-0.30787037037037035,1,0,0,5.246925299987197,call4,0.009722222222222222,-0.10138888888888889,1,0,0,5.833576400007587,colour3,0.3736111111111111,-0.3037037037037037,1,0,0,6.382385300006717,number4,True,True,True,15,5,2019_Nov_14_1105,MA_Theta_Exp,3.0.7,59.84694740782024,
video/Experiment/zh_sp07_Un_Ge_4_NoThetaInAudio_NoVideo.avi,noTheta,noVideo,sp07,Un,Ge,4,0,4,flow/blocks/NoThetaInAudio_NoVideo_B.csv,,,,,,,,,,,,,,,,,0,0,0,0,0,19,19,19,-0.4013888888888889,-0.3189814814814815,1,0,0,5.094368899997789,call4,0.019444444444444445,0.30972222222222223,1,0,0,5.859498100006022,colour1,0.36527777777777776,-0.052314814814814814,1,0,0,6.444519400014542,number3,True,True,False,15,5,2019_Nov_14_1105,MA_Theta_Exp,3.0.7,59.84694740782024,
video/Experiment/zh_sp07_Ti_Gr_4_NoThetaInAudio_NoVideo.avi,noTheta,noVideo,sp07,Ti,Gr,4,0,4,flow/blocks/NoThetaInAudio_NoVideo_B.csv,,,,,,,,,,,,,,,,,0,0,0,0,0,20,20,7,-0.4041666666666667,-0.1398148148148148,1,0,0,5.52823559998069,call3,0.03194444444444444,0.09768518518518518,1,0,0,6.531259799958207,colour2,0.4111111111111111,-0.12731481481481483,1,0,0,7.728511399996933,number3,True,True,False,15,5,2019_Nov_14_1105,MA_Theta_Exp,3.0.7,59.84694740782024,
video/Experiment/zh_sp07_Ti_Ro_3_NoThetaInAudio_NoVideo.avi,noTheta,noVideo,sp07,Ti,Ro,3,0,4,flow/blocks/NoThetaInAudio_NoVideo_B.csv,,,,,,,,,,,,,,,,,0,0,0,0,0,21,21,10,-0.38333333333333336,-0.12638888888888888,1,0,0,4.657219099986833,call3,0.020833333333333332,-0.08194444444444444,1,0,0,5.18737770000007,colour3,0.35833333333333334,-0.08194444444444444,1,0,0,5.6735719999996945,number3,True,True,True,15,5,2019_Nov_14_1105,MA_Theta_Exp,3.0.7,59.84694740782024,
video/Experiment/zh_sp01_Un_Ge_3_NoThetaInAudio_NoVideo.avi,noTheta,noVideo,sp01,Un,Ge,3,0,4,flow/blocks/NoThetaInAudio_NoVideo_B.csv,,,,,,,,,,,,,,,,,0,0,0,0,0,22,22,18,-0.3958333333333333,-0.3148148148148148,1,0,0,5.54171999997925,call4,-0.016666666666666666,0.29444444444444445,1,0,0,6.610391599999275,colour1,0.3736111111111111,-0.07314814814814814,1,0,0,7.495668700023089,number3,True,True,True,15,5,2019_Nov_14_1105,MA_Theta_Exp,3.0.7,59.84694740782024,
video/Experiment/zh_sp01_Un_We_4_NoThetaInAudio_NoVideo.avi,noTheta,noVideo,sp01,Un,We,4,0,4,flow/blocks/NoThetaInAudio_NoVideo_B.csv,,,,,,,,,,,,,,,,,0,0,0,0,0,23,23,31,-0.3888888888888889,-0.2884259259259259,1,0,0,6.08849289995851,call4,0.009722222222222222,-0.29259259259259257,1,0,0,6.926732300024014,colour4,0.4125,-0.11805555555555555,1,0,0,7.593356299970765,number3,True,True,False,15,5,2019_Nov_14_1105,MA_Theta_Exp,3.0.7,59.84694740782024,
video/Experiment/zh_sp01_Ti_Ro_2_NoThetaInAudio_NoVideo.avi,noTheta,noVideo,sp01,Ti,Ro,2,0,4,flow/blocks/NoThetaInAudio_NoVideo_B.csv,,,,,,,,,,,,,,,,,0,0,0,0,0,24,24,9,-0.38055555555555554,-0.09166666666666666,1,0,0,5.159637100005057,call3,-0.013888888888888888,-0.06111111111111111,1,0,0,5.661153100023512,colour3,0.4111111111111111,0.09305555555555556,1,0,0,6.253778200014494,number2,True,True,True,15,5,2019_Nov_14_1105,MA_Theta_Exp,3.0.7,59.84694740782024,
video/Experiment/zh_sp07_Un_We_2_NoThetaInAudio_NoVideo.avi,noTheta,noVideo,sp07,Un,We,2,0,4,flow/blocks/NoThetaInAudio_NoVideo_B.csv,,,,,,,,,,,,,,,,,0,0,0,0,0,25,25,29,-0.3875,-0.30648148148148147,1,0,0,5.268735499994364,call4,-0.020833333333333332,-0.2902777777777778,1,0,0,5.832555199973285,colour4,0.40694444444444444,0.09305555555555556,1,0,0,6.920486800023355,number2,True,True,True,15,5,2019_Nov_14_1105,MA_Theta_Exp,3.0.7,59.84694740782024,
video/Experiment/zh_sp07_Un_We_1_NoThetaInAudio_NoVideo.avi,noTheta,noVideo,sp07,Un,We,1,0,4,flow/blocks/NoThetaInAudio_NoVideo_B.csv,,,,,,,,,,,,,,,,,0,0,0,0,0,26,26,28,-0.4,-0.2986111111111111,1,0,0,4.826742700010072,call4,-0.002777777777777778,-0.2972222222222222,1,0,0,5.680641799990553,colour4,0.375,0.30277777777777776,1,0,0,6.510552600026131,number1,True,True,True,15,5,2019_Nov_14_1105,MA_Theta_Exp,3.0.7,59.84694740782024,
video/Experiment/zh_sp07_Un_Gr_2_NoThetaInAudio_NoVideo.avi,noTheta,noVideo,sp07,Un,Gr,2,0,4,flow/blocks/NoThetaInAudio_NoVideo_B.csv,,,,,,,,,,,,,,,,,0,0,0,0,0,27,27,21,-0.4263888888888889,-0.34814814814814815,1,0,0,4.82269170001382,call4,-0.004166666666666667,0.06805555555555555,1,0,0,5.5310197999933735,colour2,0.39861111111111114,0.10555555555555556,1,0,0,6.105650199984666,number2,True,True,True,15,5,2019_Nov_14_1105,MA_Theta_Exp,3.0.7,59.84694740782024,
video/Experiment/zh_sp07_Ti_We_4_NoThetaInAudio_NoVideo.avi,noTheta,noVideo,sp07,Ti,We,4,0,4,flow/blocks/NoThetaInAudio_NoVideo_B.csv,,,,,,,,,,,,,,,,,0,0,0,0,0,28,28,15,-0.41388888888888886,-0.12453703703703704,1,0,0,5.325862900004722,call3,-0.029166666666666667,-0.3287037037037037,1,0,0,6.093554200022481,colour4,0.3875,-0.14583333333333334,1,0,0,7.942058300017379,number3,True,True,False,15,5,2019_Nov_14_1105,MA_Theta_Exp,3.0.7,59.84694740782024,
video/Experiment/zh_sp01_Ti_Gr_3_NoThetaInAudio_NoVideo.avi,noTheta,noVideo,sp01,Ti,Gr,3,0,4,flow/blocks/NoThetaInAudio_NoVideo_B.csv,,,,,,,,,,,,,,,,,0,0,0,0,0,29,29,6,-0.41805555555555557,-0.10694444444444444,1,0,0,6.155374500027392,call3,-0.015277777777777777,0.1,1,0,0,7.111265999963507,colour2,0.4013888888888889,-0.10787037037037037,1,0,0,7.772627699945588,number3,True,True,True,15,5,2019_Nov_14_1105,MA_Theta_Exp,3.0.7,59.84694740782024,
video/Experiment/zh_sp01_Ti_Ge_1_NoThetaInAudio_NoVideo.avi,noTheta,noVideo,sp01,Ti,Ge,1,0,4,flow/blocks/NoThetaInAudio_NoVideo_B.csv,,,,,,,,,,,,,,,,,0,0,0,0,0,30,30,0,-0.41944444444444445,-0.09537037037037037,1,0,0,5.28433260001475,call3,-0.02361111111111111,0.2916666666666667,1,0,0,5.90523720002966,colour1,0.37777777777777777,0.3,1,0,0,6.406746799999382,number1,True,True,True,15,5,2019_Nov_14_1105,MA_Theta_Exp,3.0.7,59.84694740782024,
video/Experiment/zh_sp07_Ti_Gr_2_NoThetaInAudio_NoVideo.avi,noTheta,noVideo,sp07,Ti,Gr,2,0,4,flow/blocks/NoThetaInAudio_NoVideo_B.csv,,,,,,,,,,,,,,,,,0,0,0,0,0,31,31,5,-0.39444444444444443,-0.10787037037037037,1,0,0,5.741254100052174,call3,-0.027777777777777776,0.075,1,0,0,6.339459999988321,colour2,0.4083333333333333,0.12268518518518519,1,0,0,7.108537499967497,number2,True,True,True,15,5,2019_Nov_14_1105,MA_Theta_Exp,3.0.7,59.84694740782024,
video/Experiment/zh_sp07_Un_Ge_4_GlobalTheta_NoVideo.avi,globalTheta,noVideo,sp07,Un,Ge,4,1,5,flow/blocks/GlobalTheta_NoVideo_B.csv,,,,,,,,,,,,,,,,,0,1,1,1,0,0,0,19,-0.41388888888888886,-0.2898148148148148,1,0,0,4.4065485000028275,call4,0.034722222222222224,0.30277777777777776,1,0,0,5.267322200001217,colour1,0.375,-0.10648148148148148,1,0,0,6.056434700032696,number3,True,True,False,15,5,2019_Nov_14_1105,MA_Theta_Exp,3.0.7,59.84694740782024,
video/Experiment/zh_sp07_Un_Gr_4_GlobalTheta_NoVideo.avi,globalTheta,noVideo,sp07,Un,Gr,4,1,5,flow/blocks/GlobalTheta_NoVideo_B.csv,,,,,,,,,,,,,,,,,0,1,1,1,0,1,1,23,-0.4013888888888889,-0.324537037037037,1,0,0,5.132664000033401,call4,-0.011111111111111112,0.08611111111111111,1,0,0,6.131370399962179,colour2,0.4222222222222222,-0.1037037037037037,1,0,0,6.768941800051834,number3,True,True,False,15,5,2019_Nov_14_1105,MA_Theta_Exp,3.0.7,59.84694740782024,
video/Experiment/zh_sp01_Un_Gr_1_GlobalTheta_NoVideo.avi,globalTheta,noVideo,sp01,Un,Gr,1,1,5,flow/blocks/GlobalTheta_NoVideo_B.csv,,,,,,,,,,,,,,,,,0,1,1,1,0,2,2,20,-0.37916666666666665,-0.31342592592592594,1,0,0,5.235271900019143,call4,0.002777777777777778,0.09444444444444444,1,0,0,5.918424400035292,colour2,0.42916666666666664,0.34305555555555556,1,0,0,6.518385600007605,number1,True,True,True,15,5,2019_Nov_14_1105,MA_Theta_Exp,3.0.7,59.84694740782024,
video/Experiment/zh_sp01_Un_Ro_3_GlobalTheta_NoVideo.avi,globalTheta,noVideo,sp01,Un,Ro,3,1,5,flow/blocks/GlobalTheta_NoVideo_B.csv,,,,,,,,,,,,,,,,,0,1,1,1,0,3,3,26,-0.4305555555555556,-0.3037037037037037,1,0,0,5.432906500005629,call4,-0.019444444444444445,-0.11388888888888889,1,0,0,6.315362800029106,colour3,0.42777777777777776,-0.08611111111111111,1,0,0,7.1027428999659605,number3,True,True,True,15,5,2019_Nov_14_1105,MA_Theta_Exp,3.0.7,59.84694740782024,
video/Experiment/zh_sp07_Ti_We_4_GlobalTheta_NoVideo.avi,globalTheta,noVideo,sp07,Ti,We,4,1,5,flow/blocks/GlobalTheta_NoVideo_B.csv,,,,,,,,,,,,,,,,,0,1,1,1,0,4,4,15,-0.4361111111111111,-0.10833333333333334,1,0,0,5.22730099997716,call3,-0.011111111111111112,-0.29953703703703705,1,0,0,6.218567500007339,colour4,0.45416666666666666,-0.10694444444444444,1,0,0,7.742436100030318,number3,True,True,False,15,5,2019_Nov_14_1105,MA_Theta_Exp,3.0.7,59.84694740782024,
video/Experiment/zh_sp01_Ti_Gr_3_GlobalTheta_NoVideo.avi,globalTheta,noVideo,sp01,Ti,Gr,3,1,5,flow/blocks/GlobalTheta_NoVideo_B.csv,,,,,,,,,,,,,,,,,0,1,1,1,0,5,5,6,-0.4152777777777778,-0.1125,1,0,0,4.873622100043576,call3,0.043055555555555555,0.12083333333333333,1,0,0,5.556959600013215,colour2,0.39166666666666666,-0.09537037037037037,1,0,0,6.208104700024705,number3,True,True,True,15,5,2019_Nov_14_1105,MA_Theta_Exp,3.0.7,59.84694740782024,
video/Experiment/zh_sp01_Un_Ro_4_GlobalTheta_NoVideo.avi,globalTheta,noVideo,sp01,Un,Ro,4,1,5,flow/blocks/GlobalTheta_NoVideo_B.csv,,,,,,,,,,,,,,,,,0,1,1,1,0,6,6,27,-0.3638888888888889,-0.3384259259259259,1,0,0,5.178090600005817,call4,0.006944444444444444,-0.13055555555555556,1,0,0,5.861840899975505,colour3,0.37222222222222223,-0.32592592592592595,1,0,0,7.226127700007055,number4,True,True,True,15,5,2019_Nov_14_1105,MA_Theta_Exp,3.0.7,59.84694740782024,
video/Experiment/zh_sp01_Un_Ro_1_GlobalTheta_NoVideo.avi,globalTheta,noVideo,sp01,Un,Ro,1,1,5,flow/blocks/GlobalTheta_NoVideo_B.csv,,,,,,,,,,,,,,,,,0,1,1,1,0,7,7,24,-0.3763888888888889,-0.29259259259259257,1,0,0,5.2009122999734245,call4,0.008333333333333333,-0.10833333333333334,1,0,0,5.920388200029265,colour3,0.3902777777777778,0.31805555555555554,1,0,0,6.701206800004002,number1,True,True,True,15,5,2019_Nov_14_1105,MA_Theta_Exp,3.0.7,59.84694740782024,
video/Experiment/zh_sp01_Ti_We_3_GlobalTheta_NoVideo.avi,globalTheta,noVideo,sp01,Ti,We,3,1,5,flow/blocks/GlobalTheta_NoVideo_B.csv,,,,,,,,,,,,,,,,,0,1,1,1,0,8,8,14,-0.40555555555555556,-0.13703703703703704,1,0,0,5.810670199978631,call3,-0.04583333333333333,-0.3453703703703704,1,0,0,6.494483100017533,colour4,0.42777777777777776,-0.08055555555555556,1,0,0,7.194150600000285,number3,True,True,True,15,5,2019_Nov_14_1105,MA_Theta_Exp,3.0.7,59.84694740782024,
video/Experiment/zh_sp01_Un_Ge_1_GlobalTheta_NoVideo.avi,globalTheta,noVideo,sp01,Un,Ge,1,1,5,flow/blocks/GlobalTheta_NoVideo_B.csv,,,,,,,,,,,,,,,,,0,1,1,1,0,9,9,16,-0.3763888888888889,-0.32592592592592595,1,0,0,5.321759000013117,call4,0.009722222222222222,0.2569444444444444,1,0,0,5.931597099988721,colour1,0.40694444444444444,0.31527777777777777,1,0,0,6.46125709998887,number1,True,True,True,15,5,2019_Nov_14_1105,MA_Theta_Exp,3.0.7,59.84694740782024,
video/Experiment/zh_sp07_Un_Ge_3_GlobalTheta_NoVideo.avi,globalTheta,noVideo,sp07,Un,Ge,3,1,5,flow/blocks/GlobalTheta_NoVideo_B.csv,,,,,,,,,,,,,,,,,0,1,1,1,0,10,10,18,-0.3972222222222222,-0.3314814814814815,1,0,0,4.6499593000044115,call4,0.03611111111111111,0.28888888888888886,1,0,0,5.384829199989326,colour1,0.37083333333333335,-0.062037037037037036,1,0,0,5.965902100026142,number3,True,True,True,15,5,2019_Nov_14_1105,MA_Theta_Exp,3.0.7,59.84694740782024,
video/Experiment/zh_sp07_Un_Ro_2_GlobalTheta_NoVideo.avi,globalTheta,noVideo,sp07,Un,Ro,2,1,5,flow/blocks/GlobalTheta_NoVideo_B.csv,,,,,,,,,,,,,,,,,0,1,1,1,0,11,11,25,-0.38055555555555554,-0.30648148148148147,1,0,0,4.324012299999595,call4,0.0,0.30694444444444446,1,0,0,5.085012399998959,colour1,0.40694444444444444,0.09490740740740741,1,0,0,5.751157999970019,number2,True,False,True,15,5,2019_Nov_14_1105,MA_Theta_Exp,3.0.7,59.84694740782024,
video/Experiment/zh_sp07_Ti_Gr_4_GlobalTheta_NoVideo.avi,globalTheta,noVideo,sp07,Ti,Gr,4,1,5,flow/blocks/GlobalTheta_NoVideo_B.csv,,,,,,,,,,,,,,,,,0,1,1,1,0,12,12,7,-0.40694444444444444,-0.13842592592592592,1,0,0,4.975566000037361,call3,0.0125,0.10416666666666667,1,0,0,6.205209199979436,colour2,0.41388888888888886,-0.32037037037037036,1,0,0,7.023048999952152,number4,True,True,True,15,5,2019_Nov_14_1105,MA_Theta_Exp,3.0.7,59.84694740782024,
video/Experiment/zh_sp07_Ti_We_1_GlobalTheta_NoVideo.avi,globalTheta,noVideo,sp07,Ti,We,1,1,5,flow/blocks/GlobalTheta_NoVideo_B.csv,,,,,,,,,,,,,,,,,0,1,1,1,0,13,13,12,-0.3611111111111111,-0.08287037037037037,1,0,0,5.054925200005528,call3,0.011111111111111112,0.0875,1,0,0,5.9555676999734715,colour2,0.41388888888888886,0.2625,1,0,0,6.6895204000175,number1,True,False,True,15,5,2019_Nov_14_1105,MA_Theta_Exp,3.0.7,59.84694740782024,
video/Experiment/zh_sp07_Ti_Gr_2_GlobalTheta_NoVideo.avi,globalTheta,noVideo,sp07,Ti,Gr,2,1,5,flow/blocks/GlobalTheta_NoVideo_B.csv,,,,,,,,,,,,,,,,,0,1,1,1,0,14,14,5,-0.3680555555555556,-0.11203703703703703,1,0,0,4.28246349998517,call3,0.020833333333333332,0.08194444444444444,1,0,0,4.84490220004227,colour2,0.3416666666666667,0.10694444444444444,1,0,0,5.413238000008278,number2,True,True,True,15,5,2019_Nov_14_1105,MA_Theta_Exp,3.0.7,59.84694740782024,
