audiofile,trials.thisRepN,trials.thisTrialN,trials.thisN,trials.thisIndex,instrTrainText.started,instrTrainText.stopped,blockStart.started,blockStart.stopped,sound_1.started,sound_1.stopped,fixation.started,fixation.stopped,screenAfterAudio.started,screenAfterAudio.stopped,pp_start.started,pp_start.stopped,pp_start_2.started,pp_start_2.stopped,participant,order,date,expName,psychopyVersion,frameRate,
audio/click_beep.wav,0,0,0,38,22.745145899993076,None,23.145091499995033,None,23.461731279997185,None,23.478364299997338,24.49461109999538,24.49461109999538,None,23.478364299997338,23.49488679999922,23.544924199995876,23.561513199994806,audioTimingTest,1,2023-04-12_10h25.01.513,SentenceInNoise,2022.1.3,59.914250724454334,
audio/click_beep.wav,0,1,1,189,,,,,25.460582259996592,None,25.460951599998225,26.477183099996182,26.477183099996182,25.460951599998225,25.460951599998225,25.47761179999361,25.527878999993845,25.544330799995805,audioTimingTest,1,2023-04-12_10h25.01.513,SentenceInNoise,2022.1.3,59.914250724454334,
audio/click_beep.wav,0,2,2,159,,,,,27.443578559997697,None,27.44358129999455,28.459741399994527,28.459741399994527,27.44358129999455,27.44358129999455,27.46019399999932,27.51036159999785,27.526886999999988,audioTimingTest,1,2023-04-12_10h25.01.513,SentenceInNoise,2022.1.3,59.914250724454334,
audio/click_beep.wav,0,3,3,49,,,,,29.42641765999506,None,29.426496699998097,30.442620499998156,30.442620499998156,29.426496699998097,29.426496699998097,29.442868799997086,29.492888199994923,29.509695799999463,audioTimingTest,1,2023-04-12_10h25.01.513,SentenceInNoise,2022.1.3,59.914250724454334,
audio/click_beep.wav,0,4,4,175,,,,,31.408904259993143,None,31.409072399997967,32.425369599994156,32.425369599994156,31.409072399997967,31.409072399997967,31.425680399996054,31.476011999999173,31.492411999999604,audioTimingTest,1,2023-04-12_10h25.01.513,SentenceInNoise,2022.1.3,59.914250724454334,
audio/click_beep.wav,0,5,5,132,,,,,33.39155245999937,None,33.39185649999854,34.40794399999868,34.40794399999868,33.39185649999854,33.39185649999854,33.40823079999973,33.458328099994105,33.47550059999776,audioTimingTest,1,2023-04-12_10h25.01.513,SentenceInNoise,2022.1.3,59.914250724454334,
audio/click_beep.wav,0,6,6,115,,,,,35.37448665999327,None,35.37411369999609,36.3902850999948,36.3902850999948,35.37411369999609,35.37411369999609,35.39081339999393,35.44081719999667,35.45735249999416,audioTimingTest,1,2023-04-12_10h25.01.513,SentenceInNoise,2022.1.3,59.914250724454334,
audio/click_beep.wav,0,7,7,135,,,,,37.35695555999482,None,37.3570269999982,38.3730196999968,38.3730196999968,37.3570269999982,37.3570269999982,37.373594999997295,37.423553099994024,37.44042649999756,audioTimingTest,1,2023-04-12_10h25.01.513,SentenceInNoise,2022.1.3,59.914250724454334,
audio/click_beep.wav,0,8,8,161,,,,,39.33939295999662,None,39.33954079999967,40.37234439999884,40.37234439999884,39.33954079999967,39.33954079999967,39.356575099998736,39.40643309999723,39.423189999994065,audioTimingTest,1,2023-04-12_10h25.01.513,SentenceInNoise,2022.1.3,59.914250724454334,
audio/click_beep.wav,0,9,9,160,,,,,41.322085159995915,None,41.32220519999828,42.355533699999796,42.355533699999796,41.32220519999828,41.32220519999828,41.33872359999805,41.38901889999397,41.405602999999246,audioTimingTest,1,2023-04-12_10h25.01.513,SentenceInNoise,2022.1.3,59.914250724454334,
audio/click_beep.wav,0,10,10,82,,,,,43.305103659998714,None,43.30520919999981,44.32135229999403,44.32135229999403,43.30520919999981,43.30520919999981,43.3216473999928,43.371713499996986,43.38848379999399,audioTimingTest,1,2023-04-12_10h25.01.513,SentenceInNoise,2022.1.3,59.914250724454334,
audio/click_beep.wav,0,11,11,112,,,,,45.288148259996525,None,45.287908399994194,46.3038360999999,46.3038360999999,45.287908399994194,45.287908399994194,45.30444019999413,45.35491449999972,45.371782799993525,audioTimingTest,1,2023-04-12_10h25.01.513,SentenceInNoise,2022.1.3,59.914250724454334,
audio/click_beep.wav,0,12,12,3,,,,,47.270063859997755,None,47.27068139999756,48.28696769999806,48.28696769999806,47.27068139999756,47.27068139999756,47.28717119999783,47.337193199993635,47.353769499997725,audioTimingTest,1,2023-04-12_10h25.01.513,SentenceInNoise,2022.1.3,59.914250724454334,
audio/click_beep.wav,0,13,13,105,,,,,49.2533869599989,None,49.25289389999671,50.2692104999951,50.2692104999951,49.25289389999671,49.25289389999671,49.269621799998276,49.31943749999482,49.33704399999988,audioTimingTest,1,2023-04-12_10h25.01.513,SentenceInNoise,2022.1.3,59.914250724454334,
audio/click_beep.wav,0,14,14,53,,,,,51.23590505999673,None,51.235692699992796,52.25187029999506,52.25187029999506,51.235692699992796,51.235692699992796,51.25223769999866,51.30211999999301,51.31872439999279,audioTimingTest,1,2023-04-12_10h25.01.513,SentenceInNoise,2022.1.3,59.914250724454334,
audio/click_beep.wav,0,15,15,39,,,,,53.21834805999752,None,53.218380099999194,54.234980199995334,54.234980199995334,53.218380099999194,53.218380099999194,53.23521129999426,53.285234899994975,53.30162929999642,audioTimingTest,1,2023-04-12_10h25.01.513,SentenceInNoise,2022.1.3,59.914250724454334,
audio/click_beep.wav,0,16,16,165,,,,,55.20098795999875,None,55.20129629999428,56.2340297999981,56.2340297999981,55.20129629999428,55.20129629999428,55.2178344999993,55.268008199993346,55.2844030999986,audioTimingTest,1,2023-04-12_10h25.01.513,SentenceInNoise,2022.1.3,59.914250724454334,
audio/click_beep.wav,0,17,17,96,,,,,57.18386565999899,None,57.18393859999924,58.21710359999997,58.21710359999997,57.18393859999924,57.18393859999924,57.20053609999741,57.25049799999397,57.267315499993856,audioTimingTest,1,2023-04-12_10h25.01.513,SentenceInNoise,2022.1.3,59.914250724454334,
audio/click_beep.wav,0,18,18,1,,,,,59.166454159994466,None,59.16641989999334,60.19953749999695,60.19953749999695,59.16641989999334,59.16641989999334,59.18284979999589,59.232874899993476,59.24971049999294,audioTimingTest,1,2023-04-12_10h25.01.513,SentenceInNoise,2022.1.3,59.914250724454334,
audio/click_beep.wav,0,19,19,179,,,,,61.14884975999812,None,61.149086399993394,62.182298899999296,62.182298899999296,61.149086399993394,61.149086399993394,61.165673899995454,61.21574259999761,61.23252649999631,audioTimingTest,1,2023-04-12_10h25.01.513,SentenceInNoise,2022.1.3,59.914250724454334,
audio/click_beep.wav,0,20,20,170,,,,,63.13245365999828,None,63.13249799999903,64.14792609999859,64.14792609999859,63.13249799999903,63.13249799999903,63.148738500000036,63.19883089999348,63.21549789999699,audioTimingTest,1,2023-04-12_10h25.01.513,SentenceInNoise,2022.1.3,59.914250724454334,
audio/click_beep.wav,0,21,21,11,,,,,65.11441865999731,None,65.11447950000002,66.13092059999326,66.13092059999326,65.11447950000002,65.11447950000002,65.13115459999972,65.18101909999677,65.19757089999621,audioTimingTest,1,2023-04-12_10h25.01.513,SentenceInNoise,2022.1.3,59.914250724454334,
audio/click_beep.wav,0,22,22,24,,,,,67.09730785999781,None,67.09754869999597,68.11363129999518,68.11363129999518,67.09754869999597,67.09754869999597,67.11400509999658,67.16389929999423,67.18066729999555,audioTimingTest,1,2023-04-12_10h25.01.513,SentenceInNoise,2022.1.3,59.914250724454334,
audio/click_beep.wav,0,23,23,4,,,,,69.07980015999564,None,69.08004229999642,70.0962331999981,70.0962331999981,69.08004229999642,69.08004229999642,69.09668259999307,69.14662339999632,69.16335459999391,audioTimingTest,1,2023-04-12_10h25.01.513,SentenceInNoise,2022.1.3,59.914250724454334,
audio/click_beep.wav,0,24,24,30,,,,,71.0624072599945,None,71.06290849999641,72.07938339999964,72.07938339999964,71.06290849999641,71.06290849999641,71.07936699999846,71.12977869999304,71.14604469999904,audioTimingTest,1,2023-04-12_10h25.01.513,SentenceInNoise,2022.1.3,59.914250724454334,
audio/click_beep.wav,0,25,25,158,,,,,73.045001459997,None,73.04520739999862,74.0613599999997,74.0613599999997,73.04520739999862,73.04520739999862,73.06188569999358,73.11184539999522,73.12851699999737,audioTimingTest,1,2023-04-12_10h25.01.513,SentenceInNoise,2022.1.3,59.914250724454334,
audio/click_beep.wav,0,26,26,94,,,,,75.02828235999695,None,75.02801709999767,76.06093689999398,76.06093689999398,75.02801709999767,75.02801709999767,75.04465429999982,75.09474199999386,75.11134719999973,audioTimingTest,1,2023-04-12_10h25.01.513,SentenceInNoise,2022.1.3,59.914250724454334,
audio/click_beep.wav,0,27,27,98,,,,,77.01107745999397,None,77.01081719999638,78.04388329999347,78.04388329999347,77.01081719999638,77.01081719999638,77.02756929999305,77.07723179999448,77.09396999999444,audioTimingTest,1,2023-04-12_10h25.01.513,SentenceInNoise,2022.1.3,59.914250724454334,
audio/click_beep.wav,0,28,28,168,,,,,78.99337005999914,None,78.99348809999356,80.02621589999762,80.02621589999762,78.99348809999356,78.99348809999356,79.01016339999478,79.0600112999964,79.07697519999783,audioTimingTest,1,2023-04-12_10h25.01.513,SentenceInNoise,2022.1.3,59.914250724454334,
audio/click_beep.wav,0,29,29,0,,,,,80.97612595999598,None,80.97616829999606,81.99229419999756,81.99229419999756,80.97616829999606,80.97616829999606,80.99273899999389,81.04294919999666,81.05960029999551,audioTimingTest,1,2023-04-12_10h25.01.513,SentenceInNoise,2022.1.3,59.914250724454334,
audio/click_beep.wav,0,30,30,33,,,,,82.95902915999395,None,82.9589635999946,83.97562229999312,83.97562229999312,82.9589635999946,82.9589635999946,82.97541939999792,83.02538059999642,83.04205039999943,audioTimingTest,1,2023-04-12_10h25.01.513,SentenceInNoise,2022.1.3,59.914250724454334,
audio/click_beep.wav,0,31,31,69,,,,,84.94109475999502,None,84.9412691999969,85.95758859999478,85.95758859999478,84.9412691999969,84.9412691999969,84.95795299999736,85.00831049999397,85.02462519999972,audioTimingTest,1,2023-04-12_10h25.01.513,SentenceInNoise,2022.1.3,59.914250724454334,
audio/click_beep.wav,0,32,32,71,,,,,86.92374705999609,None,86.92397329999949,87.9403819999934,87.9403819999934,86.92397329999949,86.92397329999949,86.94066859999293,86.99056149999524,87.00720429999637,audioTimingTest,1,2023-04-12_10h25.01.513,SentenceInNoise,2022.1.3,59.914250724454334,
audio/click_beep.wav,0,33,33,127,,,,,88.90658415999278,None,88.90655109999352,89.92300019999675,89.92300019999675,88.90655109999352,88.90655109999352,88.9231409999993,88.97307099999307,88.98987459999626,audioTimingTest,1,2023-04-12_10h25.01.513,SentenceInNoise,2022.1.3,59.914250724454334,
audio/click_beep.wav,0,34,34,149,,,,,90.88946815999734,None,90.88969159999397,91.90595949999988,91.90595949999988,90.88969159999397,90.88969159999397,90.9063285999946,90.95617439999478,90.97301309999602,audioTimingTest,1,2023-04-12_10h25.01.513,SentenceInNoise,2022.1.3,59.914250724454334,
audio/click_beep.wav,0,35,35,41,,,,,92.87199155999915,None,92.87226559999544,93.8883527999933,93.8883527999933,92.87226559999544,92.87226559999544,92.888924699997,92.93896979999408,92.9554735999991,audioTimingTest,1,2023-04-12_10h25.01.513,SentenceInNoise,2022.1.3,59.914250724454334,
audio/click_beep.wav,0,36,36,106,,,,,94.85469045999852,None,94.85489879999659,95.88759149999532,95.88759149999532,94.85489879999659,94.85489879999659,94.8715549999979,94.92140359999757,94.93870389999938,audioTimingTest,1,2023-04-12_10h25.01.513,SentenceInNoise,2022.1.3,59.914250724454334,
audio/click_beep.wav,0,37,37,75,,,,,96.8373968599968,None,96.83756919999723,97.8704718999943,97.8704718999943,96.83756919999723,96.83756919999723,96.85436109999864,96.90418869999849,96.92105879999872,audioTimingTest,1,2023-04-12_10h25.01.513,SentenceInNoise,2022.1.3,59.914250724454334,
audio/click_beep.wav,0,38,38,194,,,,,98.82026985999764,None,98.82012649999524,99.85306739999942,99.85306739999942,98.82012649999524,98.82012649999524,98.83675319999747,98.88686179999786,98.90370009999606,audioTimingTest,1,2023-04-12_10h25.01.513,SentenceInNoise,2022.1.3,59.914250724454334,
audio/click_beep.wav,0,39,39,61,,,,,100.802662459993,None,100.80265619999409,101.81926819999353,101.81926819999353,100.80265619999409,100.80265619999409,100.81939879999845,100.869291899995,100.88612729999295,audioTimingTest,1,2023-04-12_10h25.01.513,SentenceInNoise,2022.1.3,59.914250724454334,
audio/click_beep.wav,0,40,40,147,,,,,102.78567745999825,None,102.78576539999631,103.80164149999473,103.80164149999473,102.78576539999631,102.78576539999631,102.80217019999691,102.85226379999949,102.86883529999614,audioTimingTest,1,2023-04-12_10h25.01.513,SentenceInNoise,2022.1.3,59.914250724454334,
audio/click_beep.wav,0,41,41,109,,,,,104.76820915999778,None,104.76833069999702,105.78449169999658,105.78449169999658,104.76833069999702,104.76833069999702,104.78468389999762,104.83498099999997,104.85150119999889,audioTimingTest,1,2023-04-12_10h25.01.513,SentenceInNoise,2022.1.3,59.914250724454334,
audio/click_beep.wav,0,42,42,146,,,,,106.75099595999708,None,106.75110659999336,107.76717199999985,107.76717199999985,106.75110659999336,106.75110659999336,106.76767819999804,106.81788659999438,106.83474069999647,audioTimingTest,1,2023-04-12_10h25.01.513,SentenceInNoise,2022.1.3,59.914250724454334,
audio/click_beep.wav,0,43,43,100,,,,,108.7335601599967,None,108.73366909999459,109.74980239999422,109.74980239999422,108.73366909999459,108.73366909999459,108.75050019999617,108.80032889999711,108.81775339999876,audioTimingTest,1,2023-04-12_10h25.01.513,SentenceInNoise,2022.1.3,59.914250724454334,
audio/click_beep.wav,0,44,44,193,,,,,110.71640435999652,None,110.71660799999518,111.73253479999403,111.73253479999403,110.71660799999518,110.71660799999518,110.73296989999653,110.78295529999741,110.79990319999342,audioTimingTest,1,2023-04-12_10h25.01.513,SentenceInNoise,2022.1.3,59.914250724454334,
audio/click_beep.wav,0,45,45,74,,,,,112.6989411599985,None,112.69904919999681,113.73169579999376,113.73169579999376,112.69904919999681,112.69904919999681,112.71621569999843,112.7657412999979,112.78251739999541,audioTimingTest,1,2023-04-12_10h25.01.513,SentenceInNoise,2022.1.3,59.914250724454334,
audio/click_beep.wav,0,46,46,78,,,,,114.68163115999559,None,114.68167569999787,115.71485689999827,115.71485689999827,114.68167569999787,114.68167569999787,114.69834309999715,114.74822519999725,114.76518079999369,audioTimingTest,1,2023-04-12_10h25.01.513,SentenceInNoise,2022.1.3,59.914250724454334,
audio/click_beep.wav,0,47,47,9,,,,,116.66457405999753,None,116.66449129999819,117.68071729999792,117.68071729999792,116.66449129999819,116.66449129999819,116.6810314999966,116.73075679999602,116.74759189999895,audioTimingTest,1,2023-04-12_10h25.01.513,SentenceInNoise,2022.1.3,59.914250724454334,
audio/click_beep.wav,0,48,48,116,,,,,118.64687715999534,None,118.64718819999689,119.66303329999937,119.66303329999937,118.64718819999689,118.64718819999689,118.66380260000005,118.7136207999938,118.73042109999369,audioTimingTest,1,2023-04-12_10h25.01.513,SentenceInNoise,2022.1.3,59.914250724454334,
audio/click_beep.wav,0,49,49,166,,,,,120.62963225999337,None,120.629798199996,121.64610459999676,121.64610459999676,120.629798199996,120.629798199996,120.64634319999459,120.69637469999725,120.71339619999344,audioTimingTest,1,2023-04-12_10h25.01.513,SentenceInNoise,2022.1.3,59.914250724454334,
audio/click_beep.wav,0,50,50,169,,,,,122.61268055999753,None,122.61252249999961,123.62877809999918,123.62877809999918,122.61252249999961,122.61252249999961,122.62915239999711,122.67908139999781,122.69580270000006,audioTimingTest,1,2023-04-12_10h25.01.513,SentenceInNoise,2022.1.3,59.914250724454334,
audio/click_beep.wav,0,51,51,177,,,,,124.59499335999644,None,124.59503519999998,125.61138289999508,125.61138289999508,124.59503519999998,124.59503519999998,124.61154119999992,124.661603499997,124.67820729999949,audioTimingTest,1,2023-04-12_10h25.01.513,SentenceInNoise,2022.1.3,59.914250724454334,
audio/click_beep.wav,0,52,52,167,,,,,126.57761045999868,None,126.57787559999997,127.59400359999563,127.59400359999563,126.57787559999997,126.57787559999997,126.59438339999906,126.64435569999478,126.66113319999567,audioTimingTest,1,2023-04-12_10h25.01.513,SentenceInNoise,2022.1.3,59.914250724454334,
audio/click_beep.wav,0,53,53,101,,,,,128.5602731599989,None,128.56071299999894,129.57669179999357,129.57669179999357,128.56071299999894,128.56071299999894,128.57737209999323,128.6271512999956,128.64384929999505,audioTimingTest,1,2023-04-12_10h25.01.513,SentenceInNoise,2022.1.3,59.914250724454334,
audio/click_beep.wav,0,54,54,183,,,,,130.54314995999957,None,130.5433028999978,131.5759248999966,131.5759248999966,130.5433028999978,130.5433028999978,130.55990209999436,130.61022319999756,130.62651259999984,audioTimingTest,1,2023-04-12_10h25.01.513,SentenceInNoise,2022.1.3,59.914250724454334,
audio/click_beep.wav,0,55,55,111,,,,,132.52556825999417,None,132.52600829999574,133.5588706999988,133.5588706999988,132.52600829999574,132.52600829999574,132.54255789999297,132.59255129999656,132.60905329999514,audioTimingTest,1,2023-04-12_10h25.01.513,SentenceInNoise,2022.1.3,59.914250724454334,
audio/click_beep.wav,0,56,56,122,,,,,134.50865505999317,None,134.508679999999,135.54140729999926,135.54140729999926,134.508679999999,134.508679999999,134.52558139999746,134.57551099999546,134.59192799999437,audioTimingTest,1,2023-04-12_10h25.01.513,SentenceInNoise,2022.1.3,59.914250724454334,
audio/click_beep.wav,0,57,57,26,,,,,136.49086475999283,None,136.49101869999868,137.50727019999613,137.50727019999613,136.49101869999868,136.49101869999868,136.50774029999593,136.5577318999931,136.57443619999685,audioTimingTest,1,2023-04-12_10h25.01.513,SentenceInNoise,2022.1.3,59.914250724454334,
audio/click_beep.wav,0,58,58,86,,,,,138.47396975999945,None,138.47400549999293,139.49032559999614,139.49032559999614,138.47400549999293,138.47400549999293,138.49064049999288,138.54054479999468,138.5574459999989,audioTimingTest,1,2023-04-12_10h25.01.513,SentenceInNoise,2022.1.3,59.914250724454334,
audio/click_beep.wav,0,59,59,44,,,,,140.45635475999515,None,140.45671389999916,141.47297029999754,141.47297029999754,140.45671389999916,140.45671389999916,140.47368709999864,140.52324209999642,140.539927299993,audioTimingTest,1,2023-04-12_10h25.01.513,SentenceInNoise,2022.1.3,59.914250724454334,
audio/click_beep.wav,0,60,60,198,,,,,142.4394183599994,None,142.4394378999932,143.45569899999828,143.45569899999828,142.4394378999932,142.4394378999932,142.45606369999587,142.50596589999623,142.52257439999812,audioTimingTest,1,2023-04-12_10h25.01.513,SentenceInNoise,2022.1.3,59.914250724454334,
audio/click_beep.wav,0,61,61,131,,,,,144.42222395999633,None,144.42205659999308,145.4380885999999,145.4380885999999,144.42205659999308,144.42205659999308,144.43877139999677,144.4884982999938,144.5055177999966,audioTimingTest,1,2023-04-12_10h25.01.513,SentenceInNoise,2022.1.3,59.914250724454334,
audio/click_beep.wav,0,62,62,83,,,,,146.40440855999404,None,146.4049523999929,147.42108399999415,147.42108399999415,146.4049523999929,146.4049523999929,146.42156549999345,146.47150699999474,146.48794759999873,audioTimingTest,1,2023-04-12_10h25.01.513,SentenceInNoise,2022.1.3,59.914250724454334,
audio/click_beep.wav,0,63,63,19,,,,,148.38744375999303,None,148.38748449999548,149.42004089999682,149.42004089999682,148.38748449999548,148.38748449999548,148.4040418999939,148.45402379999723,148.47067699999752,audioTimingTest,1,2023-04-12_10h25.01.513,SentenceInNoise,2022.1.3,59.914250724454334,
audio/click_beep.wav,0,64,64,68,,,,,150.3702966599936,None,150.3700569999928,151.40271199999552,151.40271199999552,150.3700569999928,150.3700569999928,150.38663599999563,150.4366763999933,150.45327749999706,audioTimingTest,1,2023-04-12_10h25.01.513,SentenceInNoise,2022.1.3,59.914250724454334,
audio/click_beep.wav,0,65,65,136,,,,,152.35268255999617,None,152.3528315999938,153.36889489999885,153.36889489999885,152.3528315999938,152.3528315999938,152.36938079999527,152.41955239999515,152.43606709999585,audioTimingTest,1,2023-04-12_10h25.01.513,SentenceInNoise,2022.1.3,59.914250724454334,
audio/click_beep.wav,0,66,66,97,,,,,154.3356179599992,None,154.3355373999948,155.35184209999716,155.35184209999716,154.3355373999948,154.3355373999948,154.35197699999844,154.40193379999982,154.4186935999969,audioTimingTest,1,2023-04-12_10h25.01.513,SentenceInNoise,2022.1.3,59.914250724454334,
audio/click_beep.wav,0,67,67,102,,,,,156.3179230599977,None,156.31818409999687,157.33416179999767,157.33416179999767,156.31818409999687,156.31818409999687,156.3347505999991,156.38472299999557,156.40126709999458,audioTimingTest,1,2023-04-12_10h25.01.513,SentenceInNoise,2022.1.3,59.914250724454334,
audio/click_beep.wav,0,68,68,10,,,,,158.30062755999606,None,158.30069399999775,159.31703209999978,159.31703209999978,158.30069399999775,158.30069399999775,158.3173547999977,158.36739869999292,158.384183999995,audioTimingTest,1,2023-04-12_10h25.01.513,SentenceInNoise,2022.1.3,59.914250724454334,
audio/click_beep.wav,0,69,69,118,,,,,160.28337115999383,None,160.28357109999342,161.29941809999582,161.29941809999582,160.28357109999342,160.28357109999342,160.30010689999472,160.3499348999976,160.366689399998,audioTimingTest,1,2023-04-12_10h25.01.513,SentenceInNoise,2022.1.3,59.914250724454334,
audio/click_beep.wav,0,70,70,103,,,,,162.2661166599988,None,162.26582089999283,163.2823239999998,163.2823239999998,162.26582089999283,162.26582089999283,162.28267779999442,162.33320859999367,162.34980689999793,audioTimingTest,1,2023-04-12_10h25.01.513,SentenceInNoise,2022.1.3,59.914250724454334,
audio/click_beep.wav,0,71,71,130,,,,,164.2487114599986,None,164.24893999999767,165.2816010999959,165.2816010999959,164.24893999999767,164.24893999999767,164.26542629999312,164.31592989999626,164.3327688999998,audioTimingTest,1,2023-04-12_10h25.01.513,SentenceInNoise,2022.1.3,59.914250724454334,
audio/click_beep.wav,0,72,72,45,,,,,166.23135625999348,None,166.23162539999612,167.2644208999991,167.2644208999991,166.23162539999612,166.23162539999612,166.2482017999937,166.29837929999485,166.31486959999893,audioTimingTest,1,2023-04-12_10h25.01.513,SentenceInNoise,2022.1.3,59.914250724454334,
audio/click_beep.wav,0,73,73,89,,,,,168.21386595999283,None,168.214347299996,169.24754259999463,169.24754259999463,168.214347299996,168.214347299996,168.2308933999957,168.2808647999991,168.29766619999282,audioTimingTest,1,2023-04-12_10h25.01.513,SentenceInNoise,2022.1.3,59.914250724454334,
audio/click_beep.wav,0,74,74,46,,,,,170.1968023599962,None,170.19656339999347,171.22996669999702,171.22996669999702,170.19656339999347,170.19656339999347,170.21340049999708,170.2636057999989,170.2799984999947,audioTimingTest,1,2023-04-12_10h25.01.513,SentenceInNoise,2022.1.3,59.914250724454334,
audio/click_beep.wav,0,75,75,95,,,,,172.17914205999622,None,172.1793544999964,173.19640949999302,173.19640949999302,172.1793544999964,172.1793544999964,172.19608799999696,172.24631069999305,172.26310059999378,audioTimingTest,1,2023-04-12_10h25.01.513,SentenceInNoise,2022.1.3,59.914250724454334,
audio/click_beep.wav,0,76,76,5,,,,,174.1620987599941,None,174.16224809999403,175.17844709999918,175.17844709999918,174.16224809999403,174.16224809999403,174.1787284999955,174.22870809999586,174.24561209999956,audioTimingTest,1,2023-04-12_10h25.01.513,SentenceInNoise,2022.1.3,59.914250724454334,
audio/click_beep.wav,0,77,77,60,,,,,176.14475775999526,None,176.14460909999616,177.16128209999442,177.16128209999442,176.14460909999616,176.14460909999616,176.16136769999866,176.21134539999912,176.2281187999979,audioTimingTest,1,2023-04-12_10h25.01.513,SentenceInNoise,2022.1.3,59.914250724454334,
audio/click_beep.wav,0,78,78,190,,,,,178.1275033599937,None,178.12762089999887,179.14410599999974,179.14410599999974,178.12762089999887,178.12762089999887,178.14433899999858,178.19458029999805,178.21105369999714,audioTimingTest,1,2023-04-12_10h25.01.513,SentenceInNoise,2022.1.3,59.914250724454334,
audio/click_beep.wav,0,79,79,121,,,,,180.11024995999978,None,180.11024679999537,181.12654289999773,181.12654289999773,180.11024679999537,180.11024679999537,180.12659949999943,180.17668359999516,180.19371559999854,audioTimingTest,1,2023-04-12_10h25.01.513,SentenceInNoise,2022.1.3,59.914250724454334,
audio/click_beep.wav,0,80,80,51,,,,,182.09302075999366,None,182.0930162999939,183.1256346999944,183.1256346999944,182.0930162999939,182.0930162999939,182.1096516999969,182.15962329999456,182.1762785999963,audioTimingTest,1,2023-04-12_10h25.01.513,SentenceInNoise,2022.1.3,59.914250724454334,
audio/click_beep.wav,0,81,81,36,,,,,184.07575905999474,None,184.07566629999928,185.091711699999,185.091711699999,184.07566629999928,184.07566629999928,184.09239759999764,184.14252219999616,184.1593342999986,audioTimingTest,1,2023-04-12_10h25.01.513,SentenceInNoise,2022.1.3,59.914250724454334,
audio/click_beep.wav,0,82,82,70,,,,,186.0586058599998,None,186.05844409999554,187.09116240000003,187.09116240000003,186.05844409999554,186.05844409999554,186.0753956999979,186.1251043999946,186.141836099996,audioTimingTest,1,2023-04-12_10h25.01.513,SentenceInNoise,2022.1.3,59.914250724454334,
audio/click_beep.wav,0,83,83,133,,,,,188.0406941599991,None,188.04079959999945,189.07397849999688,189.07397849999688,188.04079959999945,188.04079959999945,188.0577462999936,188.10770879999473,188.1243389999945,audioTimingTest,1,2023-04-12_10h25.01.513,SentenceInNoise,2022.1.3,59.914250724454334,
audio/click_beep.wav,0,84,84,143,,,,,190.02339455999535,None,190.02369769999495,191.03985949999333,191.03985949999333,190.02369769999495,190.02369769999495,190.04001569999673,190.09051679999538,190.1069920999944,audioTimingTest,1,2023-04-12_10h25.01.513,SentenceInNoise,2022.1.3,59.914250724454334,
audio/click_beep.wav,0,85,85,88,,,,,192.0059727599997,None,192.00641699999687,193.02274979999493,193.02274979999493,192.00641699999687,192.00641699999687,192.0232110999932,192.073003599995,192.0896192999935,audioTimingTest,1,2023-04-12_10h25.01.513,SentenceInNoise,2022.1.3,59.914250724454334,
audio/click_beep.wav,0,86,86,43,,,,,193.988816759998,None,193.98919769999338,195.00563639999746,195.00563639999746,193.98919769999338,193.98919769999338,194.00580689999333,194.0561172999951,194.07272219999868,audioTimingTest,1,2023-04-12_10h25.01.513,SentenceInNoise,2022.1.3,59.914250724454334,
audio/click_beep.wav,0,87,87,20,,,,,195.97235795999367,None,195.97182139999495,196.9878482999993,196.9878482999993,195.97182139999495,195.97182139999495,195.98845549999533,196.03832719999627,196.05519849999837,audioTimingTest,1,2023-04-12_10h25.01.513,SentenceInNoise,2022.1.3,59.914250724454334,
audio/click_beep.wav,0,88,88,178,,,,,197.95425615999338,None,197.95474729999842,198.97090749999916,198.97090749999916,197.95474729999842,197.95474729999842,197.97111949999817,198.02124059999915,198.03757269999915,audioTimingTest,1,2023-04-12_10h25.01.513,SentenceInNoise,2022.1.3,59.914250724454334,
audio/click_beep.wav,0,89,89,125,,,,,199.93735275999424,None,199.93715809999412,200.95385529999476,200.95385529999476,199.93715809999412,199.93715809999412,199.95427689999633,200.00379869999597,200.02046309999423,audioTimingTest,1,2023-04-12_10h25.01.513,SentenceInNoise,2022.1.3,59.914250724454334,
audio/click_beep.wav,0,90,90,187,,,,,201.9200020599943,None,201.9199501999974,202.95282739999675,202.95282739999675,201.9199501999974,201.9199501999974,201.93658719999803,201.98646449999796,202.00314789999538,audioTimingTest,1,2023-04-12_10h25.01.513,SentenceInNoise,2022.1.3,59.914250724454334,
audio/click_beep.wav,0,91,91,138,,,,,203.90253885999627,None,203.9026831999945,204.9359087999983,204.9359087999983,203.9026831999945,203.9026831999945,203.9191112999979,203.96883519999392,203.9854533999969,audioTimingTest,1,2023-04-12_10h25.01.513,SentenceInNoise,2022.1.3,59.914250724454334,
audio/click_beep.wav,0,92,92,157,,,,,205.88529765999337,None,205.88534769999387,206.91827309999644,206.91827309999644,205.88534769999387,205.88534769999387,205.90190119999897,205.95177229999535,205.9683417999986,audioTimingTest,1,2023-04-12_10h25.01.513,SentenceInNoise,2022.1.3,59.914250724454334,
audio/click_beep.wav,0,93,93,73,,,,,207.86803096000003,None,207.86775369999668,208.90062009999383,208.90062009999383,207.86775369999668,207.86775369999668,207.88410609999846,207.93479939999816,207.95186859999376,audioTimingTest,1,2023-04-12_10h25.01.513,SentenceInNoise,2022.1.3,59.914250724454334,
audio/click_beep.wav,0,94,94,140,,,,,209.85034205999327,None,209.85065969999414,210.86696339999617,210.86696339999617,209.85065969999414,209.85065969999414,209.8671250999978,209.917612499994,209.9339603999979,audioTimingTest,1,2023-04-12_10h25.01.513,SentenceInNoise,2022.1.3,59.914250724454334,
audio/click_beep.wav,0,95,95,195,,,,,211.83323295999944,None,211.8333308999936,212.84950159999426,212.84950159999426,211.8333308999936,211.8333308999936,211.84990429999743,211.90000869999494,211.91677759999584,audioTimingTest,1,2023-04-12_10h25.01.513,SentenceInNoise,2022.1.3,59.914250724454334,
audio/click_beep.wav,0,96,96,110,,,,,213.81583945999373,None,213.81604109999898,214.83233589999872,214.83233589999872,213.81604109999898,213.81604109999898,213.83280099999683,213.88253909999912,213.89921599999798,audioTimingTest,1,2023-04-12_10h25.01.513,SentenceInNoise,2022.1.3,59.914250724454334,
audio/click_beep.wav,0,97,97,57,,,,,215.7985952599971,None,215.79889879999973,216.81519419999677,216.81519419999677,215.79889879999973,215.79889879999973,215.81537679999747,215.86521209999773,215.88210909999907,audioTimingTest,1,2023-04-12_10h25.01.513,SentenceInNoise,2022.1.3,59.914250724454334,
audio/click_beep.wav,0,98,98,119,,,,,217.78094145999566,None,217.78096069999447,218.7976675999962,218.7976675999962,217.78096069999447,217.78096069999447,217.79782509999495,217.8479684999984,217.8645699999979,audioTimingTest,1,2023-04-12_10h25.01.513,SentenceInNoise,2022.1.3,59.914250724454334,
audio/click_beep.wav,0,99,99,163,,,,,219.76388295999422,None,219.764073499995,220.79693559999578,220.79693559999578,219.764073499995,219.764073499995,219.78073279999808,219.83075159999862,219.8472530999934,audioTimingTest,1,2023-04-12_10h25.01.513,SentenceInNoise,2022.1.3,59.914250724454334,
audio/click_beep.wav,0,100,100,197,,,,,221.7464563599984,None,221.74665809999715,222.77962759999355,222.77962759999355,221.74665809999715,221.74665809999715,221.76335419999668,221.81327549999696,221.82998679999582,audioTimingTest,1,2023-04-12_10h25.01.513,SentenceInNoise,2022.1.3,59.914250724454334,
audio/click_beep.wav,0,101,101,52,,,,,223.72929195999822,None,223.7293548999951,224.76225729999715,224.76225729999715,223.7293548999951,223.7293548999951,223.74569129999873,223.79570289999538,223.81269799999427,audioTimingTest,1,2023-04-12_10h25.01.513,SentenceInNoise,2022.1.3,59.914250724454334,
audio/click_beep.wav,0,102,102,117,,,,,225.7121021599938,None,225.712297399994,226.74478969999473,226.74478969999473,225.712297399994,225.712297399994,225.7286188999933,225.77880689999438,225.79594969999744,audioTimingTest,1,2023-04-12_10h25.01.513,SentenceInNoise,2022.1.3,59.914250724454334,
audio/click_beep.wav,0,103,103,162,,,,,227.69462875999815,None,227.69479399999545,228.7109799999962,228.7109799999962,227.69479399999545,227.69479399999545,227.7114486999999,227.761531199998,227.7778784999973,audioTimingTest,1,2023-04-12_10h25.01.513,SentenceInNoise,2022.1.3,59.914250724454334,
audio/click_beep.wav,0,104,104,174,,,,,229.67730645999617,None,229.6773796999987,230.69362699999328,230.69362699999328,229.6773796999987,229.6773796999987,229.69366539999464,229.74409559999913,229.76053869999305,audioTimingTest,1,2023-04-12_10h25.01.513,SentenceInNoise,2022.1.3,59.914250724454334,
audio/click_beep.wav,0,105,105,128,,,,,231.66024315999456,None,231.6601468999943,232.67636019999918,232.67636019999918,231.6601468999943,231.6601468999943,231.67689059999975,231.7265838999956,231.74330519999785,audioTimingTest,1,2023-04-12_10h25.01.513,SentenceInNoise,2022.1.3,59.914250724454334,
audio/click_beep.wav,0,106,106,62,,,,,233.64287355999622,None,233.64294249999512,234.65875089999463,234.65875089999463,233.64294249999512,233.64294249999512,233.65946359999361,233.7094821999999,233.72610189999978,audioTimingTest,1,2023-04-12_10h25.01.513,SentenceInNoise,2022.1.3,59.914250724454334,
audio/click_beep.wav,0,107,107,129,,,,,235.62576545999545,None,235.62569809999695,236.6414733999991,236.6414733999991,235.62569809999695,235.62569809999695,235.6420810999989,235.69212909999624,235.70883859999594,audioTimingTest,1,2023-04-12_10h25.01.513,SentenceInNoise,2022.1.3,59.914250724454334,
audio/click_beep.wav,0,108,108,126,,,,,237.60832055999853,None,237.60826689999521,238.6413620999956,238.6413620999956,237.60826689999521,237.60826689999521,237.62486939999508,237.67476679999527,237.6914684999938,audioTimingTest,1,2023-04-12_10h25.01.513,SentenceInNoise,2022.1.3,59.914250724454334,
audio/click_beep.wav,0,109,109,63,,,,,239.5912362599971,None,239.59100659999967,240.60698089999642,240.60698089999642,239.59100659999967,239.59100659999967,239.6074718999953,239.65764749999653,239.67432649999682,audioTimingTest,1,2023-04-12_10h25.01.513,SentenceInNoise,2022.1.3,59.914250724454334,
audio/click_beep.wav,0,110,110,104,,,,,241.57324645999833,None,241.5736082999938,242.6066051999951,242.6066051999951,241.5736082999938,241.5736082999938,241.59029899999587,241.6400915999984,241.65667829999438,audioTimingTest,1,2023-04-12_10h25.01.513,SentenceInNoise,2022.1.3,59.914250724454334,
audio/click_beep.wav,0,111,111,99,,,,,243.55594085999982,None,243.5560736999978,244.58910289999767,244.58910289999767,243.5560736999978,243.5560736999978,243.57251339999493,243.62247959999513,243.63936529999773,audioTimingTest,1,2023-04-12_10h25.01.513,SentenceInNoise,2022.1.3,59.914250724454334,
audio/click_beep.wav,0,112,112,12,,,,,245.5386222599969,None,245.53912559999299,246.55476819999603,246.55476819999603,245.53912559999299,245.53912559999299,245.55548329999874,245.6055125999992,245.622177199999,audioTimingTest,1,2023-04-12_10h25.01.513,SentenceInNoise,2022.1.3,59.914250724454334,
audio/click_beep.wav,0,113,113,173,,,,,247.5212828599957,None,247.52163199999632,248.53770619999705,248.53770619999705,247.52163199999632,247.52163199999632,247.53816499999812,247.58820989999367,247.60494669999753,audioTimingTest,1,2023-04-12_10h25.01.513,SentenceInNoise,2022.1.3,59.914250724454334,
audio/click_beep.wav,0,114,114,48,,,,,249.504289959999,None,249.50438869999925,250.52027039999666,250.52027039999666,249.50438869999925,249.50438869999925,249.520740699998,249.5709493999966,249.58754339999723,audioTimingTest,1,2023-04-12_10h25.01.513,SentenceInNoise,2022.1.3,59.914250724454334,
audio/click_beep.wav,0,115,115,164,,,,,251.48692985999296,None,251.4871290999945,252.50288399999408,252.50288399999408,251.4871290999945,251.4871290999945,251.50346209999407,251.55350379999436,251.57009029999608,audioTimingTest,1,2023-04-12_10h25.01.513,SentenceInNoise,2022.1.3,59.914250724454334,
audio/click_beep.wav,0,116,116,8,,,,,253.46953545999494,None,253.46935739999753,254.48553459999675,254.48553459999675,253.46935739999753,253.46935739999753,253.48589979999815,253.53586209999776,253.55280299999868,audioTimingTest,1,2023-04-12_10h25.01.513,SentenceInNoise,2022.1.3,59.914250724454334,
audio/click_beep.wav,0,117,117,87,,,,,255.45199835999446,None,255.4529481999998,256.4686670999945,256.4686670999945,255.4529481999998,255.4529481999998,255.46892159999697,255.51901629999338,255.53566319999663,audioTimingTest,1,2023-04-12_10h25.01.513,SentenceInNoise,2022.1.3,59.914250724454334,
audio/click_beep.wav,0,118,118,139,,,,,257.43481195999414,None,257.43510779999633,258.45135709999886,258.45135709999886,257.43510779999633,257.43510779999633,257.4516012999957,257.50192529999913,257.5182333999983,audioTimingTest,1,2023-04-12_10h25.01.513,SentenceInNoise,2022.1.3,59.914250724454334,
audio/click_beep.wav,0,119,119,154,,,,,259.4173973599951,None,259.4177231999929,260.45071059999464,260.45071059999464,259.4177231999929,259.4177231999929,259.43438129999413,259.484217899997,259.5009613999937,audioTimingTest,1,2023-04-12_10h25.01.513,SentenceInNoise,2022.1.3,59.914250724454334,
audio/click_beep.wav,0,120,120,113,,,,,261.40016705999517,None,261.40032419999625,262.4334189999936,262.4334189999936,261.40032419999625,261.40032419999625,261.41697209999984,261.4673984999972,261.4836284999983,audioTimingTest,1,2023-04-12_10h25.01.513,SentenceInNoise,2022.1.3,59.914250724454334,
audio/click_beep.wav,0,121,121,172,,,,,263.3830241599986,None,263.3830384999965,264.3992633999951,264.3992633999951,263.3830384999965,263.3830384999965,263.39960349999456,263.44964739999705,263.46643269999913,audioTimingTest,1,2023-04-12_10h25.01.513,SentenceInNoise,2022.1.3,59.914250724454334,
audio/click_beep.wav,0,122,122,28,,,,,265.36558945999934,None,265.36586449999595,266.3820459999988,266.3820459999988,265.36586449999595,265.36586449999595,265.38234149999334,265.4322020999971,265.44900999999663,audioTimingTest,1,2023-04-12_10h25.01.513,SentenceInNoise,2022.1.3,59.914250724454334,
audio/click_beep.wav,0,123,123,42,,,,,267.34849815999553,None,267.3483460999996,268.3644900999934,268.3644900999934,267.3483460999996,267.3483460999996,267.3651516999962,267.4151450999998,267.4319867999948,audioTimingTest,1,2023-04-12_10h25.01.513,SentenceInNoise,2022.1.3,59.914250724454334,
audio/click_beep.wav,0,124,124,153,,,,,269.3309941599997,None,269.3310574999996,270.3472047999967,270.3472047999967,269.3310574999996,269.3310574999996,269.3477211999998,269.39772999999695,269.4148508999933,audioTimingTest,1,2023-04-12_10h25.01.513,SentenceInNoise,2022.1.3,59.914250724454334,
audio/click_beep.wav,0,125,125,66,,,,,271.31408055999566,None,271.31356609999784,272.3301152999993,272.3301152999993,271.31356609999784,271.31356609999784,271.33018649999576,271.38013219999993,271.39702509999915,audioTimingTest,1,2023-04-12_10h25.01.513,SentenceInNoise,2022.1.3,59.914250724454334,
audio/click_beep.wav,0,126,126,23,,,,,273.29629965999413,None,273.2965566999992,274.3131502999968,274.3131502999968,273.2965566999992,273.2965566999992,273.3131413999945,273.3632213999954,273.3797940999939,audioTimingTest,1,2023-04-12_10h25.01.513,SentenceInNoise,2022.1.3,59.914250724454334,
audio/click_beep.wav,0,127,127,142,,,,,275.2790288599987,None,275.27931779999926,276.29564749999554,276.29564749999554,275.27931779999926,275.27931779999926,275.2961314999993,275.345876899999,275.36242669999774,audioTimingTest,1,2023-04-12_10h25.01.513,SentenceInNoise,2022.1.3,59.914250724454334,
audio/click_beep.wav,0,128,128,107,,,,,277.26156105999473,None,277.2618039999943,278.2950272999951,278.2950272999951,277.2618039999943,277.2618039999943,277.27845339999476,277.32814129999315,277.3447928999958,audioTimingTest,1,2023-04-12_10h25.01.513,SentenceInNoise,2022.1.3,59.914250724454334,
audio/click_beep.wav,0,129,129,84,,,,,279.24452125999744,None,279.2445973999929,280.27744549999625,280.27744549999625,279.2445973999929,279.2445973999929,279.2611554999967,279.311366899994,279.327859099998,audioTimingTest,1,2023-04-12_10h25.01.513,SentenceInNoise,2022.1.3,59.914250724454334,
audio/click_beep.wav,0,130,130,37,,,,,281.2268421599998,None,281.22734799999307,282.2432830999969,282.2432830999969,281.22734799999307,281.22734799999307,281.243899999994,281.2943716999944,281.3107156999977,audioTimingTest,1,2023-04-12_10h25.01.513,SentenceInNoise,2022.1.3,59.914250724454334,
audio/click_beep.wav,0,131,131,58,,,,,283.2100360599994,None,283.21028079999815,284.2260796999981,284.2260796999981,283.21028079999815,283.21028079999815,283.22662229999696,283.27644509999664,283.29307439999684,audioTimingTest,1,2023-04-12_10h25.01.513,SentenceInNoise,2022.1.3,59.914250724454334,
audio/click_beep.wav,0,132,132,17,,,,,285.192554559993,None,285.1927541999976,286.2089535999985,286.2089535999985,285.1927541999976,285.1927541999976,285.2093457999945,285.2592055999994,285.27588529999775,audioTimingTest,1,2023-04-12_10h25.01.513,SentenceInNoise,2022.1.3,59.914250724454334,
audio/click_beep.wav,0,133,133,176,,,,,287.17535215999453,None,287.1752344999986,288.1914200999963,288.1914200999963,287.1752344999986,287.1752344999986,287.19190229999367,287.2418752999947,287.2585730999999,audioTimingTest,1,2023-04-12_10h25.01.513,SentenceInNoise,2022.1.3,59.914250724454334,
audio/click_beep.wav,0,134,134,47,,,,,289.1579885599982,None,289.15790329999436,290.1743303999974,290.1743303999974,289.15790329999436,289.15790329999436,289.17453789999854,289.2245202999984,289.2412348999933,audioTimingTest,1,2023-04-12_10h25.01.513,SentenceInNoise,2022.1.3,59.914250724454334,
audio/click_beep.wav,0,135,135,145,,,,,291.1404022599942,None,291.1406837999966,292.156925999996,292.156925999996,291.1406837999966,291.1406837999966,291.15728249999665,291.207281899995,291.2238711999962,audioTimingTest,1,2023-04-12_10h25.01.513,SentenceInNoise,2022.1.3,59.914250724454334,
audio/click_beep.wav,0,136,136,114,,,,,293.1232611599968,None,293.1231761999952,294.1395405999938,294.1395405999938,293.1231761999952,293.1231761999952,293.1396151999943,293.18956849999813,293.20632869999827,audioTimingTest,1,2023-04-12_10h25.01.513,SentenceInNoise,2022.1.3,59.914250724454334,
audio/click_beep.wav,0,137,137,185,,,,,295.1057446599931,None,295.1060193999947,296.13919629999873,296.13919629999873,295.1060193999947,295.1060193999947,295.1224821999931,295.1725026999993,295.18928989999404,audioTimingTest,1,2023-04-12_10h25.01.513,SentenceInNoise,2022.1.3,59.914250724454334,
audio/click_beep.wav,0,138,138,16,,,,,297.08869505999394,None,297.08879349999916,298.12140059999365,298.12140059999365,297.08879349999916,297.08879349999916,297.1052488999994,297.15533599999617,297.1720706999986,audioTimingTest,1,2023-04-12_10h25.01.513,SentenceInNoise,2022.1.3,59.914250724454334,
audio/click_beep.wav,0,139,139,186,,,,,299.0717072599997,None,299.0714366999964,300.10434469999745,300.10434469999745,299.0714366999964,299.0714366999964,299.0879986,299.13793139999325,299.15466639999795,audioTimingTest,1,2023-04-12_10h25.01.513,SentenceInNoise,2022.1.3,59.914250724454334,
audio/click_beep.wav,0,140,140,65,,,,,301.05371165999316,None,301.0539453999954,302.0704653999928,302.0704653999928,301.0539453999954,301.0539453999954,301.070340899998,301.12050589999853,301.1373342999941,audioTimingTest,1,2023-04-12_10h25.01.513,SentenceInNoise,2022.1.3,59.914250724454334,
audio/click_beep.wav,0,141,141,79,,,,,303.0367172599996,None,303.03666269999667,304.0526807999995,304.0526807999995,303.03666269999667,303.03666269999667,303.0535469999959,303.1033005999998,303.12005679999857,audioTimingTest,1,2023-04-12_10h25.01.513,SentenceInNoise,2022.1.3,59.914250724454334,
audio/click_beep.wav,0,142,142,123,,,,,305.0190114599951,None,305.0194538999931,306.03572469999926,306.03572469999926,305.0194538999931,305.0194538999931,305.0361926999976,305.0861076999936,305.1026933999965,audioTimingTest,1,2023-04-12_10h25.01.513,SentenceInNoise,2022.1.3,59.914250724454334,
audio/click_beep.wav,0,143,143,35,,,,,307.0016802599981,None,307.0022814999975,308.01841969999805,308.01841969999805,307.0022814999975,307.0022814999975,307.0188504999969,307.068809599994,307.08528859999933,audioTimingTest,1,2023-04-12_10h25.01.513,SentenceInNoise,2022.1.3,59.914250724454334,
audio/click_beep.wav,0,144,144,141,,,,,308.9845436599986,None,308.9844910999964,310.00103779999336,310.00103779999336,308.9844910999964,308.9844910999964,309.00142429999687,309.05125869999756,309.0678801999966,audioTimingTest,1,2023-04-12_10h25.01.513,SentenceInNoise,2022.1.3,59.914250724454334,
audio/click_beep.wav,0,145,145,191,,,,,310.9675894599983,None,310.967505099994,311.983951299997,311.983951299997,310.967505099994,310.967505099994,310.98378549999325,311.03425539999444,311.05048249999527,audioTimingTest,1,2023-04-12_10h25.01.513,SentenceInNoise,2022.1.3,59.914250724454334,
audio/click_beep.wav,0,146,146,85,,,,,312.94997435999323,None,312.95021209999686,313.98328069999843,313.98328069999843,312.95021209999686,312.95021209999686,312.9668152999948,313.0169063999929,313.03350659999705,audioTimingTest,1,2023-04-12_10h25.01.513,SentenceInNoise,2022.1.3,59.914250724454334,
audio/click_beep.wav,0,147,147,55,,,,,314.9324445599974,None,314.9326828999983,315.9657625999971,315.9657625999971,314.9326828999983,314.9326828999983,314.94939399999566,314.99916679999296,315.01595369999995,audioTimingTest,1,2023-04-12_10h25.01.513,SentenceInNoise,2022.1.3,59.914250724454334,
audio/click_beep.wav,0,148,148,34,,,,,316.9153352599948,None,316.91551429999527,317.9483906999958,317.9483906999958,316.91551429999527,316.91551429999527,316.9318895999968,316.98216679999314,316.99878049999825,audioTimingTest,1,2023-04-12_10h25.01.513,SentenceInNoise,2022.1.3,59.914250724454334,
audio/click_beep.wav,0,149,149,156,,,,,318.89853895999624,None,318.8983325999943,319.91458939999575,319.91458939999575,318.8983325999943,318.8983325999943,318.91483519999747,318.96485799999937,318.98167029999604,audioTimingTest,1,2023-04-12_10h25.01.513,SentenceInNoise,2022.1.3,59.914250724454334,
audio/click_beep.wav,0,150,150,152,,,,,320.8807466599952,None,320.8806284999955,321.8975410999992,321.8975410999992,320.8806284999955,320.8806284999955,320.8976682999928,320.94725359999575,320.9640491999962,audioTimingTest,1,2023-04-12_10h25.01.513,SentenceInNoise,2022.1.3,59.914250724454334,
audio/click_beep.wav,0,151,151,171,,,,,322.8633606599957,None,322.86368109999603,323.87975119999464,323.87975119999464,322.86368109999603,322.86368109999603,322.88012299999536,322.930128699998,322.9468288999997,audioTimingTest,1,2023-04-12_10h25.01.513,SentenceInNoise,2022.1.3,59.914250724454334,
audio/click_beep.wav,0,152,152,151,,,,,324.84607125999685,None,324.8463574999987,325.8624681999936,325.8624681999936,324.8463574999987,324.8463574999987,324.86289429999306,324.9127557999964,324.92959529999644,audioTimingTest,1,2023-04-12_10h25.01.513,SentenceInNoise,2022.1.3,59.914250724454334,
audio/click_beep.wav,0,153,153,32,,,,,326.82894045999785,None,326.82888999999705,327.8454608999964,327.8454608999964,326.82888999999705,326.82888999999705,326.84567909999896,326.89561339999636,326.91238289999455,audioTimingTest,1,2023-04-12_10h25.01.513,SentenceInNoise,2022.1.3,59.914250724454334,
audio/click_beep.wav,0,154,154,77,,,,,328.8113857599943,None,328.81182359999366,329.82796059999964,329.82796059999964,328.81182359999366,328.81182359999366,328.82832329999655,328.87823229999776,328.894919499995,audioTimingTest,1,2023-04-12_10h25.01.513,SentenceInNoise,2022.1.3,59.914250724454334,
audio/click_beep.wav,0,155,155,27,,,,,330.79448915999603,None,330.7944972999976,331.8107112999933,331.8107112999933,330.7944972999976,330.7944972999976,330.81156879999617,330.8609381999995,330.8779454999967,audioTimingTest,1,2023-04-12_10h25.01.513,SentenceInNoise,2022.1.3,59.914250724454334,
audio/click_beep.wav,0,156,156,14,,,,,332.77692485999944,None,332.77699069999653,333.8096216999984,333.8096216999984,332.77699069999653,332.77699069999653,332.7935509999952,332.8435814999975,332.8602271999989,audioTimingTest,1,2023-04-12_10h25.01.513,SentenceInNoise,2022.1.3,59.914250724454334,
audio/click_beep.wav,0,157,157,199,,,,,334.75926625999784,None,334.75967779999337,335.7930184999932,335.7930184999932,334.75967779999337,334.75967779999337,334.7764453999989,334.82638429999497,334.842974399995,audioTimingTest,1,2023-04-12_10h25.01.513,SentenceInNoise,2022.1.3,59.914250724454334,
audio/click_beep.wav,0,158,158,40,,,,,336.7427513599956,None,336.74236579999706,337.7583979999981,337.7583979999981,336.74236579999706,336.74236579999706,336.75914949999424,336.8088388999968,336.82547519999935,audioTimingTest,1,2023-04-12_10h25.01.513,SentenceInNoise,2022.1.3,59.914250724454334,
audio/click_beep.wav,0,159,159,21,,,,,338.7250367599969,None,338.7252967999957,339.7413682999977,339.7413682999977,338.7252967999957,338.7252967999957,338.7416513999997,338.7916161999965,338.8086187999943,audioTimingTest,1,2023-04-12_10h25.01.513,SentenceInNoise,2022.1.3,59.914250724454334,
audio/click_beep.wav,0,160,160,144,,,,,340.70758195999736,None,340.70772679999936,341.7236647999962,341.7236647999962,340.70772679999936,340.70772679999936,340.72440249999636,340.7742724999989,340.79101029999583,audioTimingTest,1,2023-04-12_10h25.01.513,SentenceInNoise,2022.1.3,59.914250724454334,
audio/click_beep.wav,0,161,161,54,,,,,342.69071065999526,None,342.69045339999866,343.7067775999967,343.7067775999967,342.69045339999866,342.69045339999866,342.70701449999615,342.7570216999957,342.77363669999613,audioTimingTest,1,2023-04-12_10h25.01.513,SentenceInNoise,2022.1.3,59.914250724454334,
audio/click_beep.wav,0,162,162,92,,,,,344.6729209599995,None,344.6732442999928,345.6897011999972,345.6897011999972,344.6732442999928,344.6732442999928,344.68967449999764,344.7396823999952,344.7562226999944,audioTimingTest,1,2023-04-12_10h25.01.513,SentenceInNoise,2022.1.3,59.914250724454334,
audio/click_beep.wav,0,163,163,188,,,,,346.6556858599994,None,346.6559460999997,347.67199309999705,347.67199309999705,346.6559460999997,346.6559460999997,346.67247709999356,346.7223473999984,346.7389583999975,audioTimingTest,1,2023-04-12_10h25.01.513,SentenceInNoise,2022.1.3,59.914250724454334,
audio/click_beep.wav,0,164,164,124,,,,,348.6381959599945,None,348.6384756999978,349.6549289999966,349.6549289999966,348.6384756999978,348.6384756999978,348.6551524999959,348.70514439999533,348.7218020999935,audioTimingTest,1,2023-04-12_10h25.01.513,SentenceInNoise,2022.1.3,59.914250724454334,
audio/click_beep.wav,0,165,165,22,,,,,350.62094545999355,None,350.62120599999616,351.65497639999376,351.65497639999376,350.62120599999616,350.62120599999616,350.63778099999763,350.6878477999999,350.70447449999483,audioTimingTest,1,2023-04-12_10h25.01.513,SentenceInNoise,2022.1.3,59.914250724454334,
audio/click_beep.wav,0,166,166,72,,,,,352.6037160599932,None,352.60386549999384,353.6364637999941,353.6364637999941,352.60386549999384,352.60386549999384,352.62042129999463,352.67064639999444,352.68733749999956,audioTimingTest,1,2023-04-12_10h25.01.513,SentenceInNoise,2022.1.3,59.914250724454334,
audio/click_beep.wav,0,167,167,80,,,,,354.58660835999547,None,354.58674469999823,355.6195695999995,355.6195695999995,354.58674469999823,354.58674469999823,354.6032244999951,354.6534490999984,354.67035219999525,audioTimingTest,1,2023-04-12_10h25.01.513,SentenceInNoise,2022.1.3,59.914250724454334,
audio/click_beep.wav,0,168,168,13,,,,,356.5691764599957,None,356.5692409999974,357.58561439999903,357.58561439999903,356.5692409999974,356.5692409999974,356.5859246999971,356.6361900999982,356.65282459999435,audioTimingTest,1,2023-04-12_10h25.01.513,SentenceInNoise,2022.1.3,59.914250724454334,
audio/click_beep.wav,0,169,169,196,,,,,358.55172695999283,None,358.5519087999928,359.56824489999417,359.56824489999417,358.5519087999928,358.5519087999928,358.56852660000004,358.6185378999944,358.6352983999968,audioTimingTest,1,2023-04-12_10h25.01.513,SentenceInNoise,2022.1.3,59.914250724454334,
audio/click_beep.wav,0,170,170,29,,,,,360.5343812599946,None,360.5346737,361.5509026,361.5509026,360.5346737,360.5346737,360.5515163999953,360.60119669999403,360.61778149999736,audioTimingTest,1,2023-04-12_10h25.01.513,SentenceInNoise,2022.1.3,59.914250724454334,
audio/click_beep.wav,0,171,171,155,,,,,362.5172887599962,None,362.51728159999766,363.5334503999984,363.5334503999984,362.51728159999766,362.51728159999766,362.5339396999989,362.5840941999995,362.6005196999977,audioTimingTest,1,2023-04-12_10h25.01.513,SentenceInNoise,2022.1.3,59.914250724454334,
audio/click_beep.wav,0,172,172,2,,,,,364.4998282599969,None,364.50001849999535,365.516506999993,365.516506999993,364.50001849999535,364.50001849999535,364.51665109999885,364.5664933999942,364.58332989999326,audioTimingTest,1,2023-04-12_10h25.01.513,SentenceInNoise,2022.1.3,59.914250724454334,
audio/click_beep.wav,0,173,173,31,,,,,366.4824631599964,None,366.4823333999957,367.4990536999976,367.4990536999976,366.4823333999957,366.4823333999957,366.4989931999953,366.5493292999963,366.56584359999397,audioTimingTest,1,2023-04-12_10h25.01.513,SentenceInNoise,2022.1.3,59.914250724454334,
audio/click_beep.wav,0,174,174,181,,,,,368.4650227599974,None,368.46520439999586,369.4984065999961,369.4984065999961,368.46520439999586,368.46520439999586,368.4816573999997,368.53168079999887,368.54851779999444,audioTimingTest,1,2023-04-12_10h25.01.513,SentenceInNoise,2022.1.3,59.914250724454334,
audio/click_beep.wav,0,175,175,56,,,,,370.4477194599946,None,370.4477251999997,371.4809405999986,371.4809405999986,370.4477251999997,370.4477251999997,370.4644197999951,370.5144033999968,370.5312142999974,audioTimingTest,1,2023-04-12_10h25.01.513,SentenceInNoise,2022.1.3,59.914250724454334,
audio/click_beep.wav,0,176,176,93,,,,,372.43048805999354,None,372.43076389999624,373.46353049999743,373.46353049999743,372.43076389999624,372.43076389999624,372.44729019999795,372.4973101999931,372.51391489999514,audioTimingTest,1,2023-04-12_10h25.01.513,SentenceInNoise,2022.1.3,59.914250724454334,
audio/click_beep.wav,0,177,177,76,,,,,374.41348765999794,None,374.41340749999654,375.4295054999966,375.4295054999966,374.41340749999654,374.41340749999654,374.43001569999615,374.48009839999577,374.4967630999963,audioTimingTest,1,2023-04-12_10h25.01.513,SentenceInNoise,2022.1.3,59.914250724454334,
audio/click_beep.wav,0,178,178,81,,,,,376.39598525999975,None,376.3959532999943,377.4122697999992,377.4122697999992,376.3959532999943,376.3959532999943,376.4123538999993,376.4626838999975,376.47973879999336,audioTimingTest,1,2023-04-12_10h25.01.513,SentenceInNoise,2022.1.3,59.914250724454334,
audio/click_beep.wav,0,179,179,134,,,,,378.37860855999827,None,378.37888499999826,379.395022699995,379.395022699995,378.37888499999826,378.37888499999826,378.3954297999953,378.44536369999696,378.4620306999932,audioTimingTest,1,2023-04-12_10h25.01.513,SentenceInNoise,2022.1.3,59.914250724454334,
audio/click_beep.wav,0,180,180,67,,,,,380.3611230599978,None,380.3612398999976,381.377731499997,381.377731499997,380.3612398999976,380.3612398999976,380.3778521999993,380.42800929999794,380.4446941999995,audioTimingTest,1,2023-04-12_10h25.01.513,SentenceInNoise,2022.1.3,59.914250724454334,
audio/click_beep.wav,0,181,181,148,,,,,382.3438706599969,None,382.34418189999997,383.3600926999934,383.3600926999934,382.34418189999997,382.34418189999997,382.36079049999535,382.4106866999937,382.4274959999966,audioTimingTest,1,2023-04-12_10h25.01.513,SentenceInNoise,2022.1.3,59.914250724454334,
audio/click_beep.wav,0,182,182,15,,,,,384.32657305999385,None,384.3266980999979,385.3432415999996,385.3432415999996,384.3266980999979,384.3266980999979,384.34305409999797,384.3932202999931,384.4097030999983,audioTimingTest,1,2023-04-12_10h25.01.513,SentenceInNoise,2022.1.3,59.914250724454334,
audio/click_beep.wav,0,183,183,150,,,,,386.3095994599986,None,386.3095151999951,387.3422283999971,387.3422283999971,386.3095151999951,386.3095151999951,386.326072799995,386.37597169999935,386.3927113999962,audioTimingTest,1,2023-04-12_10h25.01.513,SentenceInNoise,2022.1.3,59.914250724454334,
audio/click_beep.wav,0,184,184,180,,,,,388.29207775999896,None,388.29229309999937,389.3248379999932,389.3248379999932,388.29229309999937,388.29229309999937,388.3089125999977,388.35921839999355,388.3757504999958,audioTimingTest,1,2023-04-12_10h25.01.513,SentenceInNoise,2022.1.3,59.914250724454334,
audio/click_beep.wav,0,185,185,91,,,,,390.2748089599969,None,390.27487709999696,391.30768619999435,391.30768619999435,390.27487709999696,390.27487709999696,390.2915866999974,390.34150789999694,390.3582314999949,audioTimingTest,1,2023-04-12_10h25.01.513,SentenceInNoise,2022.1.3,59.914250724454334,
audio/click_beep.wav,0,186,186,64,,,,,392.25737725999863,None,392.257723799994,393.2738287999964,393.2738287999964,392.257723799994,392.257723799994,392.2742220999935,392.32419749999826,392.3409030999974,audioTimingTest,1,2023-04-12_10h25.01.513,SentenceInNoise,2022.1.3,59.914250724454334,
audio/click_beep.wav,0,187,187,137,,,,,394.2398857599961,None,394.240295399999,395.2563944999929,395.2563944999929,394.240295399999,394.240295399999,394.25700789999973,394.3069875999936,394.3234964999938,audioTimingTest,1,2023-04-12_10h25.01.513,SentenceInNoise,2022.1.3,59.914250724454334,
audio/click_beep.wav,0,188,188,59,,,,,396.2226543599951,None,396.22301989999687,397.2391176999954,397.2391176999954,396.22301989999687,396.22301989999687,396.23956579999503,396.2901028999986,396.30636639999284,audioTimingTest,1,2023-04-12_10h25.01.513,SentenceInNoise,2022.1.3,59.914250724454334,
audio/click_beep.wav,0,189,189,6,,,,,398.2056061599993,None,398.2056372999941,399.22169819999544,399.22169819999544,398.2056372999941,398.2056372999941,398.2222938999985,398.27222139999503,398.2889720999956,audioTimingTest,1,2023-04-12_10h25.01.513,SentenceInNoise,2022.1.3,59.914250724454334,
audio/click_beep.wav,0,190,190,182,,,,,400.18815455999504,None,400.1883805999969,401.20447499999864,401.20447499999864,400.1883805999969,400.1883805999969,400.2049465999953,400.2549485999989,400.27158479999343,audioTimingTest,1,2023-04-12_10h25.01.513,SentenceInNoise,2022.1.3,59.914250724454334,
audio/click_beep.wav,0,191,191,90,,,,,402.1708012599971,None,402.17088749999675,403.18722989999515,403.18722989999515,402.17088749999675,402.17088749999675,402.18765139999596,402.2379957999947,402.25432519999595,audioTimingTest,1,2023-04-12_10h25.01.513,SentenceInNoise,2022.1.3,59.914250724454334,
audio/click_beep.wav,0,192,192,25,,,,,404.15395685999613,None,404.15370459999394,405.18653699999413,405.18653699999413,404.15370459999394,404.15370459999394,404.17036129999906,404.2203260999959,404.236885899998,audioTimingTest,1,2023-04-12_10h25.01.513,SentenceInNoise,2022.1.3,59.914250724454334,
audio/click_beep.wav,0,193,193,18,,,,,406.1360477599934,None,406.1361548999994,407.1692358999935,407.1692358999935,406.1361548999994,406.1361548999994,406.1528218999956,406.20259819999774,406.219454399994,audioTimingTest,1,2023-04-12_10h25.01.513,SentenceInNoise,2022.1.3,59.914250724454334,
audio/click_beep.wav,0,194,194,50,,,,,408.1189935599956,None,408.1188631999976,409.15188129999297,409.15188129999297,408.1188631999976,408.1188631999976,408.13550869999744,408.1856820999965,408.2024142999944,audioTimingTest,1,2023-04-12_10h25.01.513,SentenceInNoise,2022.1.3,59.914250724454334,
audio/click_beep.wav,0,195,195,120,,,,,410.1015477599991,None,410.10171529999934,411.11787979999644,411.11787979999644,410.10171529999934,410.10171529999934,410.11832519999734,410.16820539999753,410.1850013999938,audioTimingTest,1,2023-04-12_10h25.01.513,SentenceInNoise,2022.1.3,59.914250724454334,
audio/click_beep.wav,0,196,196,192,,,,,412.08400535999465,None,412.0843769999992,413.10050809999666,413.10050809999666,412.0843769999992,412.0843769999992,412.1011082999976,412.1510574999993,412.1676271999968,audioTimingTest,1,2023-04-12_10h25.01.513,SentenceInNoise,2022.1.3,59.914250724454334,
audio/click_beep.wav,0,197,197,7,,,,,414.0669806599959,None,414.06711829999404,415.08330739999656,415.08330739999656,414.06711829999404,414.06711829999404,414.0835903999978,414.1339150999993,414.15050269999483,audioTimingTest,1,2023-04-12_10h25.01.513,SentenceInNoise,2022.1.3,59.914250724454334,
audio/click_beep.wav,0,198,198,108,,,,,416.0497750599949,None,416.0497633999985,417.0656436999998,417.0656436999998,416.0497633999985,416.0497633999985,416.06640729999344,416.1164464999965,416.1330022999973,audioTimingTest,1,2023-04-12_10h25.01.513,SentenceInNoise,2022.1.3,59.914250724454334,
audio/click_beep.wav,0,199,199,184,,,,,418.03233295999746,None,418.03226939999877,419.0487256999986,419.0487256999986,418.03226939999877,418.03226939999877,418.04899979999755,418.09931339999457,418.11579349999374,audioTimingTest,1,2023-04-12_10h25.01.513,SentenceInNoise,2022.1.3,59.914250724454334,
