videoFile,condition,video,speaker,callSign,colour,number,seq,id,block,exp.thisRepN,exp.thisTrialN,exp.thisN,exp.thisIndex,training.thisRepN,training.thisTrialN,training.thisN,training.thisIndex,firstHalf.thisRepN,firstHalf.thisTrialN,firstHalf.thisN,firstHalf.thisIndex,blocksA.thisRepN,blocksA.thisTrialN,blocksA.thisN,blocksA.thisIndex,mouseClickOnCall.x,mouseClickOnCall.y,mouseClickOnCall.leftButton,mouseClickOnCall.midButton,mouseClickOnCall.rightButton,mouseClickOnCall.time,mouseClickOnCall.clicked_name,mouseClickOnColour.x,mouseClickOnColour.y,mouseClickOnColour.leftButton,mouseClickOnColour.midButton,mouseClickOnColour.rightButton,mouseClickOnColour.time,mouseClickOnColour.clicked_name,mouseClickOnNumber.x,mouseClickOnNumber.y,mouseClickOnNumber.leftButton,mouseClickOnNumber.midButton,mouseClickOnNumber.rightButton,mouseClickOnNumber.time,mouseClickOnNumber.clicked_name,callSignCorrect,colourCorrect,numberCorrect,participant,order,date,expName,psychopyVersion,frameRate,
video/Training/zh_sp01_Ad_We_4_NVocInAudio_NoVideo.avi,vocoded,noVideo,sp01,Ad,We,4,,,,,,,,0,0,0,0,,,,,,,,,-0.41574074074074074,0.3138888888888889,1,0,0,7.444299700000556,call1,0.025925925925925925,-0.26944444444444443,1,0,0,8.955725799984066,colour4,0.4513888888888889,-0.29305555555555557,1,0,0,10.176545199996326,number4,True,True,True,10,5,2019_Nov_12_1308,MA_Theta_Exp,3.0.7,57.683034036871234,
video/Training/zh_sp07_Ad_Ge_3_NVocInAudio_NoVideo.avi,vocoded,noVideo,sp07,Ad,Ge,3,,,,,,,,0,1,1,1,,,,,,,,,-0.412962962962963,0.3236111111111111,1,0,0,5.501967499993043,call1,0.02175925925925926,0.3194444444444444,1,0,0,6.828512600011891,colour1,0.42314814814814816,-0.11527777777777778,1,0,0,7.657165200012969,number3,True,True,True,10,5,2019_Nov_12_1308,MA_Theta_Exp,3.0.7,57.683034036871234,
video/Training/zh_sp01_Dr_Ro_3_NVocInAudio_GlobalThetaInVideo.avi,vocoded,plusVideo,sp01,Dr,Ro,3,,,,,,,,0,2,2,2,,,,,,,,,-0.4324074074074074,0.10555555555555556,1,0,0,5.988124099996639,call2,0.003703703703703704,-0.1486111111111111,1,0,0,6.774429200013401,colour3,0.42592592592592593,-0.10972222222222222,1,0,0,7.763585600012448,number3,True,True,True,10,5,2019_Nov_12_1308,MA_Theta_Exp,3.0.7,57.683034036871234,
video/Training/zh_sp07_Dr_Gr_4_NVocInAudio_GlobalThetaInVideo.avi,vocoded,plusVideo,sp07,Dr,Gr,4,,,,,,,,0,3,3,3,,,,,,,,,-0.3902777777777778,0.06527777777777778,1,0,0,4.971667900012108,call2,0.017592592592592594,0.07916666666666666,1,0,0,5.757373800006462,colour2,0.4759259259259259,-0.325,1,0,0,6.7141283999953885,number4,True,True,True,10,5,2019_Nov_12_1308,MA_Theta_Exp,3.0.7,57.683034036871234,
video/Training/zh_sp01_Ti_Gr_2_NoThetaInAudio_NoVideo.avi,noTheta,noVideo,sp01,Ti,Gr,2,,,,,,,,0,4,4,4,,,,,,,,,-0.3763888888888889,0.34305555555555556,1,0,0,7.8367987999808975,call1,0.03425925925925926,0.10833333333333334,1,0,0,9.188127600005828,colour2,0.4009259259259259,0.09861111111111111,1,0,0,9.830671400006395,number2,False,True,True,10,5,2019_Nov_12_1308,MA_Theta_Exp,3.0.7,57.683034036871234,
video/Training/zh_sp07_Ti_Ro_1_NoThetaInAudio_NoVideo.avi,noTheta,noVideo,sp07,Ti,Ro,1,,,,,,,,0,5,5,5,,,,,,,,,-0.3902777777777778,-0.11527777777777778,1,0,0,5.065908699994907,call3,-0.022222222222222223,0.2722222222222222,1,0,0,7.320939500001259,colour1,0.4050925925925926,0.2861111111111111,1,0,0,8.0410564999911,number1,True,False,True,10,5,2019_Nov_12_1308,MA_Theta_Exp,3.0.7,57.683034036871234,
video/Training/zh_sp01_Un_Ge_1_NoThetaInAudio_GlobalThetaInVideo.avi,noTheta,plusVideo,sp01,Un,Ge,1,,,,,,,,0,6,6,6,,,,,,,,,-0.4060185185185185,-0.32083333333333336,1,0,0,5.503038399998331,call4,0.02361111111111111,0.31527777777777777,1,0,0,6.602000899991253,colour1,0.35648148148148145,0.3333333333333333,1,0,0,7.597894300008193,number1,True,True,True,10,5,2019_Nov_12_1308,MA_Theta_Exp,3.0.7,57.683034036871234,
video/Training/zh_sp07_Un_We_2_NoThetaInAudio_GlobalThetaInVideo.avi,noTheta,plusVideo,sp07,Un,We,2,,,,,,,,0,7,7,7,,,,,,,,,-0.4041666666666667,-0.31666666666666665,1,0,0,5.775666099973023,call4,-0.05324074074074074,0.13055555555555556,1,0,0,7.070955300005153,colour2,0.4134259259259259,0.3277777777777778,1,0,0,7.83729699999094,number1,True,False,False,10,5,2019_Nov_12_1308,MA_Theta_Exp,3.0.7,57.683034036871234,
video/Training/zh_sp01_Ad_Ge_1_GlobalTheta_NoVideo.avi,globalTheta,noVideo,sp01,Ad,Ge,1,,,,,,,,0,8,8,8,,,,,,,,,-0.3962962962962963,0.32083333333333336,1,0,0,5.489986200002022,call1,0.05648148148148148,0.3333333333333333,1,0,0,6.396667399996659,colour1,0.41759259259259257,0.31805555555555554,1,0,0,7.18989059998421,number1,True,True,True,10,5,2019_Nov_12_1308,MA_Theta_Exp,3.0.7,57.683034036871234,
video/Training/zh_sp07_Ad_Ro_3_GlobalTheta_NoVideo.avi,globalTheta,noVideo,sp07,Ad,Ro,3,,,,,,,,0,9,9,9,,,,,,,,,-0.4199074074074074,0.32222222222222224,1,0,0,5.226962899992941,call1,0.015277777777777777,0.3333333333333333,1,0,0,7.155286499997601,colour1,0.4083333333333333,-0.10416666666666667,1,0,0,8.217209800001001,number3,True,False,True,10,5,2019_Nov_12_1308,MA_Theta_Exp,3.0.7,57.683034036871234,
video/Experiment/zh_sp01_Dr_Ge_3_NoThetaInAudio_NoVideo.avi,noTheta,noVideo,sp01,Dr,Ge,3,0,4,flow/blocks/NoThetaInAudio_NoVideo_A.csv,,,,,,,,,0,0,0,0,0,0,0,18,-0.40185185185185185,0.34444444444444444,1,0,0,5.8598779999883845,call1,0.03611111111111111,0.3055555555555556,1,0,0,6.808159199979855,colour1,0.4375,-0.11666666666666667,1,0,0,7.7890462999930605,number3,False,True,True,10,5,2019_Nov_12_1308,MA_Theta_Exp,3.0.7,57.683034036871234,
video/Experiment/zh_sp01_Dr_We_3_NoThetaInAudio_NoVideo.avi,noTheta,noVideo,sp01,Dr,We,3,0,4,flow/blocks/NoThetaInAudio_NoVideo_A.csv,,,,,,,,,0,0,0,0,0,1,1,30,-0.37824074074074077,0.3,1,0,0,5.518243200000143,call1,-0.010185185185185186,-0.33611111111111114,1,0,0,6.53802160001942,colour4,0.4097222222222222,-0.11944444444444445,1,0,0,7.675981199980015,number3,False,True,True,10,5,2019_Nov_12_1308,MA_Theta_Exp,3.0.7,57.683034036871234,
video/Experiment/zh_sp01_Dr_Ro_2_NoThetaInAudio_NoVideo.avi,noTheta,noVideo,sp01,Dr,Ro,2,0,4,flow/blocks/NoThetaInAudio_NoVideo_A.csv,,,,,,,,,0,0,0,0,0,2,2,25,-0.4101851851851852,0.3111111111111111,1,0,0,5.608674699993571,call1,0.024537037037037038,-0.08611111111111111,1,0,0,6.460127400001511,colour3,0.4375,0.12083333333333333,1,0,0,7.359590099978959,number2,False,True,True,10,5,2019_Nov_12_1308,MA_Theta_Exp,3.0.7,57.683034036871234,
video/Experiment/zh_sp07_Dr_Ge_4_NoThetaInAudio_NoVideo.avi,noTheta,noVideo,sp07,Dr,Ge,4,0,4,flow/blocks/NoThetaInAudio_NoVideo_A.csv,,,,,,,,,0,0,0,0,0,3,3,19,-0.40324074074074073,0.2902777777777778,1,0,0,7.048312700004317,call1,0.0,0.30277777777777776,1,0,0,8.043669200007571,colour1,0.4148148148148148,-0.3333333333333333,1,0,0,8.863777400023537,number4,False,True,True,10,5,2019_Nov_12_1308,MA_Theta_Exp,3.0.7,57.683034036871234,
video/Experiment/zh_sp07_Ad_Gr_1_NoThetaInAudio_NoVideo.avi,noTheta,noVideo,sp07,Ad,Gr,1,0,4,flow/blocks/NoThetaInAudio_NoVideo_A.csv,,,,,,,,,0,0,0,0,0,4,4,4,-0.412962962962963,0.30972222222222223,1,0,0,5.00025340000866,call1,0.017592592592592594,0.10416666666666667,1,0,0,5.7802270000102,colour2,0.43842592592592594,0.2777777777777778,1,0,0,6.681972199992742,number1,True,True,True,10,5,2019_Nov_12_1308,MA_Theta_Exp,3.0.7,57.683034036871234,
video/Experiment/zh_sp01_Ad_We_4_NoThetaInAudio_NoVideo.avi,noTheta,noVideo,sp01,Ad,We,4,0,4,flow/blocks/NoThetaInAudio_NoVideo_A.csv,,,,,,,,,0,0,0,0,0,5,5,15,-0.42685185185185187,0.29305555555555557,1,0,0,5.801994100009324,call1,0.0023148148148148147,-0.3347222222222222,1,0,0,6.795774900005199,colour4,0.48009259259259257,-0.3638888888888889,1,0,0,7.456666699989,number4,True,True,True,10,5,2019_Nov_12_1308,MA_Theta_Exp,3.0.7,57.683034036871234,
video/Experiment/zh_sp07_Ad_Ro_1_NoThetaInAudio_NoVideo.avi,noTheta,noVideo,sp07,Ad,Ro,1,0,4,flow/blocks/NoThetaInAudio_NoVideo_A.csv,,,,,,,,,0,0,0,0,0,6,6,8,-0.38101851851851853,0.30972222222222223,1,0,0,4.726136099983705,call1,0.04675925925925926,0.2791666666666667,1,0,0,6.049936600000365,colour1,0.42453703703703705,0.30694444444444446,1,0,0,6.7735745000245515,number1,True,False,True,10,5,2019_Nov_12_1308,MA_Theta_Exp,3.0.7,57.683034036871234,
video/Experiment/zh_sp01_Dr_Ro_3_NoThetaInAudio_NoVideo.avi,noTheta,noVideo,sp01,Dr,Ro,3,0,4,flow/blocks/NoThetaInAudio_NoVideo_A.csv,,,,,,,,,0,0,0,0,0,7,7,26,-0.4125,0.2902777777777778,1,0,0,5.878673900006106,call1,0.015277777777777777,0.2986111111111111,1,0,0,9.080024499999126,colour1,0.4361111111111111,-0.07361111111111111,1,0,0,9.902331699995557,number3,False,False,True,10,5,2019_Nov_12_1308,MA_Theta_Exp,3.0.7,57.683034036871234,
video/Experiment/zh_sp07_Dr_We_4_NoThetaInAudio_NoVideo.avi,noTheta,noVideo,sp07,Dr,We,4,0,4,flow/blocks/NoThetaInAudio_NoVideo_A.csv,,,,,,,,,0,0,0,0,0,8,8,31,-0.4222222222222222,0.30277777777777776,1,0,0,4.838250999979209,call1,-0.011574074074074073,-0.33055555555555555,1,0,0,5.785295200010296,colour4,0.44675925925925924,-0.325,1,0,0,6.602208399999654,number4,False,True,True,10,5,2019_Nov_12_1308,MA_Theta_Exp,3.0.7,57.683034036871234,
video/Experiment/zh_sp07_Dr_Gr_2_NoThetaInAudio_NoVideo.avi,noTheta,noVideo,sp07,Dr,Gr,2,0,4,flow/blocks/NoThetaInAudio_NoVideo_A.csv,,,,,,,,,0,0,0,0,0,9,9,21,-0.4097222222222222,0.3,1,0,0,5.251815100025851,call1,-0.01990740740740741,0.1,1,0,0,6.104264199995669,colour2,0.41898148148148145,0.10972222222222222,1,0,0,6.774363600008655,number2,False,True,True,10,5,2019_Nov_12_1308,MA_Theta_Exp,3.0.7,57.683034036871234,
video/Experiment/zh_sp01_Ad_Ge_3_NoThetaInAudio_NoVideo.avi,noTheta,noVideo,sp01,Ad,Ge,3,0,4,flow/blocks/NoThetaInAudio_NoVideo_A.csv,,,,,,,,,0,0,0,0,0,10,10,2,-0.4166666666666667,0.32083333333333336,1,0,0,5.41996410000138,call1,-0.014351851851851852,0.33194444444444443,1,0,0,6.095410299982177,colour1,0.3958333333333333,-0.1,1,0,0,6.780362299992703,number3,True,True,True,10,5,2019_Nov_12_1308,MA_Theta_Exp,3.0.7,57.683034036871234,
video/Experiment/zh_sp07_Ad_Ge_4_NoThetaInAudio_NoVideo.avi,noTheta,noVideo,sp07,Ad,Ge,4,0,4,flow/blocks/NoThetaInAudio_NoVideo_A.csv,,,,,,,,,0,0,0,0,0,11,11,3,-0.40879629629629627,0.275,1,0,0,4.972235300025204,call1,0.000925925925925926,0.30833333333333335,1,0,0,5.671451300004264,colour1,0.3972222222222222,-0.3263888888888889,1,0,0,6.7054118999803904,number4,True,True,True,10,5,2019_Nov_12_1308,MA_Theta_Exp,3.0.7,57.683034036871234,
video/Experiment/zh_sp07_Ad_Ro_2_NoThetaInAudio_NoVideo.avi,noTheta,noVideo,sp07,Ad,Ro,2,0,4,flow/blocks/NoThetaInAudio_NoVideo_A.csv,,,,,,,,,0,0,0,0,0,12,12,9,-0.3763888888888889,0.2972222222222222,1,0,0,4.963252799992915,call1,-0.03657407407407407,0.29583333333333334,1,0,0,5.63499540000339,colour1,0.4527777777777778,0.09027777777777778,1,0,0,6.267743300006259,number2,True,False,True,10,5,2019_Nov_12_1308,MA_Theta_Exp,3.0.7,57.683034036871234,
video/Experiment/zh_sp07_Ad_Gr_2_NoThetaInAudio_NoVideo.avi,noTheta,noVideo,sp07,Ad,Gr,2,0,4,flow/blocks/NoThetaInAudio_NoVideo_A.csv,,,,,,,,,0,0,0,0,0,13,13,5,-0.3824074074074074,0.32222222222222224,1,0,0,4.634330900007626,call1,-0.031018518518518518,0.12222222222222222,1,0,0,5.252558200008934,colour2,0.4041666666666667,0.05416666666666667,1,0,0,5.874778299999889,number2,True,True,True,10,5,2019_Nov_12_1308,MA_Theta_Exp,3.0.7,57.683034036871234,
video/Experiment/zh_sp07_Dr_Ge_1_NoThetaInAudio_NoVideo.avi,noTheta,noVideo,sp07,Dr,Ge,1,0,4,flow/blocks/NoThetaInAudio_NoVideo_A.csv,,,,,,,,,0,0,0,0,0,14,14,16,-0.3837962962962963,0.2763888888888889,1,0,0,4.642498000001069,call1,-0.03935185185185185,0.3013888888888889,1,0,0,5.222192499990342,colour1,0.47175925925925927,0.30277777777777776,1,0,0,5.788320399995428,number1,False,True,True,10,5,2019_Nov_12_1308,MA_Theta_Exp,3.0.7,57.683034036871234,
video/Experiment/zh_sp01_Dr_We_1_NoThetaInAudio_NoVideo.avi,noTheta,noVideo,sp01,Dr,We,1,0,4,flow/blocks/NoThetaInAudio_NoVideo_A.csv,,,,,,,,,0,0,0,0,0,15,15,28,-0.42268518518518516,0.3194444444444444,1,0,0,5.547768799995538,call1,0.01898148148148148,-0.3486111111111111,1,0,0,6.501580700016348,colour4,0.43472222222222223,0.3055555555555556,1,0,0,7.468178000010084,number1,False,True,True,10,5,2019_Nov_12_1308,MA_Theta_Exp,3.0.7,57.683034036871234,
video/Experiment/zh_sp07_Dr_Ro_1_NoThetaInAudio_NoVideo.avi,noTheta,noVideo,sp07,Dr,Ro,1,0,4,flow/blocks/NoThetaInAudio_NoVideo_A.csv,,,,,,,,,0,0,0,0,0,16,16,24,-0.3907407407407407,0.3263888888888889,1,0,0,5.076420099998359,call1,0.016666666666666666,-0.10694444444444444,1,0,0,5.766417100006947,colour3,0.4300925925925926,0.2902777777777778,1,0,0,6.6770515000098385,number1,False,True,True,10,5,2019_Nov_12_1308,MA_Theta_Exp,3.0.7,57.683034036871234,
video/Experiment/zh_sp01_Ad_We_3_NoThetaInAudio_NoVideo.avi,noTheta,noVideo,sp01,Ad,We,3,0,4,flow/blocks/NoThetaInAudio_NoVideo_A.csv,,,,,,,,,0,0,0,0,0,17,17,14,-0.4101851851851852,0.3416666666666667,1,0,0,5.368689800001448,call1,0.034722222222222224,-0.32083333333333336,1,0,0,6.331328400003258,colour4,0.3675925925925926,-0.1,1,0,0,7.145538000011584,number3,True,True,True,10,5,2019_Nov_12_1308,MA_Theta_Exp,3.0.7,57.683034036871234,
video/Experiment/zh_sp07_Ad_Ge_2_NoThetaInAudio_NoVideo.avi,noTheta,noVideo,sp07,Ad,Ge,2,0,4,flow/blocks/NoThetaInAudio_NoVideo_A.csv,,,,,,,,,0,0,0,0,0,18,18,1,-0.42824074074074076,0.3111111111111111,1,0,0,5.044129099987913,call1,-0.001851851851851852,0.09027777777777778,1,0,0,6.057202800002415,colour2,0.4064814814814815,0.08055555555555556,1,0,0,6.7687347999890335,number2,True,False,True,10,5,2019_Nov_12_1308,MA_Theta_Exp,3.0.7,57.683034036871234,
video/Experiment/zh_sp01_Dr_Gr_4_NoThetaInAudio_NoVideo.avi,noTheta,noVideo,sp01,Dr,Gr,4,0,4,flow/blocks/NoThetaInAudio_NoVideo_A.csv,,,,,,,,,0,0,0,0,0,19,19,23,-0.44027777777777777,0.3625,1,0,0,5.192158999998355,call1,-0.05185185185185185,0.12777777777777777,1,0,0,5.935051000007661,colour2,0.4111111111111111,-0.2861111111111111,1,0,0,6.843725300015649,number4,False,True,True,10,5,2019_Nov_12_1308,MA_Theta_Exp,3.0.7,57.683034036871234,
video/Experiment/zh_sp07_Dr_Ge_2_NoThetaInAudio_NoVideo.avi,noTheta,noVideo,sp07,Dr,Ge,2,0,4,flow/blocks/NoThetaInAudio_NoVideo_A.csv,,,,,,,,,0,0,0,0,0,20,20,17,-0.39166666666666666,0.33611111111111114,1,0,0,4.638066699990304,call1,-0.04351851851851852,0.2652777777777778,1,0,0,5.364903600013349,colour1,0.43472222222222223,0.09166666666666666,1,0,0,6.311515300010797,number2,False,True,True,10,5,2019_Nov_12_1308,MA_Theta_Exp,3.0.7,57.683034036871234,
video/Experiment/zh_sp01_Dr_We_2_NoThetaInAudio_NoVideo.avi,noTheta,noVideo,sp01,Dr,We,2,0,4,flow/blocks/NoThetaInAudio_NoVideo_A.csv,,,,,,,,,0,0,0,0,0,21,21,29,-0.3976851851851852,0.325,1,0,0,5.485189700004412,call1,-0.012962962962962963,-0.35,1,0,0,6.431218999990961,colour4,0.38564814814814813,0.1111111111111111,1,0,0,7.299875600001542,number2,False,True,True,10,5,2019_Nov_12_1308,MA_Theta_Exp,3.0.7,57.683034036871234,
video/Experiment/zh_sp07_Ad_Ge_1_NoThetaInAudio_NoVideo.avi,noTheta,noVideo,sp07,Ad,Ge,1,0,4,flow/blocks/NoThetaInAudio_NoVideo_A.csv,,,,,,,,,0,0,0,0,0,22,22,0,-0.43796296296296294,0.3236111111111111,1,0,0,4.592914299981203,call1,0.06759259259259259,0.2652777777777778,1,0,0,5.379535800020676,colour1,0.4550925925925926,0.29305555555555557,1,0,0,6.1035981999884825,number1,True,True,True,10,5,2019_Nov_12_1308,MA_Theta_Exp,3.0.7,57.683034036871234,
video/Experiment/zh_sp01_Ad_We_2_NoThetaInAudio_NoVideo.avi,noTheta,noVideo,sp01,Ad,We,2,0,4,flow/blocks/NoThetaInAudio_NoVideo_A.csv,,,,,,,,,0,0,0,0,0,23,23,13,-0.36666666666666664,0.31666666666666665,1,0,0,5.880660499999067,call1,-0.058333333333333334,-0.22916666666666666,1,0,0,6.642816400009906,colour4,0.4537037037037037,0.0875,1,0,0,7.686391700000968,number2,True,True,True,10,5,2019_Nov_12_1308,MA_Theta_Exp,3.0.7,57.683034036871234,
video/Experiment/zh_sp07_Dr_Gr_3_NoThetaInAudio_NoVideo.avi,noTheta,noVideo,sp07,Dr,Gr,3,0,4,flow/blocks/NoThetaInAudio_NoVideo_A.csv,,,,,,,,,0,0,0,0,0,24,24,22,-0.4101851851851852,0.33055555555555555,1,0,0,4.736470799980452,call1,-0.03657407407407407,0.14305555555555555,1,0,0,5.631211200001417,colour2,0.4263888888888889,-0.10138888888888889,1,0,0,6.4082820000185166,number3,False,True,True,10,5,2019_Nov_12_1308,MA_Theta_Exp,3.0.7,57.683034036871234,
video/Experiment/zh_sp07_Dr_Gr_1_NoThetaInAudio_NoVideo.avi,noTheta,noVideo,sp07,Dr,Gr,1,0,4,flow/blocks/NoThetaInAudio_NoVideo_A.csv,,,,,,,,,0,0,0,0,0,25,25,20,-0.38657407407407407,0.11388888888888889,1,0,0,4.916017999988981,call2,0.014814814814814815,0.09583333333333334,1,0,0,6.2043472999939695,colour2,0.3662037037037037,0.26805555555555555,1,0,0,6.91810730000725,number1,True,True,True,10,5,2019_Nov_12_1308,MA_Theta_Exp,3.0.7,57.683034036871234,
video/Experiment/zh_sp01_Ad_Ro_3_NoThetaInAudio_NoVideo.avi,noTheta,noVideo,sp01,Ad,Ro,3,0,4,flow/blocks/NoThetaInAudio_NoVideo_A.csv,,,,,,,,,0,0,0,0,0,26,26,10,-0.3638888888888889,0.2902777777777778,1,0,0,5.400065499998163,call1,0.004166666666666667,0.30416666666666664,1,0,0,6.822266800008947,colour1,0.3648148148148148,-0.07916666666666666,1,0,0,7.67757120000897,number3,True,False,True,10,5,2019_Nov_12_1308,MA_Theta_Exp,3.0.7,57.683034036871234,
video/Experiment/zh_sp01_Ad_Ro_4_NoThetaInAudio_NoVideo.avi,noTheta,noVideo,sp01,Ad,Ro,4,0,4,flow/blocks/NoThetaInAudio_NoVideo_A.csv,,,,,,,,,0,0,0,0,0,27,27,11,-0.412962962962963,0.29583333333333334,1,0,0,5.443723200005479,call1,-0.014351851851851852,0.10972222222222222,1,0,0,6.224107699992601,colour2,0.42777777777777776,-0.30833333333333335,1,0,0,7.112166900013108,number4,True,False,True,10,5,2019_Nov_12_1308,MA_Theta_Exp,3.0.7,57.683034036871234,
video/Experiment/zh_sp07_Ad_Gr_4_NoThetaInAudio_NoVideo.avi,noTheta,noVideo,sp07,Ad,Gr,4,0,4,flow/blocks/NoThetaInAudio_NoVideo_A.csv,,,,,,,,,0,0,0,0,0,28,28,7,-0.4060185185185185,0.3,1,0,0,4.965809499990428,call1,0.025,0.07916666666666666,1,0,0,5.963439199986169,colour2,0.4162037037037037,-0.29444444444444445,1,0,0,6.6523949000111315,number4,True,True,True,10,5,2019_Nov_12_1308,MA_Theta_Exp,3.0.7,57.683034036871234,
video/Experiment/zh_sp01_Ad_We_1_NoThetaInAudio_NoVideo.avi,noTheta,noVideo,sp01,Ad,We,1,0,4,flow/blocks/NoThetaInAudio_NoVideo_A.csv,,,,,,,,,0,0,0,0,0,29,29,12,-0.41388888888888886,0.3263888888888889,1,0,0,5.143662400019821,call1,-0.040740740740740744,-0.3277777777777778,1,0,0,6.22224339999957,colour4,0.45787037037037037,0.30416666666666664,1,0,0,7.274093699990772,number1,True,True,True,10,5,2019_Nov_12_1308,MA_Theta_Exp,3.0.7,57.683034036871234,
video/Experiment/zh_sp01_Dr_Ro_4_NoThetaInAudio_NoVideo.avi,noTheta,noVideo,sp01,Dr,Ro,4,0,4,flow/blocks/NoThetaInAudio_NoVideo_A.csv,,,,,,,,,0,0,0,0,0,30,30,27,-0.39166666666666666,0.2972222222222222,1,0,0,5.374815500021214,call1,-0.02546296296296296,-0.10833333333333334,1,0,0,6.287170600000536,colour3,0.41944444444444445,-0.325,1,0,0,7.057121399993775,number4,False,True,True,10,5,2019_Nov_12_1308,MA_Theta_Exp,3.0.7,57.683034036871234,
video/Experiment/zh_sp01_Ad_Gr_3_NoThetaInAudio_NoVideo.avi,noTheta,noVideo,sp01,Ad,Gr,3,0,4,flow/blocks/NoThetaInAudio_NoVideo_A.csv,,,,,,,,,0,0,0,0,0,31,31,6,-0.3824074074074074,0.3541666666666667,1,0,0,5.029695000004722,call1,-0.0060185185185185185,0.12777777777777777,1,0,0,6.2955761999764945,colour2,0.46805555555555556,-0.1361111111111111,1,0,0,7.3795243999920785,number3,True,True,True,10,5,2019_Nov_12_1308,MA_Theta_Exp,3.0.7,57.683034036871234,
video/Experiment/zh_sp07_Dr_Ge_3_NVocInAudio_NoVideo.avi,vocoded,noVideo,sp07,Dr,Ge,3,1,2,flow/blocks/NVocInAudio_NoVideo_A.csv,,,,,,,,,0,1,1,1,0,0,0,18,-0.004629629629629629,0.30416666666666664,1,0,0,8.32097669999348,call2,0.0412037037037037,0.29444444444444445,1,0,0,12.001815900002839,colour1,0.3814814814814815,-0.07361111111111111,1,0,0,12.773589599994011,number3,True,True,True,10,5,2019_Nov_12_1308,MA_Theta_Exp,3.0.7,57.683034036871234,
video/Experiment/zh_sp01_Dr_Gr_4_NVocInAudio_NoVideo.avi,vocoded,noVideo,sp01,Dr,Gr,4,1,2,flow/blocks/NVocInAudio_NoVideo_A.csv,,,,,,,,,0,1,1,1,0,1,1,23,-0.4449074074074074,0.11805555555555555,1,0,0,5.9165018999774475,call2,-0.031018518518518518,0.0875,1,0,0,6.578272000013385,colour2,0.37037037037037035,-0.325,1,0,0,7.341688899992732,number4,True,True,True,10,5,2019_Nov_12_1308,MA_Theta_Exp,3.0.7,57.683034036871234,
video/Experiment/zh_sp07_Dr_Ro_2_NVocInAudio_NoVideo.avi,vocoded,noVideo,sp07,Dr,Ro,2,1,2,flow/blocks/NVocInAudio_NoVideo_A.csv,,,,,,,,,0,1,1,1,0,2,2,25,-0.4083333333333333,0.09166666666666666,1,0,0,4.668382600008044,call2,-0.047685185185185185,-0.09861111111111111,1,0,0,5.301527899981011,colour3,0.4203703703703704,0.09722222222222222,1,0,0,6.13724579999689,number2,True,True,True,10,5,2019_Nov_12_1308,MA_Theta_Exp,3.0.7,57.683034036871234,
video/Experiment/zh_sp01_Ad_Gr_2_NVocInAudio_NoVideo.avi,vocoded,noVideo,sp01,Ad,Gr,2,1,2,flow/blocks/NVocInAudio_NoVideo_A.csv,,,,,,,,,0,1,1,1,0,3,3,5,-0.3611111111111111,0.3138888888888889,1,0,0,5.5178476000146475,call1,-0.04490740740740741,0.11527777777777778,1,0,0,6.3239879999891855,colour2,0.36064814814814816,0.11666666666666667,1,0,0,7.138324500003364,number2,True,True,True,10,5,2019_Nov_12_1308,MA_Theta_Exp,3.0.7,57.683034036871234,
video/Experiment/zh_sp01_Dr_We_4_NVocInAudio_NoVideo.avi,vocoded,noVideo,sp01,Dr,We,4,1,2,flow/blocks/NVocInAudio_NoVideo_A.csv,,,,,,,,,0,1,1,1,0,4,4,31,-0.4083333333333333,0.09166666666666666,1,0,0,5.408928899996681,call2,0.0023148148148148147,-0.31527777777777777,1,0,0,6.274824700027239,colour4,0.399537037037037,-0.325,1,0,0,7.047666899976321,number4,True,True,True,10,5,2019_Nov_12_1308,MA_Theta_Exp,3.0.7,57.683034036871234,
video/Experiment/zh_sp01_Ad_We_3_NVocInAudio_NoVideo.avi,vocoded,noVideo,sp01,Ad,We,3,1,2,flow/blocks/NVocInAudio_NoVideo_A.csv,,,,,,,,,0,1,1,1,0,5,5,14,-0.37083333333333335,0.325,1,0,0,5.174971500004176,call1,-0.008796296296296297,-0.32916666666666666,1,0,0,6.188412600022275,colour4,0.43425925925925923,-0.13472222222222222,1,0,0,7.117300699988846,number3,True,True,True,10,5,2019_Nov_12_1308,MA_Theta_Exp,3.0.7,57.683034036871234,
video/Experiment/zh_sp07_Dr_Gr_3_NVocInAudio_NoVideo.avi,vocoded,noVideo,sp07,Dr,Gr,3,1,2,flow/blocks/NVocInAudio_NoVideo_A.csv,,,,,,,,,0,1,1,1,0,6,6,22,-0.4,0.1,1,0,0,4.888887499982957,call2,0.003703703703703704,0.11388888888888889,1,0,0,5.579289700021036,colour2,0.3773148148148148,-0.10972222222222222,1,0,0,6.330366600013804,number3,True,True,True,10,5,2019_Nov_12_1308,MA_Theta_Exp,3.0.7,57.683034036871234,
video/Experiment/zh_sp01_Dr_Ro_3_NVocInAudio_NoVideo.avi,vocoded,noVideo,sp01,Dr,Ro,3,1,2,flow/blocks/NVocInAudio_NoVideo_A.csv,,,,,,,,,0,1,1,1,0,7,7,26,-0.3962962962962963,0.13194444444444445,1,0,0,4.896538899978623,call2,0.020370370370370372,-0.10833333333333334,1,0,0,5.722598399996059,colour3,0.4203703703703704,-0.10694444444444444,1,0,0,6.472253000014462,number3,True,True,True,10,5,2019_Nov_12_1308,MA_Theta_Exp,3.0.7,57.683034036871234,
video/Experiment/zh_sp01_Ad_We_2_NVocInAudio_NoVideo.avi,vocoded,noVideo,sp01,Ad,We,2,1,2,flow/blocks/NVocInAudio_NoVideo_A.csv,,,,,,,,,0,1,1,1,0,8,8,13,-0.34305555555555556,0.30277777777777776,1,0,0,5.744467000011355,call1,-0.026851851851851852,-0.33055555555555555,1,0,0,6.707959599996684,colour4,0.4009259259259259,0.1125,1,0,0,7.778850500006229,number2,True,True,True,10,5,2019_Nov_12_1308,MA_Theta_Exp,3.0.7,57.683034036871234,
video/Experiment/zh_sp07_Ad_We_1_NVocInAudio_NoVideo.avi,vocoded,noVideo,sp07,Ad,We,1,1,2,flow/blocks/NVocInAudio_NoVideo_A.csv,,,,,,,,,0,1,1,1,0,9,9,12,-0.40046296296296297,0.10972222222222222,1,0,0,4.676328500005184,call2,-0.0032407407407407406,-0.33194444444444443,1,0,0,5.426991999993334,colour4,0.425,0.2763888888888889,1,0,0,6.179432800010545,number1,False,True,True,10,5,2019_Nov_12_1308,MA_Theta_Exp,3.0.7,57.683034036871234,
video/Experiment/zh_sp07_Ad_Ro_4_NVocInAudio_NoVideo.avi,vocoded,noVideo,sp07,Ad,Ro,4,1,2,flow/blocks/NVocInAudio_NoVideo_A.csv,,,,,,,,,0,1,1,1,0,10,10,11,-0.42685185185185187,0.30833333333333335,1,0,0,4.747119100007694,call1,-0.000462962962962963,-0.09166666666666666,1,0,0,5.563455499999691,colour3,0.39166666666666666,-0.3472222222222222,1,0,0,6.380507900001248,number4,True,True,True,10,5,2019_Nov_12_1308,MA_Theta_Exp,3.0.7,57.683034036871234,
video/Experiment/zh_sp01_Ad_We_4_NVocInAudio_NoVideo.avi,vocoded,noVideo,sp01,Ad,We,4,1,2,flow/blocks/NVocInAudio_NoVideo_A.csv,,,,,,,,,0,1,1,1,0,11,11,15,-0.36712962962962964,0.3680555555555556,1,0,0,5.499374699982582,call1,0.001388888888888889,-0.32222222222222224,1,0,0,6.523796800000127,colour4,0.3763888888888889,-0.36527777777777776,1,0,0,7.262357300001895,number4,True,True,True,10,5,2019_Nov_12_1308,MA_Theta_Exp,3.0.7,57.683034036871234,
video/Experiment/zh_sp07_Ad_Gr_1_NVocInAudio_NoVideo.avi,vocoded,noVideo,sp07,Ad,Gr,1,1,2,flow/blocks/NVocInAudio_NoVideo_A.csv,,,,,,,,,0,1,1,1,0,12,12,4,-0.4083333333333333,0.30833333333333335,1,0,0,4.572483600000851,call1,0.017592592592592594,0.11805555555555555,1,0,0,5.315161700011231,colour2,0.399537037037037,0.3125,1,0,0,6.013156500004698,number1,True,True,True,10,5,2019_Nov_12_1308,MA_Theta_Exp,3.0.7,57.683034036871234,
video/Experiment/zh_sp01_Dr_Ro_1_NVocInAudio_NoVideo.avi,vocoded,noVideo,sp01,Dr,Ro,1,1,2,flow/blocks/NVocInAudio_NoVideo_A.csv,,,,,,,,,0,1,1,1,0,13,13,24,-0.4337962962962963,0.09166666666666666,1,0,0,5.499212599999737,call2,0.03981481481481482,-0.10138888888888889,1,0,0,6.292939500010107,colour3,0.37592592592592594,0.2861111111111111,1,0,0,7.056402599991998,number1,True,True,True,10,5,2019_Nov_12_1308,MA_Theta_Exp,3.0.7,57.683034036871234,
video/Experiment/zh_sp01_Ad_Gr_4_NVocInAudio_NoVideo.avi,vocoded,noVideo,sp01,Ad,Gr,4,1,2,flow/blocks/NVocInAudio_NoVideo_A.csv,,,,,,,,,0,1,1,1,0,14,14,7,-0.3907407407407407,0.3277777777777778,1,0,0,5.196671100013191,call1,0.017592592592592594,0.11805555555555555,1,0,0,5.884084799996344,colour2,0.41898148148148145,-0.36944444444444446,1,0,0,6.601666499977,number4,True,True,True,10,5,2019_Nov_12_1308,MA_Theta_Exp,3.0.7,57.683034036871234,
video/Experiment/zh_sp01_Ad_Ro_3_NVocInAudio_NoVideo.avi,vocoded,noVideo,sp01,Ad,Ro,3,1,2,flow/blocks/NVocInAudio_NoVideo_A.csv,,,,,,,,,0,1,1,1,0,15,15,10,-0.3921296296296296,0.3194444444444444,1,0,0,5.037576000002446,call1,-0.000462962962962963,-0.12083333333333333,1,0,0,5.844406100019114,colour3,0.4203703703703704,-0.1361111111111111,1,0,0,6.484647199977189,number3,True,True,True,10,5,2019_Nov_12_1308,MA_Theta_Exp,3.0.7,57.683034036871234,
video/Experiment/zh_sp01_Dr_Ro_4_NVocInAudio_NoVideo.avi,vocoded,noVideo,sp01,Dr,Ro,4,1,2,flow/blocks/NVocInAudio_NoVideo_A.csv,,,,,,,,,0,1,1,1,0,16,16,27,-0.4236111111111111,0.10416666666666667,1,0,0,5.235411200003,call2,-0.010185185185185186,-0.08194444444444444,1,0,0,5.906101500004297,colour3,0.3939814814814815,-0.30972222222222223,1,0,0,6.602214799990179,number4,True,True,True,10,5,2019_Nov_12_1308,MA_Theta_Exp,3.0.7,57.683034036871234,
video/Experiment/zh_sp07_Dr_Ge_4_NVocInAudio_NoVideo.avi,vocoded,noVideo,sp07,Dr,Ge,4,1,2,flow/blocks/NVocInAudio_NoVideo_A.csv,,,,,,,,,0,1,1,1,0,17,17,19,-0.3990740740740741,0.08611111111111111,1,0,0,4.935623800003668,call2,-0.011574074074074073,0.2916666666666667,1,0,0,5.741878199973144,colour1,0.3578703703703704,-0.3333333333333333,1,0,0,6.531889400008367,number4,True,True,True,10,5,2019_Nov_12_1308,MA_Theta_Exp,3.0.7,57.683034036871234,
video/Experiment/zh_sp07_Ad_Ge_1_NVocInAudio_NoVideo.avi,vocoded,noVideo,sp07,Ad,Ge,1,1,2,flow/blocks/NVocInAudio_NoVideo_A.csv,,,,,,,,,0,1,1,1,0,18,18,0,-0.3435185185185185,0.29583333333333334,1,0,0,4.97726590000093,call1,-0.046296296296296294,0.30694444444444446,1,0,0,5.648960899998201,colour1,0.38564814814814813,0.3013888888888889,1,0,0,6.2532362999918405,number1,True,True,True,10,5,2019_Nov_12_1308,MA_Theta_Exp,3.0.7,57.683034036871234,
video/Experiment/zh_sp07_Dr_We_1_NVocInAudio_NoVideo.avi,vocoded,noVideo,sp07,Dr,We,1,1,2,flow/blocks/NVocInAudio_NoVideo_A.csv,,,,,,,,,0,1,1,1,0,19,19,28,-0.39351851851851855,0.12361111111111112,1,0,0,5.075471299991477,call2,-0.0060185185185185185,-0.36666666666666664,1,0,0,5.8536479999893345,colour4,0.42314814814814816,0.29305555555555557,1,0,0,6.89166930000647,number1,True,True,True,10,5,2019_Nov_12_1308,MA_Theta_Exp,3.0.7,57.683034036871234,
video/Experiment/zh_sp07_Ad_Ro_1_NVocInAudio_NoVideo.avi,vocoded,noVideo,sp07,Ad,Ro,1,1,2,flow/blocks/NVocInAudio_NoVideo_A.csv,,,,,,,,,0,1,1,1,0,20,20,8,-0.40555555555555556,0.32916666666666666,1,0,0,4.613327899976866,call1,-0.021296296296296296,-0.10138888888888889,1,0,0,5.272022999997716,colour3,0.4356481481481482,0.30277777777777776,1,0,0,6.147668399993563,number1,True,True,True,10,5,2019_Nov_12_1308,MA_Theta_Exp,3.0.7,57.683034036871234,
video/Experiment/zh_sp07_Ad_Ro_2_NVocInAudio_NoVideo.avi,vocoded,noVideo,sp07,Ad,Ro,2,1,2,flow/blocks/NVocInAudio_NoVideo_A.csv,,,,,,,,,0,1,1,1,0,21,21,9,-0.4212962962962963,0.32083333333333336,1,0,0,4.6875409000203945,call1,-0.007407407407407408,-0.10138888888888889,1,0,0,5.536032000003615,colour3,0.4023148148148148,0.1,1,0,0,6.340171099989675,number2,True,True,True,10,5,2019_Nov_12_1308,MA_Theta_Exp,3.0.7,57.683034036871234,
video/Experiment/zh_sp01_Ad_Gr_3_NVocInAudio_NoVideo.avi,vocoded,noVideo,sp01,Ad,Gr,3,1,2,flow/blocks/NVocInAudio_NoVideo_A.csv,,,,,,,,,0,1,1,1,0,22,22,6,-0.4476851851851852,0.3111111111111111,1,0,0,5.303042300016386,call1,0.000925925925925926,0.09722222222222222,1,0,0,6.014417200000025,colour2,0.43472222222222223,-0.10555555555555556,1,0,0,6.72866900000372,number3,True,True,True,10,5,2019_Nov_12_1308,MA_Theta_Exp,3.0.7,57.683034036871234,
video/Experiment/zh_sp07_Dr_Ge_2_NVocInAudio_NoVideo.avi,vocoded,noVideo,sp07,Dr,Ge,2,1,2,flow/blocks/NVocInAudio_NoVideo_A.csv,,,,,,,,,0,1,1,1,0,23,23,17,-0.4199074074074074,0.10694444444444444,1,0,0,4.752816700027324,call2,0.03981481481481482,0.2833333333333333,1,0,0,5.552593699976569,colour1,0.39814814814814814,0.13333333333333333,1,0,0,6.241110400005709,number2,True,True,True,10,5,2019_Nov_12_1308,MA_Theta_Exp,3.0.7,57.683034036871234,
video/Experiment/zh_sp01_Dr_Ge_1_NVocInAudio_NoVideo.avi,vocoded,noVideo,sp01,Dr,Ge,1,1,2,flow/blocks/NVocInAudio_NoVideo_A.csv,,,,,,,,,0,1,1,1,0,24,24,16,-0.38796296296296295,0.09722222222222222,1,0,0,5.819736000004923,call2,-0.011574074074074073,0.30416666666666664,1,0,0,6.591776799992658,colour1,0.4648148148148148,0.32222222222222224,1,0,0,7.260262199997669,number1,True,True,True,10,5,2019_Nov_12_1308,MA_Theta_Exp,3.0.7,57.683034036871234,
video/Experiment/zh_sp07_Dr_Gr_1_NVocInAudio_NoVideo.avi,vocoded,noVideo,sp07,Dr,Gr,1,1,2,flow/blocks/NVocInAudio_NoVideo_A.csv,,,,,,,,,0,1,1,1,0,25,25,20,-0.4166666666666667,0.06944444444444445,1,0,0,4.584672299999511,call2,0.022222222222222223,0.1125,1,0,0,5.267101900011767,colour2,0.42777777777777776,0.3138888888888889,1,0,0,6.079713699989952,number1,True,True,True,10,5,2019_Nov_12_1308,MA_Theta_Exp,3.0.7,57.683034036871234,
video/Experiment/zh_sp07_Dr_Gr_2_NVocInAudio_NoVideo.avi,vocoded,noVideo,sp07,Dr,Gr,2,1,2,flow/blocks/NVocInAudio_NoVideo_A.csv,,,,,,,,,0,1,1,1,0,26,26,21,-0.38796296296296295,0.08194444444444444,1,0,0,4.625598599988734,call2,-0.004629629629629629,0.11388888888888889,1,0,0,5.285396799998125,colour2,0.46111111111111114,0.10833333333333334,1,0,0,5.891645800002152,number2,True,True,True,10,5,2019_Nov_12_1308,MA_Theta_Exp,3.0.7,57.683034036871234,
video/Experiment/zh_sp01_Ad_Ge_3_NVocInAudio_NoVideo.avi,vocoded,noVideo,sp01,Ad,Ge,3,1,2,flow/blocks/NVocInAudio_NoVideo_A.csv,,,,,,,,,0,1,1,1,0,27,27,2,-0.38055555555555554,0.2986111111111111,1,0,0,4.836437400022987,call1,0.016203703703703703,0.3013888888888889,1,0,0,5.390539299987722,colour1,0.43425925925925923,-0.09583333333333334,1,0,0,6.175204700004542,number3,True,True,True,10,5,2019_Nov_12_1308,MA_Theta_Exp,3.0.7,57.683034036871234,
video/Experiment/zh_sp07_Dr_We_2_NVocInAudio_NoVideo.avi,vocoded,noVideo,sp07,Dr,We,2,1,2,flow/blocks/NVocInAudio_NoVideo_A.csv,,,,,,,,,0,1,1,1,0,28,28,29,-0.43333333333333335,0.08194444444444444,1,0,0,4.980578099988634,call2,-0.001851851851851852,-0.3458333333333333,1,0,0,6.008128299989039,colour4,0.4236111111111111,0.10138888888888889,1,0,0,6.944726899993839,number2,True,True,True,10,5,2019_Nov_12_1308,MA_Theta_Exp,3.0.7,57.683034036871234,
video/Experiment/zh_sp01_Ad_Ge_2_NVocInAudio_NoVideo.avi,vocoded,noVideo,sp01,Ad,Ge,2,1,2,flow/blocks/NVocInAudio_NoVideo_A.csv,,,,,,,,,0,1,1,1,0,29,29,1,-0.38796296296296295,0.32222222222222224,1,0,0,5.243259100010619,call1,0.012037037037037037,0.3611111111111111,1,0,0,5.922400799987372,colour1,0.38564814814814813,0.14166666666666666,1,0,0,6.789592400018591,number2,True,True,True,10,5,2019_Nov_12_1308,MA_Theta_Exp,3.0.7,57.683034036871234,
video/Experiment/zh_sp01_Dr_We_3_NVocInAudio_NoVideo.avi,vocoded,noVideo,sp01,Dr,We,3,1,2,flow/blocks/NVocInAudio_NoVideo_A.csv,,,,,,,,,0,1,1,1,0,30,30,30,-0.39351851851851855,0.08611111111111111,1,0,0,5.234226200002013,call2,0.027777777777777776,-0.32916666666666666,1,0,0,6.211870600003749,colour4,0.46620370370370373,-0.1125,1,0,0,6.9767365000152495,number3,True,True,True,10,5,2019_Nov_12_1308,MA_Theta_Exp,3.0.7,57.683034036871234,
video/Experiment/zh_sp07_Ad_Ge_4_NVocInAudio_NoVideo.avi,vocoded,noVideo,sp07,Ad,Ge,4,1,2,flow/blocks/NVocInAudio_NoVideo_A.csv,,,,,,,,,0,1,1,1,0,31,31,3,-0.4199074074074074,0.30833333333333335,1,0,0,5.069802999991225,call1,-0.02824074074074074,0.33055555555555555,1,0,0,5.906502500001807,colour1,0.42777777777777776,-0.3194444444444444,1,0,0,6.797778499982087,number4,True,True,True,10,5,2019_Nov_12_1308,MA_Theta_Exp,3.0.7,57.683034036871234,
video/Experiment/zh_sp01_Dr_We_3_NoThetaInAudio_GlobalThetaInVideo.avi,noTheta,plusVideo,sp01,Dr,We,3,2,3,flow/blocks/NoThetaInAudio_GlobalThetaInVideo_A.csv,,,,,,,,,0,2,2,2,0,0,0,30,-0.3837962962962963,0.11805555555555555,1,0,0,5.634204000001773,call2,-0.03657407407407407,-0.2833333333333333,1,0,0,6.534221999987494,colour4,0.40694444444444444,-0.14305555555555555,1,0,0,7.352888699999312,number3,True,True,True,10,5,2019_Nov_12_1308,MA_Theta_Exp,3.0.7,57.683034036871234,
video/Experiment/zh_sp07_Dr_Ro_4_NoThetaInAudio_GlobalThetaInVideo.avi,noTheta,plusVideo,sp07,Dr,Ro,4,2,3,flow/blocks/NoThetaInAudio_GlobalThetaInVideo_A.csv,,,,,,,,,0,2,2,2,0,1,1,27,-0.4199074074074074,0.30833333333333335,1,0,0,6.147604099998716,call1,-0.005555555555555556,-0.09166666666666666,1,0,0,8.928990399988834,colour3,0.4134259259259259,-0.3111111111111111,1,0,0,9.795617099996889,number4,False,True,True,10,5,2019_Nov_12_1308,MA_Theta_Exp,3.0.7,57.683034036871234,
video/Experiment/zh_sp07_Ad_Ro_1_NoThetaInAudio_GlobalThetaInVideo.avi,noTheta,plusVideo,sp07,Ad,Ro,1,2,3,flow/blocks/NoThetaInAudio_GlobalThetaInVideo_A.csv,,,,,,,,,0,2,2,2,0,2,2,8,-0.37777777777777777,0.3263888888888889,1,0,0,4.614828899997519,call1,-0.02824074074074074,-0.08194444444444444,1,0,0,5.433572500012815,colour3,0.4078703703703704,0.3375,1,0,0,6.273657499987166,number1,True,True,True,10,5,2019_Nov_12_1308,MA_Theta_Exp,3.0.7,57.683034036871234,
video/Experiment/zh_sp01_Ad_Ro_2_NoThetaInAudio_GlobalThetaInVideo.avi,noTheta,plusVideo,sp01,Ad,Ro,2,2,3,flow/blocks/NoThetaInAudio_GlobalThetaInVideo_A.csv,,,,,,,,,0,2,2,2,0,3,3,9,-0.4449074074074074,0.3416666666666667,1,0,0,5.621119800023735,call1,0.01898148148148148,-0.10833333333333334,1,0,0,7.2372412999975495,colour3,0.4078703703703704,0.09722222222222222,1,0,0,7.9483053000003565,number2,True,True,True,10,5,2019_Nov_12_1308,MA_Theta_Exp,3.0.7,57.683034036871234,
video/Experiment/zh_sp01_Ad_Ge_3_NoThetaInAudio_GlobalThetaInVideo.avi,noTheta,plusVideo,sp01,Ad,Ge,3,2,3,flow/blocks/NoThetaInAudio_GlobalThetaInVideo_A.csv,,,,,,,,,0,2,2,2,0,4,4,2,-0.4185185185185185,0.30416666666666664,1,0,0,5.324663099978352,call1,-0.007407407407407408,0.3055555555555556,1,0,0,7.0114986000116915,colour1,0.4027777777777778,-0.07777777777777778,1,0,0,8.227869700000156,number3,True,True,True,10,5,2019_Nov_12_1308,MA_Theta_Exp,3.0.7,57.683034036871234,
video/Experiment/zh_sp07_Ad_Ge_2_NoThetaInAudio_GlobalThetaInVideo.avi,noTheta,plusVideo,sp07,Ad,Ge,2,2,3,flow/blocks/NoThetaInAudio_GlobalThetaInVideo_A.csv,,,,,,,,,0,2,2,2,0,5,5,1,-0.40694444444444444,0.32222222222222224,1,0,0,4.679990500007989,call1,-0.03935185185185185,0.31527777777777777,1,0,0,5.40498540000408,colour1,0.4148148148148148,0.09583333333333334,1,0,0,6.080724500003271,number2,True,True,True,10,5,2019_Nov_12_1308,MA_Theta_Exp,3.0.7,57.683034036871234,
video/Experiment/zh_sp07_Dr_Gr_4_NoThetaInAudio_GlobalThetaInVideo.avi,noTheta,plusVideo,sp07,Dr,Gr,4,2,3,flow/blocks/NoThetaInAudio_GlobalThetaInVideo_A.csv,,,,,,,,,0,2,2,2,0,6,6,23,-0.4166666666666667,0.2902777777777778,1,0,0,5.445174399996176,call1,0.03148148148148148,0.11527777777777778,1,0,0,6.569192099996144,colour2,0.42083333333333334,-0.12361111111111112,1,0,0,8.61107909999555,number3,False,True,False,10,5,2019_Nov_12_1308,MA_Theta_Exp,3.0.7,57.683034036871234,
video/Experiment/zh_sp07_Dr_We_1_NoThetaInAudio_GlobalThetaInVideo.avi,noTheta,plusVideo,sp07,Dr,We,1,2,3,flow/blocks/NoThetaInAudio_GlobalThetaInVideo_A.csv,,,,,,,,,0,2,2,2,0,7,7,28,-0.42777777777777776,0.34305555555555556,1,0,0,5.039234099996975,call1,-0.007407407407407408,0.13055555555555556,1,0,0,5.715215100004571,colour2,0.375,0.3347222222222222,1,0,0,6.395015699992655,number1,False,False,True,10,5,2019_Nov_12_1308,MA_Theta_Exp,3.0.7,57.683034036871234,
video/Experiment/zh_sp01_Ad_Ge_4_NoThetaInAudio_GlobalThetaInVideo.avi,noTheta,plusVideo,sp01,Ad,Ge,4,2,3,flow/blocks/NoThetaInAudio_GlobalThetaInVideo_A.csv,,,,,,,,,0,2,2,2,0,8,8,3,-0.41712962962962963,0.3194444444444444,1,0,0,4.968527599994559,call1,0.03009259259259259,0.32222222222222224,1,0,0,6.129623699991498,colour1,0.4097222222222222,-0.3138888888888889,1,0,0,7.152708200010238,number4,True,True,True,10,5,2019_Nov_12_1308,MA_Theta_Exp,3.0.7,57.683034036871234,
video/Experiment/zh_sp07_Dr_We_2_NoThetaInAudio_GlobalThetaInVideo.avi,noTheta,plusVideo,sp07,Dr,We,2,2,3,flow/blocks/NoThetaInAudio_GlobalThetaInVideo_A.csv,,,,,,,,,0,2,2,2,0,9,9,29,-0.36574074074074076,0.12083333333333333,1,0,0,4.611690200021258,call2,0.02175925925925926,-0.30972222222222223,1,0,0,5.457721999991918,colour4,0.42314814814814816,0.2861111111111111,1,0,0,6.2927692999946885,number1,True,True,False,10,5,2019_Nov_12_1308,MA_Theta_Exp,3.0.7,57.683034036871234,
video/Experiment/zh_sp01_Ad_Gr_3_NoThetaInAudio_GlobalThetaInVideo.avi,noTheta,plusVideo,sp01,Ad,Gr,3,2,3,flow/blocks/NoThetaInAudio_GlobalThetaInVideo_A.csv,,,,,,,,,0,2,2,2,0,10,10,6,-0.39305555555555555,0.30416666666666664,1,0,0,5.247805599996354,call1,0.030555555555555555,0.10694444444444444,1,0,0,6.190799300005892,colour2,0.39537037037037037,-0.08472222222222223,1,0,0,6.849124300002586,number3,True,True,True,10,5,2019_Nov_12_1308,MA_Theta_Exp,3.0.7,57.683034036871234,
video/Experiment/zh_sp01_Ad_Ro_4_NoThetaInAudio_GlobalThetaInVideo.avi,noTheta,plusVideo,sp01,Ad,Ro,4,2,3,flow/blocks/NoThetaInAudio_GlobalThetaInVideo_A.csv,,,,,,,,,0,2,2,2,0,11,11,11,-0.38472222222222224,0.3194444444444444,1,0,0,5.548289199999999,call1,0.027777777777777776,-0.11666666666666667,1,0,0,6.265845299989451,colour3,0.41805555555555557,-0.35138888888888886,1,0,0,6.960122399992542,number4,True,True,True,10,5,2019_Nov_12_1308,MA_Theta_Exp,3.0.7,57.683034036871234,
video/Experiment/zh_sp01_Dr_Ge_4_NoThetaInAudio_GlobalThetaInVideo.avi,noTheta,plusVideo,sp01,Dr,Ge,4,2,3,flow/blocks/NoThetaInAudio_GlobalThetaInVideo_A.csv,,,,,,,,,0,2,2,2,0,12,12,19,-0.42777777777777776,0.13333333333333333,1,0,0,5.366862199996831,call2,-0.04490740740740741,0.3625,1,0,0,6.187100699986331,colour1,0.3527777777777778,-0.2902777777777778,1,0,0,7.035198300000047,number4,True,True,True,10,5,2019_Nov_12_1308,MA_Theta_Exp,3.0.7,57.683034036871234,
video/Experiment/zh_sp01_Ad_Ro_3_NoThetaInAudio_GlobalThetaInVideo.avi,noTheta,plusVideo,sp01,Ad,Ro,3,2,3,flow/blocks/NoThetaInAudio_GlobalThetaInVideo_A.csv,,,,,,,,,0,2,2,2,0,13,13,10,-0.4222222222222222,0.33611111111111114,1,0,0,5.2574244999850634,call1,-0.03796296296296296,-0.09305555555555556,1,0,0,5.976028799981577,colour3,0.4009259259259259,-0.3402777777777778,1,0,0,6.697657799988519,number4,True,True,False,10,5,2019_Nov_12_1308,MA_Theta_Exp,3.0.7,57.683034036871234,
video/Experiment/zh_sp01_Dr_Ro_2_NoThetaInAudio_GlobalThetaInVideo.avi,noTheta,plusVideo,sp01,Dr,Ro,2,2,3,flow/blocks/NoThetaInAudio_GlobalThetaInVideo_A.csv,,,,,,,,,0,2,2,2,0,14,14,25,-0.3819444444444444,0.10972222222222222,1,0,0,5.740232799988007,call2,-0.01712962962962963,-0.08888888888888889,1,0,0,6.427731400006451,colour3,0.4287037037037037,0.09444444444444444,1,0,0,7.244471599988174,number2,True,True,True,10,5,2019_Nov_12_1308,MA_Theta_Exp,3.0.7,57.683034036871234,
video/Experiment/zh_sp07_Dr_Gr_1_NoThetaInAudio_GlobalThetaInVideo.avi,noTheta,plusVideo,sp07,Dr,Gr,1,2,3,flow/blocks/NoThetaInAudio_GlobalThetaInVideo_A.csv,,,,,,,,,0,2,2,2,0,15,15,20,-0.425462962962963,0.11527777777777778,1,0,0,5.334211799985496,call2,-0.008796296296296297,0.11388888888888889,1,0,0,6.014066999981878,colour2,0.40925925925925927,0.2833333333333333,1,0,0,6.668622099998174,number1,True,True,True,10,5,2019_Nov_12_1308,MA_Theta_Exp,3.0.7,57.683034036871234,
video/Experiment/zh_sp07_Dr_Ro_1_NoThetaInAudio_GlobalThetaInVideo.avi,noTheta,plusVideo,sp07,Dr,Ro,1,2,3,flow/blocks/NoThetaInAudio_GlobalThetaInVideo_A.csv,,,,,,,,,0,2,2,2,0,16,16,24,-0.4,0.10277777777777777,1,0,0,4.901724900002591,call2,-0.026851851851851852,-0.12083333333333333,1,0,0,5.570298500009812,colour3,0.37037037037037035,0.3,1,0,0,6.267091800022172,number1,True,True,True,10,5,2019_Nov_12_1308,MA_Theta_Exp,3.0.7,57.683034036871234,
video/Experiment/zh_sp07_Ad_We_3_NoThetaInAudio_GlobalThetaInVideo.avi,noTheta,plusVideo,sp07,Ad,We,3,2,3,flow/blocks/NoThetaInAudio_GlobalThetaInVideo_A.csv,,,,,,,,,0,2,2,2,0,17,17,14,-0.39444444444444443,0.3347222222222222,1,0,0,4.59727520000888,call1,-0.010185185185185186,-0.31666666666666665,1,0,0,5.4325537999975495,colour4,0.4050925925925926,-0.33194444444444443,1,0,0,6.1303833999845665,number4,True,True,False,10,5,2019_Nov_12_1308,MA_Theta_Exp,3.0.7,57.683034036871234,
video/Experiment/zh_sp07_Dr_Ge_1_NoThetaInAudio_GlobalThetaInVideo.avi,noTheta,plusVideo,sp07,Dr,Ge,1,2,3,flow/blocks/NoThetaInAudio_GlobalThetaInVideo_A.csv,,,,,,,,,0,2,2,2,0,18,18,16,-0.38657407407407407,0.2916666666666667,1,0,0,4.456676400004653,call1,-0.014351851851851852,0.33194444444444443,1,0,0,5.027470600005472,colour1,0.38287037037037036,0.30277777777777776,1,0,0,5.637253099994268,number1,False,True,True,10,5,2019_Nov_12_1308,MA_Theta_Exp,3.0.7,57.683034036871234,
video/Experiment/zh_sp07_Ad_We_1_NoThetaInAudio_GlobalThetaInVideo.avi,noTheta,plusVideo,sp07,Ad,We,1,2,3,flow/blocks/NoThetaInAudio_GlobalThetaInVideo_A.csv,,,,,,,,,0,2,2,2,0,19,19,12,-0.4125,0.3375,1,0,0,4.572107400017558,call1,-0.0060185185185185185,-0.30277777777777776,1,0,0,5.492099099996267,colour4,0.4078703703703704,0.2652777777777778,1,0,0,6.396207899990259,number1,True,True,True,10,5,2019_Nov_12_1308,MA_Theta_Exp,3.0.7,57.683034036871234,
video/Experiment/zh_sp07_Ad_Gr_4_NoThetaInAudio_GlobalThetaInVideo.avi,noTheta,plusVideo,sp07,Ad,Gr,4,2,3,flow/blocks/NoThetaInAudio_GlobalThetaInVideo_A.csv,,,,,,,,,0,2,2,2,0,20,20,7,-0.4125,0.3375,1,0,0,4.621110600011889,call1,-0.0032407407407407406,0.10277777777777777,1,0,0,5.771801700000651,colour2,0.3939814814814815,-0.32083333333333336,1,0,0,6.73692990001291,number4,True,True,True,10,5,2019_Nov_12_1308,MA_Theta_Exp,3.0.7,57.683034036871234,
video/Experiment/zh_sp07_Ad_We_4_NoThetaInAudio_GlobalThetaInVideo.avi,noTheta,plusVideo,sp07,Ad,We,4,2,3,flow/blocks/NoThetaInAudio_GlobalThetaInVideo_A.csv,,,,,,,,,0,2,2,2,0,21,21,15,-0.42083333333333334,0.3458333333333333,1,0,0,4.83679430000484,call1,-0.027777777777777776,-0.3277777777777778,1,0,0,6.07885950000491,colour4,0.39166666666666666,-0.3625,1,0,0,6.792188099992927,number4,True,True,True,10,5,2019_Nov_12_1308,MA_Theta_Exp,3.0.7,57.683034036871234,
video/Experiment/zh_sp01_Dr_Ge_3_NoThetaInAudio_GlobalThetaInVideo.avi,noTheta,plusVideo,sp01,Dr,Ge,3,2,3,flow/blocks/NoThetaInAudio_GlobalThetaInVideo_A.csv,,,,,,,,,0,2,2,2,0,22,22,18,-0.36527777777777776,0.325,1,0,0,5.106164800003171,call1,-0.008796296296296297,0.3236111111111111,1,0,0,5.956126600009156,colour1,0.44027777777777777,-0.08888888888888889,1,0,0,7.013295800017659,number3,False,True,True,10,5,2019_Nov_12_1308,MA_Theta_Exp,3.0.7,57.683034036871234,
video/Experiment/zh_sp01_Ad_Gr_1_NoThetaInAudio_GlobalThetaInVideo.avi,noTheta,plusVideo,sp01,Ad,Gr,1,2,3,flow/blocks/NoThetaInAudio_GlobalThetaInVideo_A.csv,,,,,,,,,0,2,2,2,0,23,23,4,-0.4101851851851852,0.32083333333333336,1,0,0,5.268213400006061,call1,-0.0060185185185185185,0.10972222222222222,1,0,0,5.965837600000668,colour2,0.39537037037037037,0.31527777777777777,1,0,0,6.674970899999607,number1,True,True,True,10,5,2019_Nov_12_1308,MA_Theta_Exp,3.0.7,57.683034036871234,
video/Experiment/zh_sp01_Dr_Ge_2_NoThetaInAudio_GlobalThetaInVideo.avi,noTheta,plusVideo,sp01,Dr,Ge,2,2,3,flow/blocks/NoThetaInAudio_GlobalThetaInVideo_A.csv,,,,,,,,,0,2,2,2,0,24,24,17,-0.41805555555555557,0.31805555555555554,1,0,0,5.201854299986735,call1,-0.024074074074074074,0.31666666666666665,1,0,0,5.78137300000526,colour1,0.3731481481481482,0.14027777777777778,1,0,0,6.456517000013264,number2,False,True,True,10,5,2019_Nov_12_1308,MA_Theta_Exp,3.0.7,57.683034036871234,
video/Experiment/zh_sp01_Ad_Gr_2_NoThetaInAudio_GlobalThetaInVideo.avi,noTheta,plusVideo,sp01,Ad,Gr,2,2,3,flow/blocks/NoThetaInAudio_GlobalThetaInVideo_A.csv,,,,,,,,,0,2,2,2,0,25,25,5,-0.412962962962963,0.3277777777777778,1,0,0,5.313922700006515,call1,-0.05740740740740741,0.10694444444444444,1,0,0,5.97000339999795,colour2,0.3925925925925926,0.09722222222222222,1,0,0,6.795006200001808,number2,True,True,True,10,5,2019_Nov_12_1308,MA_Theta_Exp,3.0.7,57.683034036871234,
video/Experiment/zh_sp07_Ad_Ge_1_NoThetaInAudio_GlobalThetaInVideo.avi,noTheta,plusVideo,sp07,Ad,Ge,1,2,3,flow/blocks/NoThetaInAudio_GlobalThetaInVideo_A.csv,,,,,,,,,0,2,2,2,0,26,26,0,-0.3921296296296296,0.30694444444444446,1,0,0,4.428727999998955,call1,0.01898148148148148,0.325,1,0,0,5.142252299992833,colour1,0.3800925925925926,0.3138888888888889,1,0,0,5.8686681000108365,number1,True,True,True,10,5,2019_Nov_12_1308,MA_Theta_Exp,3.0.7,57.683034036871234,
video/Experiment/zh_sp01_Dr_We_4_NoThetaInAudio_GlobalThetaInVideo.avi,noTheta,plusVideo,sp01,Dr,We,4,2,3,flow/blocks/NoThetaInAudio_GlobalThetaInVideo_A.csv,,,,,,,,,0,2,2,2,0,27,27,31,-0.425462962962963,0.32916666666666666,1,0,0,5.109133299993118,call1,0.012037037037037037,-0.32222222222222224,1,0,0,6.039396200008923,colour4,0.3787037037037037,-0.33194444444444443,1,0,0,6.83136569999624,number4,False,True,True,10,5,2019_Nov_12_1308,MA_Theta_Exp,3.0.7,57.683034036871234,
video/Experiment/zh_sp01_Dr_Gr_3_NoThetaInAudio_GlobalThetaInVideo.avi,noTheta,plusVideo,sp01,Dr,Gr,3,2,3,flow/blocks/NoThetaInAudio_GlobalThetaInVideo_A.csv,,,,,,,,,0,2,2,2,0,28,28,22,-0.362962962962963,0.0763888888888889,1,0,0,5.506325199996354,call2,-0.07268518518518519,0.05694444444444444,1,0,0,6.123426899983315,colour2,0.41064814814814815,-0.09722222222222222,1,0,0,6.855381999979727,number3,True,True,True,10,5,2019_Nov_12_1308,MA_Theta_Exp,3.0.7,57.683034036871234,
video/Experiment/zh_sp01_Dr_Gr_2_NoThetaInAudio_GlobalThetaInVideo.avi,noTheta,plusVideo,sp01,Dr,Gr,2,2,3,flow/blocks/NoThetaInAudio_GlobalThetaInVideo_A.csv,,,,,,,,,0,2,2,2,0,29,29,21,-0.4,0.12361111111111112,1,0,0,5.250298400002066,call2,-0.08101851851851852,0.09861111111111111,1,0,0,5.856849300005706,colour2,0.399537037037037,0.06527777777777778,1,0,0,6.585415500012459,number2,True,True,True,10,5,2019_Nov_12_1308,MA_Theta_Exp,3.0.7,57.683034036871234,
video/Experiment/zh_sp07_Dr_Ro_3_NoThetaInAudio_GlobalThetaInVideo.avi,noTheta,plusVideo,sp07,Dr,Ro,3,2,3,flow/blocks/NoThetaInAudio_GlobalThetaInVideo_A.csv,,,,,,,,,0,2,2,2,0,30,30,26,-0.38657407407407407,0.09027777777777778,1,0,0,5.197432699991623,call2,-0.012962962962962963,0.2777777777777778,1,0,0,5.98489160000463,colour1,0.38564814814814813,-0.06666666666666667,1,0,0,6.7138133000116795,number3,True,False,True,10,5,2019_Nov_12_1308,MA_Theta_Exp,3.0.7,57.683034036871234,
video/Experiment/zh_sp07_Ad_We_2_NoThetaInAudio_GlobalThetaInVideo.avi,noTheta,plusVideo,sp07,Ad,We,2,2,3,flow/blocks/NoThetaInAudio_GlobalThetaInVideo_A.csv,,,,,,,,,0,2,2,2,0,31,31,13,-0.36527777777777776,0.31805555555555554,1,0,0,4.577966400014702,call1,-0.01990740740740741,-0.3263888888888889,1,0,0,5.5829047999868635,colour4,0.3773148148148148,0.09444444444444444,1,0,0,6.416972800012445,number2,True,True,True,10,5,2019_Nov_12_1308,MA_Theta_Exp,3.0.7,57.683034036871234,
