videoFile,condition,video,speaker,callSign,colour,number,seq,id,block,exp.thisRepN,exp.thisTrialN,exp.thisN,exp.thisIndex,training.thisRepN,training.thisTrialN,training.thisN,training.thisIndex,firstHalf.thisRepN,firstHalf.thisTrialN,firstHalf.thisN,firstHalf.thisIndex,blocksA.thisRepN,blocksA.thisTrialN,blocksA.thisN,blocksA.thisIndex,secondHalf.thisRepN,secondHalf.thisTrialN,secondHalf.thisN,secondHalf.thisIndex,blocksB.thisRepN,blocksB.thisTrialN,blocksB.thisN,blocksB.thisIndex,mouseClickOnCall.x,mouseClickOnCall.y,mouseClickOnCall.leftButton,mouseClickOnCall.midButton,mouseClickOnCall.rightButton,mouseClickOnCall.time,mouseClickOnCall.clicked_name,mouseClickOnColour.x,mouseClickOnColour.y,mouseClickOnColour.leftButton,mouseClickOnColour.midButton,mouseClickOnColour.rightButton,mouseClickOnColour.time,mouseClickOnColour.clicked_name,mouseClickOnNumber.x,mouseClickOnNumber.y,mouseClickOnNumber.leftButton,mouseClickOnNumber.midButton,mouseClickOnNumber.rightButton,mouseClickOnNumber.time,mouseClickOnNumber.clicked_name,callSignCorrect,colourCorrect,numberCorrect,participant,order,date,expName,psychopyVersion,frameRate,
video/Training/zh_sp01_Ad_We_4_NVocInAudio_NoVideo.avi,vocoded,noVideo,sp01,Ad,We,4,,,,,,,,0,0,0,0,,,,,,,,,,,,,,,,,-0.4027777777777778,0.2824074074074074,1,0,0,5.806929899961688,call1,-0.013888888888888888,-0.35138888888888886,1,0,0,7.477375100017525,colour4,0.39861111111111114,-0.3375,1,0,0,8.356669300002977,number4,True,True,True,14,4,2019_Nov_14_1001,MA_Theta_Exp,3.0.7,60.681305427465524,
video/Training/zh_sp07_Ad_Ge_3_NVocInAudio_NoVideo.avi,vocoded,noVideo,sp07,Ad,Ge,3,,,,,,,,0,1,1,1,,,,,,,,,,,,,,,,,-0.3541666666666667,0.2777777777777778,1,0,0,4.781332000042312,call1,0.06388888888888888,0.2777777777777778,1,0,0,5.56216349999886,colour1,0.39305555555555555,-0.1425925925925926,1,0,0,6.561588899989147,number3,True,True,True,14,4,2019_Nov_14_1001,MA_Theta_Exp,3.0.7,60.681305427465524,
video/Training/zh_sp01_Dr_Ro_3_NVocInAudio_GlobalThetaInVideo.avi,vocoded,plusVideo,sp01,Dr,Ro,3,,,,,,,,0,2,2,2,,,,,,,,,,,,,,,,,-0.034722222222222224,-0.08333333333333333,1,0,0,5.090945900010411,call2,0.004166666666666667,-0.062037037037037036,1,0,0,8.708510699972976,colour3,0.3972222222222222,-0.08703703703703704,1,0,0,9.439669600047637,number3,True,True,True,14,4,2019_Nov_14_1001,MA_Theta_Exp,3.0.7,60.681305427465524,
video/Training/zh_sp07_Dr_Gr_4_NVocInAudio_GlobalThetaInVideo.avi,vocoded,plusVideo,sp07,Dr,Gr,4,,,,,,,,0,3,3,3,,,,,,,,,,,,,,,,,-0.42777777777777776,0.0625,1,0,0,5.8539009999949485,call2,-0.004166666666666667,0.06666666666666667,1,0,0,6.705053300014697,colour2,0.425,-0.27175925925925926,1,0,0,7.404021400026977,number4,True,True,True,14,4,2019_Nov_14_1001,MA_Theta_Exp,3.0.7,60.681305427465524,
video/Training/zh_sp01_Ti_Gr_2_NoThetaInAudio_NoVideo.avi,noTheta,noVideo,sp01,Ti,Gr,2,,,,,,,,0,4,4,4,,,,,,,,,,,,,,,,,-0.4375,-0.2953703703703704,1,0,0,7.513771100027952,call4,-0.009722222222222222,0.1,1,0,0,8.381153499998618,colour2,0.3333333333333333,0.05185185185185185,1,0,0,9.310367800004315,number2,False,True,True,14,4,2019_Nov_14_1001,MA_Theta_Exp,3.0.7,60.681305427465524,
video/Training/zh_sp07_Ti_Ro_1_NoThetaInAudio_NoVideo.avi,noTheta,noVideo,sp07,Ti,Ro,1,,,,,,,,0,5,5,5,,,,,,,,,,,,,,,,,-0.3486111111111111,-0.09953703703703703,1,0,0,4.614773300010711,call3,-0.018055555555555554,-0.11342592592592593,1,0,0,5.317696899990551,colour3,0.35138888888888886,0.3138888888888889,1,0,0,6.279050699959043,number1,True,True,True,14,4,2019_Nov_14_1001,MA_Theta_Exp,3.0.7,60.681305427465524,
video/Training/zh_sp01_Un_Ge_1_NoThetaInAudio_GlobalThetaInVideo.avi,noTheta,plusVideo,sp01,Un,Ge,1,,,,,,,,0,6,6,6,,,,,,,,,,,,,,,,,-0.38333333333333336,-0.2953703703703704,1,0,0,7.270253099966794,call4,0.05694444444444444,-0.07083333333333333,1,0,0,8.134019199991599,colour3,0.38472222222222224,0.3375,1,0,0,8.917644899978768,number1,True,False,True,14,4,2019_Nov_14_1001,MA_Theta_Exp,3.0.7,60.681305427465524,
video/Training/zh_sp07_Un_We_2_NoThetaInAudio_GlobalThetaInVideo.avi,noTheta,plusVideo,sp07,Un,We,2,,,,,,,,0,7,7,7,,,,,,,,,,,,,,,,,-0.37083333333333335,0.01990740740740741,1,0,0,5.795113299973309,call2,-0.008333333333333333,0.03611111111111111,1,0,0,7.712777500040829,colour2,0.4305555555555556,-0.09953703703703703,1,0,0,9.080142499995418,number3,False,False,False,14,4,2019_Nov_14_1001,MA_Theta_Exp,3.0.7,60.681305427465524,
video/Training/zh_sp01_Ad_Ge_1_GlobalTheta_NoVideo.avi,globalTheta,noVideo,sp01,Ad,Ge,1,,,,,,,,0,8,8,8,,,,,,,,,,,,,,,,,-0.4,-0.09398148148148149,1,0,0,6.169695199991111,call3,-0.02638888888888889,-0.08287037037037037,1,0,0,7.007486400019843,colour3,0.3902777777777778,0.2972222222222222,1,0,0,7.87646160001168,number1,False,False,True,14,4,2019_Nov_14_1001,MA_Theta_Exp,3.0.7,60.681305427465524,
video/Training/zh_sp07_Ad_Ro_3_GlobalTheta_NoVideo.avi,globalTheta,noVideo,sp07,Ad,Ro,3,,,,,,,,0,9,9,9,,,,,,,,,,,,,,,,,-0.36527777777777776,0.30462962962962964,1,0,0,5.142725999990944,call1,-0.02638888888888889,-0.30648148148148147,1,0,0,6.653171699959785,colour4,0.3597222222222222,-0.23981481481481481,1,0,0,7.599207099992782,number4,True,False,False,14,4,2019_Nov_14_1001,MA_Theta_Exp,3.0.7,60.681305427465524,
video/Experiment/zh_sp01_Dr_Ro_3_NVocInAudio_GlobalThetaInVideo.avi,vocoded,plusVideo,sp01,Dr,Ro,3,0,1,flow/blocks/NVocInAudio_GlobalThetaInVideo_A.csv,,,,,,,,,0,0,0,0,0,0,0,26,,,,,,,,,-0.3902777777777778,0.08194444444444444,1,0,0,5.2746486000251025,call2,0.041666666666666664,-0.06620370370370371,1,0,0,6.191306799999438,colour3,0.3736111111111111,-0.12037037037037036,1,0,0,7.610105499974452,number3,True,True,True,14,4,2019_Nov_14_1001,MA_Theta_Exp,3.0.7,60.681305427465524,
video/Experiment/zh_sp07_Ad_Ro_3_NVocInAudio_GlobalThetaInVideo.avi,vocoded,plusVideo,sp07,Ad,Ro,3,0,1,flow/blocks/NVocInAudio_GlobalThetaInVideo_A.csv,,,,,,,,,0,0,0,0,0,1,1,10,,,,,,,,,-0.38333333333333336,0.2962962962962963,1,0,0,4.817149999958929,call1,0.004166666666666667,-0.13564814814814816,1,0,0,5.81651180004701,colour3,0.3736111111111111,-0.15231481481481482,1,0,0,7.031745099986438,number3,True,True,True,14,4,2019_Nov_14_1001,MA_Theta_Exp,3.0.7,60.681305427465524,
video/Experiment/zh_sp07_Dr_Gr_3_NVocInAudio_GlobalThetaInVideo.avi,vocoded,plusVideo,sp07,Dr,Gr,3,0,1,flow/blocks/NVocInAudio_GlobalThetaInVideo_A.csv,,,,,,,,,0,0,0,0,0,2,2,22,,,,,,,,,-0.3625,0.08888888888888889,1,0,0,5.533552800014149,call2,-0.016666666666666666,-0.04259259259259259,1,0,0,6.502554000006057,colour3,0.3472222222222222,-0.12037037037037036,1,0,0,7.617953400011174,number3,True,False,True,14,4,2019_Nov_14_1001,MA_Theta_Exp,3.0.7,60.681305427465524,
video/Experiment/zh_sp07_Ad_Ge_1_NVocInAudio_GlobalThetaInVideo.avi,vocoded,plusVideo,sp07,Ad,Ge,1,0,1,flow/blocks/NVocInAudio_GlobalThetaInVideo_A.csv,,,,,,,,,0,0,0,0,0,3,3,0,,,,,,,,,-0.4166666666666667,0.27361111111111114,1,0,0,4.697167499980424,call1,-0.022222222222222223,0.2671296296296296,1,0,0,5.527831499988679,colour1,0.37916666666666665,0.2847222222222222,1,0,0,7.308193499979097,number1,True,True,True,14,4,2019_Nov_14_1001,MA_Theta_Exp,3.0.7,60.681305427465524,
video/Experiment/zh_sp07_Ad_Ge_3_NVocInAudio_GlobalThetaInVideo.avi,vocoded,plusVideo,sp07,Ad,Ge,3,0,1,flow/blocks/NVocInAudio_GlobalThetaInVideo_A.csv,,,,,,,,,0,0,0,0,0,4,4,2,,,,,,,,,-0.4041666666666667,0.2638888888888889,1,0,0,5.094061599986162,call1,-0.011111111111111112,0.25462962962962965,1,0,0,6.081478199979756,colour1,0.38333333333333336,-0.05925925925925926,1,0,0,6.926014600030612,number3,True,True,True,14,4,2019_Nov_14_1001,MA_Theta_Exp,3.0.7,60.681305427465524,
video/Experiment/zh_sp01_Dr_Ro_2_NVocInAudio_GlobalThetaInVideo.avi,vocoded,plusVideo,sp01,Dr,Ro,2,0,1,flow/blocks/NVocInAudio_GlobalThetaInVideo_A.csv,,,,,,,,,0,0,0,0,0,5,5,25,,,,,,,,,-0.40555555555555556,0.06527777777777778,1,0,0,5.216223000024911,call2,0.05555555555555555,-0.11064814814814815,1,0,0,6.017949000000954,colour3,0.39861111111111114,0.07083333333333333,1,0,0,6.971722999995109,number2,True,True,True,14,4,2019_Nov_14_1001,MA_Theta_Exp,3.0.7,60.681305427465524,
video/Experiment/zh_sp01_Ad_Gr_4_NVocInAudio_GlobalThetaInVideo.avi,vocoded,plusVideo,sp01,Ad,Gr,4,0,1,flow/blocks/NVocInAudio_GlobalThetaInVideo_A.csv,,,,,,,,,0,0,0,0,0,6,6,7,,,,,,,,,-0.3972222222222222,0.29212962962962963,1,0,0,5.241070300049614,call1,-0.015277777777777777,-0.12453703703703704,1,0,0,7.886912200017832,colour3,0.37777777777777777,-0.33287037037037037,1,0,0,8.655027100001462,number4,True,False,True,14,4,2019_Nov_14_1001,MA_Theta_Exp,3.0.7,60.681305427465524,
video/Experiment/zh_sp07_Dr_Ro_4_NVocInAudio_GlobalThetaInVideo.avi,vocoded,plusVideo,sp07,Dr,Ro,4,0,1,flow/blocks/NVocInAudio_GlobalThetaInVideo_A.csv,,,,,,,,,0,0,0,0,0,7,7,27,,,,,,,,,-0.3888888888888889,0.10138888888888889,1,0,0,4.7401884000282735,call2,0.005555555555555556,-0.09259259259259259,1,0,0,5.376593299966771,colour3,0.40555555555555556,-0.28564814814814815,1,0,0,6.406910500023514,number4,True,True,True,14,4,2019_Nov_14_1001,MA_Theta_Exp,3.0.7,60.681305427465524,
video/Experiment/zh_sp01_Ad_Ge_4_NVocInAudio_GlobalThetaInVideo.avi,vocoded,plusVideo,sp01,Ad,Ge,4,0,1,flow/blocks/NVocInAudio_GlobalThetaInVideo_A.csv,,,,,,,,,0,0,0,0,0,8,8,3,,,,,,,,,-0.4361111111111111,0.29768518518518516,1,0,0,5.216201099974569,call1,0.029166666666666667,0.29444444444444445,1,0,0,7.384228199953213,colour1,0.36666666666666664,-0.28564814814814815,1,0,0,8.352440999995451,number4,True,True,True,14,4,2019_Nov_14_1001,MA_Theta_Exp,3.0.7,60.681305427465524,
video/Experiment/zh_sp01_Ad_We_3_NVocInAudio_GlobalThetaInVideo.avi,vocoded,plusVideo,sp01,Ad,We,3,0,1,flow/blocks/NVocInAudio_GlobalThetaInVideo_A.csv,,,,,,,,,0,0,0,0,0,9,9,14,,,,,,,,,-0.39166666666666666,0.2777777777777778,1,0,0,5.3915761999669485,call1,-0.005555555555555556,-0.3050925925925926,1,0,0,6.477990200044587,colour4,0.3875,-0.11527777777777778,1,0,0,7.3620953999925405,number3,True,True,True,14,4,2019_Nov_14_1001,MA_Theta_Exp,3.0.7,60.681305427465524,
video/Experiment/zh_sp01_Dr_We_4_NVocInAudio_GlobalThetaInVideo.avi,vocoded,plusVideo,sp01,Dr,We,4,0,1,flow/blocks/NVocInAudio_GlobalThetaInVideo_A.csv,,,,,,,,,0,0,0,0,0,10,10,31,,,,,,,,,-0.4097222222222222,0.07407407407407407,1,0,0,5.073467200039886,call2,-0.020833333333333332,-0.3439814814814815,1,0,0,6.0114101999788545,colour4,0.3861111111111111,-0.3194444444444444,1,0,0,6.859424799971748,number4,True,True,True,14,4,2019_Nov_14_1001,MA_Theta_Exp,3.0.7,60.681305427465524,
video/Experiment/zh_sp01_Ad_We_4_NVocInAudio_GlobalThetaInVideo.avi,vocoded,plusVideo,sp01,Ad,We,4,0,1,flow/blocks/NVocInAudio_GlobalThetaInVideo_A.csv,,,,,,,,,0,0,0,0,0,11,11,15,,,,,,,,,-0.39861111111111114,0.3,1,0,0,5.0506914999568835,call1,0.025,-0.29398148148148145,1,0,0,5.997256800008472,colour4,0.4166666666666667,-0.3458333333333333,1,0,0,6.953213699976914,number4,True,True,True,14,4,2019_Nov_14_1001,MA_Theta_Exp,3.0.7,60.681305427465524,
video/Experiment/zh_sp01_Dr_Gr_2_NVocInAudio_GlobalThetaInVideo.avi,vocoded,plusVideo,sp01,Dr,Gr,2,0,1,flow/blocks/NVocInAudio_GlobalThetaInVideo_A.csv,,,,,,,,,0,0,0,0,0,12,12,21,,,,,,,,,-0.3902777777777778,0.12916666666666668,1,0,0,5.80722680001054,call2,0.013888888888888888,0.10046296296296296,1,0,0,7.355131899996195,colour2,0.36666666666666664,0.06712962962962964,1,0,0,8.088943200011272,number2,True,True,True,14,4,2019_Nov_14_1001,MA_Theta_Exp,3.0.7,60.681305427465524,
video/Experiment/zh_sp07_Dr_We_3_NVocInAudio_GlobalThetaInVideo.avi,vocoded,plusVideo,sp07,Dr,We,3,0,1,flow/blocks/NVocInAudio_GlobalThetaInVideo_A.csv,,,,,,,,,0,0,0,0,0,13,13,30,,,,,,,,,-0.3263888888888889,0.07407407407407407,1,0,0,4.53076009999495,call2,-0.04027777777777778,-0.3050925925925926,1,0,0,5.635547700047027,colour4,0.4,-0.17083333333333334,1,0,0,6.451064400025643,number3,True,True,True,14,4,2019_Nov_14_1001,MA_Theta_Exp,3.0.7,60.681305427465524,
video/Experiment/zh_sp01_Ad_Ge_2_NVocInAudio_GlobalThetaInVideo.avi,vocoded,plusVideo,sp01,Ad,Ge,2,0,1,flow/blocks/NVocInAudio_GlobalThetaInVideo_A.csv,,,,,,,,,0,0,0,0,0,14,14,1,,,,,,,,,-0.3458333333333333,0.2712962962962963,1,0,0,5.121784599963576,call1,-0.011111111111111112,0.2569444444444444,1,0,0,5.973016700008884,colour1,0.41805555555555557,0.08935185185185185,1,0,0,6.67139719997067,number2,True,True,True,14,4,2019_Nov_14_1001,MA_Theta_Exp,3.0.7,60.681305427465524,
video/Experiment/zh_sp07_Ad_We_1_NVocInAudio_GlobalThetaInVideo.avi,vocoded,plusVideo,sp07,Ad,We,1,0,1,flow/blocks/NVocInAudio_GlobalThetaInVideo_A.csv,,,,,,,,,0,0,0,0,0,15,15,12,,,,,,,,,-0.4013888888888889,0.30694444444444446,1,0,0,4.423480800003745,call1,-0.005555555555555556,-0.28564814814814815,1,0,0,5.278695499990135,colour4,0.39166666666666666,0.32083333333333336,1,0,0,6.239177600014955,number1,True,True,True,14,4,2019_Nov_14_1001,MA_Theta_Exp,3.0.7,60.681305427465524,
video/Experiment/zh_sp01_Dr_Gr_1_NVocInAudio_GlobalThetaInVideo.avi,vocoded,plusVideo,sp01,Dr,Gr,1,0,1,flow/blocks/NVocInAudio_GlobalThetaInVideo_A.csv,,,,,,,,,0,0,0,0,0,16,16,20,,,,,,,,,-0.4152777777777778,0.12638888888888888,1,0,0,5.711568100028671,call2,-0.03194444444444444,0.11157407407407408,1,0,0,6.317284799995832,colour2,0.39305555555555555,0.2902777777777778,1,0,0,7.119639199983794,number1,True,True,True,14,4,2019_Nov_14_1001,MA_Theta_Exp,3.0.7,60.681305427465524,
video/Experiment/zh_sp07_Ad_Ro_1_NVocInAudio_GlobalThetaInVideo.avi,vocoded,plusVideo,sp07,Ad,Ro,1,0,1,flow/blocks/NVocInAudio_GlobalThetaInVideo_A.csv,,,,,,,,,0,0,0,0,0,17,17,8,,,,,,,,,-0.3736111111111111,0.3013888888888889,1,0,0,4.447103199956473,call1,-0.013888888888888888,-0.12037037037037036,1,0,0,5.181714600010309,colour3,0.36944444444444446,0.2722222222222222,1,0,0,6.015679800009821,number1,True,True,True,14,4,2019_Nov_14_1001,MA_Theta_Exp,3.0.7,60.681305427465524,
video/Experiment/zh_sp01_Ad_We_2_NVocInAudio_GlobalThetaInVideo.avi,vocoded,plusVideo,sp01,Ad,We,2,0,1,flow/blocks/NVocInAudio_GlobalThetaInVideo_A.csv,,,,,,,,,0,0,0,0,0,18,18,13,,,,,,,,,-0.40694444444444444,0.25,1,0,0,5.246097999974154,call1,-0.05138888888888889,-0.32731481481481484,1,0,0,6.130517600046005,colour4,0.39166666666666666,0.08194444444444444,1,0,0,6.967960199981462,number2,True,True,True,14,4,2019_Nov_14_1001,MA_Theta_Exp,3.0.7,60.681305427465524,
video/Experiment/zh_sp07_Ad_Ro_2_NVocInAudio_GlobalThetaInVideo.avi,vocoded,plusVideo,sp07,Ad,Ro,2,0,1,flow/blocks/NVocInAudio_GlobalThetaInVideo_A.csv,,,,,,,,,0,0,0,0,0,19,19,9,,,,,,,,,-0.3736111111111111,0.29212962962962963,1,0,0,4.697213299979921,call1,0.008333333333333333,-0.062037037037037036,1,0,0,5.446921800030395,colour3,0.39305555555555555,0.08611111111111111,1,0,0,6.400376299978234,number2,True,True,True,14,4,2019_Nov_14_1001,MA_Theta_Exp,3.0.7,60.681305427465524,
video/Experiment/zh_sp01_Dr_Ge_2_NVocInAudio_GlobalThetaInVideo.avi,vocoded,plusVideo,sp01,Dr,Ge,2,0,1,flow/blocks/NVocInAudio_GlobalThetaInVideo_A.csv,,,,,,,,,0,0,0,0,0,20,20,17,,,,,,,,,-0.3486111111111111,0.05555555555555555,1,0,0,5.224599900015164,call2,-0.06666666666666667,0.2847222222222222,1,0,0,5.877351599978283,colour1,0.4625,0.08657407407407407,1,0,0,6.641453400021419,number2,True,True,True,14,4,2019_Nov_14_1001,MA_Theta_Exp,3.0.7,60.681305427465524,
video/Experiment/zh_sp07_Ad_Ro_4_NVocInAudio_GlobalThetaInVideo.avi,vocoded,plusVideo,sp07,Ad,Ro,4,0,1,flow/blocks/NVocInAudio_GlobalThetaInVideo_A.csv,,,,,,,,,0,0,0,0,0,21,21,11,,,,,,,,,-0.40555555555555556,0.27361111111111114,1,0,0,4.64523000002373,call1,-0.05277777777777778,-0.08981481481481482,1,0,0,5.514615399995819,colour3,0.3958333333333333,-0.3162037037037037,1,0,0,6.645132099976763,number4,True,True,True,14,4,2019_Nov_14_1001,MA_Theta_Exp,3.0.7,60.681305427465524,
video/Experiment/zh_sp01_Dr_Ge_1_NVocInAudio_GlobalThetaInVideo.avi,vocoded,plusVideo,sp01,Dr,Ge,1,0,1,flow/blocks/NVocInAudio_GlobalThetaInVideo_A.csv,,,,,,,,,0,0,0,0,0,22,22,16,,,,,,,,,-0.33194444444444443,0.06018518518518518,1,0,0,5.280026199994609,call2,0.05,0.28194444444444444,1,0,0,6.0554294000030495,colour1,0.3819444444444444,0.2462962962962963,1,0,0,6.99647620000178,number1,True,True,True,14,4,2019_Nov_14_1001,MA_Theta_Exp,3.0.7,60.681305427465524,
video/Experiment/zh_sp07_Ad_Gr_1_NVocInAudio_GlobalThetaInVideo.avi,vocoded,plusVideo,sp07,Ad,Gr,1,0,1,flow/blocks/NVocInAudio_GlobalThetaInVideo_A.csv,,,,,,,,,0,0,0,0,0,23,23,4,,,,,,,,,-0.42916666666666664,0.3111111111111111,1,0,0,4.632256500015501,call1,-0.011111111111111112,0.11805555555555555,1,0,0,5.6960428999736905,colour2,0.3902777777777778,0.275,1,0,0,6.583170499943662,number1,True,True,True,14,4,2019_Nov_14_1001,MA_Theta_Exp,3.0.7,60.681305427465524,
video/Experiment/zh_sp01_Dr_Gr_4_NVocInAudio_GlobalThetaInVideo.avi,vocoded,plusVideo,sp01,Dr,Gr,4,0,1,flow/blocks/NVocInAudio_GlobalThetaInVideo_A.csv,,,,,,,,,0,0,0,0,0,24,24,23,,,,,,,,,-0.3763888888888889,0.09861111111111111,1,0,0,5.427222099970095,call2,-0.02638888888888889,0.08657407407407407,1,0,0,6.542953700001817,colour2,0.37083333333333335,-0.28703703703703703,1,0,0,7.493035199993756,number4,True,True,True,14,4,2019_Nov_14_1001,MA_Theta_Exp,3.0.7,60.681305427465524,
video/Experiment/zh_sp07_Dr_Ge_3_NVocInAudio_GlobalThetaInVideo.avi,vocoded,plusVideo,sp07,Dr,Ge,3,0,1,flow/blocks/NVocInAudio_GlobalThetaInVideo_A.csv,,,,,,,,,0,0,0,0,0,25,25,18,,,,,,,,,-0.41805555555555557,0.09768518518518518,1,0,0,4.536172899999656,call2,0.02361111111111111,0.2708333333333333,1,0,0,6.301859899947885,colour1,0.37916666666666665,-0.10648148148148148,1,0,0,7.400938700011466,number3,True,True,True,14,4,2019_Nov_14_1001,MA_Theta_Exp,3.0.7,60.681305427465524,
video/Experiment/zh_sp07_Dr_Ge_4_NVocInAudio_GlobalThetaInVideo.avi,vocoded,plusVideo,sp07,Dr,Ge,4,0,1,flow/blocks/NVocInAudio_GlobalThetaInVideo_A.csv,,,,,,,,,0,0,0,0,0,26,26,19,,,,,,,,,-0.39861111111111114,0.09444444444444444,1,0,0,4.594092199986335,call2,-0.001388888888888889,0.29583333333333334,1,0,0,5.261088600032963,colour1,0.3958333333333333,-0.2884259259259259,1,0,0,6.08215560001554,number4,True,True,True,14,4,2019_Nov_14_1001,MA_Theta_Exp,3.0.7,60.681305427465524,
video/Experiment/zh_sp01_Dr_We_2_NVocInAudio_GlobalThetaInVideo.avi,vocoded,plusVideo,sp01,Dr,We,2,0,1,flow/blocks/NVocInAudio_GlobalThetaInVideo_A.csv,,,,,,,,,0,0,0,0,0,27,27,29,,,,,,,,,-0.37777777777777777,0.07222222222222222,1,0,0,5.1656750999973156,call2,-0.0125,-0.2773148148148148,1,0,0,5.965357400011271,colour4,0.3861111111111111,0.10555555555555556,1,0,0,7.440552199957892,number2,True,True,True,14,4,2019_Nov_14_1001,MA_Theta_Exp,3.0.7,60.681305427465524,
video/Experiment/zh_sp07_Dr_We_1_NVocInAudio_GlobalThetaInVideo.avi,vocoded,plusVideo,sp07,Dr,We,1,0,1,flow/blocks/NVocInAudio_GlobalThetaInVideo_A.csv,,,,,,,,,0,0,0,0,0,28,28,28,,,,,,,,,-0.37083333333333335,0.08194444444444444,1,0,0,4.464031599985901,call2,0.001388888888888889,-0.2537037037037037,1,0,0,5.246749199985061,colour4,0.37222222222222223,0.25833333333333336,1,0,0,6.129446699982509,number1,True,True,True,14,4,2019_Nov_14_1001,MA_Theta_Exp,3.0.7,60.681305427465524,
video/Experiment/zh_sp07_Ad_Gr_3_NVocInAudio_GlobalThetaInVideo.avi,vocoded,plusVideo,sp07,Ad,Gr,3,0,1,flow/blocks/NVocInAudio_GlobalThetaInVideo_A.csv,,,,,,,,,0,0,0,0,0,29,29,6,,,,,,,,,-0.3236111111111111,0.0625,1,0,0,4.665529499994591,call2,-0.027777777777777776,0.12222222222222222,1,0,0,5.219305900041945,colour2,0.3680555555555556,-0.08703703703703704,1,0,0,5.937662300013471,number3,False,True,True,14,4,2019_Nov_14_1001,MA_Theta_Exp,3.0.7,60.681305427465524,
video/Experiment/zh_sp01_Ad_Gr_2_NVocInAudio_GlobalThetaInVideo.avi,vocoded,plusVideo,sp01,Ad,Gr,2,0,1,flow/blocks/NVocInAudio_GlobalThetaInVideo_A.csv,,,,,,,,,0,0,0,0,0,30,30,5,,,,,,,,,-0.425,0.2847222222222222,1,0,0,5.189982799987774,call1,-0.043055555555555555,0.07407407407407407,1,0,0,5.8613599999807775,colour2,0.39166666666666666,0.10555555555555556,1,0,0,6.659868899965659,number2,True,True,True,14,4,2019_Nov_14_1001,MA_Theta_Exp,3.0.7,60.681305427465524,
video/Experiment/zh_sp07_Dr_Ro_1_NVocInAudio_GlobalThetaInVideo.avi,vocoded,plusVideo,sp07,Dr,Ro,1,0,1,flow/blocks/NVocInAudio_GlobalThetaInVideo_A.csv,,,,,,,,,0,0,0,0,0,31,31,24,,,,,,,,,-0.4152777777777778,0.1111111111111111,1,0,0,4.554031100007705,call2,-0.015277777777777777,-0.08703703703703704,1,0,0,5.255212499992922,colour3,0.3638888888888889,0.2569444444444444,1,0,0,6.0664956999826245,number1,True,True,True,14,4,2019_Nov_14_1001,MA_Theta_Exp,3.0.7,60.681305427465524,
video/Experiment/zh_sp01_Ad_We_4_NoThetaInAudio_NoVideo.avi,noTheta,noVideo,sp01,Ad,We,4,1,4,flow/blocks/NoThetaInAudio_NoVideo_A.csv,,,,,,,,,0,1,1,1,0,0,0,15,,,,,,,,,-0.36527777777777776,0.29212962962962963,1,0,0,6.383039099979214,call1,0.03611111111111111,-0.32037037037037036,1,0,0,7.1854800000437535,colour4,0.4375,-0.3125,1,0,0,7.920595999981742,number4,True,True,True,14,4,2019_Nov_14_1001,MA_Theta_Exp,3.0.7,60.681305427465524,
video/Experiment/zh_sp07_Dr_Gr_2_NoThetaInAudio_NoVideo.avi,noTheta,noVideo,sp07,Dr,Gr,2,1,4,flow/blocks/NoThetaInAudio_NoVideo_A.csv,,,,,,,,,0,1,1,1,0,1,1,21,,,,,,,,,-0.4125,0.2513888888888889,1,0,0,5.29879610001808,call1,0.025,0.08935185185185185,1,0,0,5.984854999987874,colour2,0.4527777777777778,0.08935185185185185,1,0,0,6.890712500025984,number2,False,True,True,14,4,2019_Nov_14_1001,MA_Theta_Exp,3.0.7,60.681305427465524,
video/Experiment/zh_sp01_Dr_Ro_3_NoThetaInAudio_NoVideo.avi,noTheta,noVideo,sp01,Dr,Ro,3,1,4,flow/blocks/NoThetaInAudio_NoVideo_A.csv,,,,,,,,,0,1,1,1,0,2,2,26,,,,,,,,,-0.3736111111111111,0.029166666666666667,1,0,0,6.663884599984158,call2,-0.03611111111111111,-0.06481481481481481,1,0,0,8.02689169999212,colour3,0.3972222222222222,-0.07314814814814814,1,0,0,8.775622100045439,number3,True,True,True,14,4,2019_Nov_14_1001,MA_Theta_Exp,3.0.7,60.681305427465524,
video/Experiment/zh_sp07_Ad_Ro_1_NoThetaInAudio_NoVideo.avi,noTheta,noVideo,sp07,Ad,Ro,1,1,4,flow/blocks/NoThetaInAudio_NoVideo_A.csv,,,,,,,,,0,1,1,1,0,3,3,8,,,,,,,,,-0.41388888888888886,0.28379629629629627,1,0,0,4.400812599982601,call1,0.008333333333333333,-0.07175925925925926,1,0,0,5.33435549994465,colour3,0.3958333333333333,0.24166666666666667,1,0,0,6.169098299986217,number1,True,True,True,14,4,2019_Nov_14_1001,MA_Theta_Exp,3.0.7,60.681305427465524,
video/Experiment/zh_sp07_Dr_Gr_1_NoThetaInAudio_NoVideo.avi,noTheta,noVideo,sp07,Dr,Gr,1,1,4,flow/blocks/NoThetaInAudio_NoVideo_A.csv,,,,,,,,,0,1,1,1,0,4,4,20,,,,,,,,,-0.3541666666666667,0.03333333333333333,1,0,0,5.259363799996208,call2,-0.06111111111111111,0.10694444444444444,1,0,0,5.813141999999061,colour2,0.3611111111111111,0.24166666666666667,1,0,0,6.591041400039103,number1,True,True,True,14,4,2019_Nov_14_1001,MA_Theta_Exp,3.0.7,60.681305427465524,
video/Experiment/zh_sp01_Ad_Ge_3_NoThetaInAudio_NoVideo.avi,noTheta,noVideo,sp01,Ad,Ge,3,1,4,flow/blocks/NoThetaInAudio_NoVideo_A.csv,,,,,,,,,0,1,1,1,0,5,5,2,,,,,,,,,-0.38333333333333336,0.33101851851851855,1,0,0,4.83467060001567,call1,0.005555555555555556,0.27824074074074073,1,0,0,5.564759599976242,colour1,0.40555555555555556,-0.11481481481481481,1,0,0,6.412116499966942,number3,True,True,True,14,4,2019_Nov_14_1001,MA_Theta_Exp,3.0.7,60.681305427465524,
video/Experiment/zh_sp07_Ad_Ro_2_NoThetaInAudio_NoVideo.avi,noTheta,noVideo,sp07,Ad,Ro,2,1,4,flow/blocks/NoThetaInAudio_NoVideo_A.csv,,,,,,,,,0,1,1,1,0,6,6,9,,,,,,,,,-0.4222222222222222,0.28888888888888886,1,0,0,4.522220399987418,call1,-0.05277777777777778,-0.07592592592592592,1,0,0,5.290557200030889,colour3,0.35833333333333334,0.05416666666666667,1,0,0,5.909454400010873,number2,True,True,True,14,4,2019_Nov_14_1001,MA_Theta_Exp,3.0.7,60.681305427465524,
video/Experiment/zh_sp01_Dr_We_3_NoThetaInAudio_NoVideo.avi,noTheta,noVideo,sp01,Dr,We,3,1,4,flow/blocks/NoThetaInAudio_NoVideo_A.csv,,,,,,,,,0,1,1,1,0,7,7,30,,,,,,,,,-0.41944444444444445,0.1,1,0,0,4.930759399954695,call2,0.008333333333333333,-0.28564814814814815,1,0,0,5.644434200017713,colour4,0.4152777777777778,-0.11342592592592593,1,0,0,6.300342299975455,number3,True,True,True,14,4,2019_Nov_14_1001,MA_Theta_Exp,3.0.7,60.681305427465524,
video/Experiment/zh_sp01_Ad_We_3_NoThetaInAudio_NoVideo.avi,noTheta,noVideo,sp01,Ad,We,3,1,4,flow/blocks/NoThetaInAudio_NoVideo_A.csv,,,,,,,,,0,1,1,1,0,8,8,14,,,,,,,,,-0.4361111111111111,0.28055555555555556,1,0,0,4.988390699960291,call1,0.03888888888888889,-0.324537037037037,1,0,0,5.838165900029708,colour4,0.3819444444444444,-0.09861111111111111,1,0,0,6.636523600027431,number3,True,True,True,14,4,2019_Nov_14_1001,MA_Theta_Exp,3.0.7,60.681305427465524,
video/Experiment/zh_sp01_Ad_We_2_NoThetaInAudio_NoVideo.avi,noTheta,noVideo,sp01,Ad,We,2,1,4,flow/blocks/NoThetaInAudio_NoVideo_A.csv,,,,,,,,,0,1,1,1,0,9,9,13,,,,,,,,,-0.43194444444444446,0.26157407407407407,1,0,0,5.0711919000023045,call1,-0.034722222222222224,-0.26342592592592595,1,0,0,5.918160800007172,colour4,0.43472222222222223,0.0625,1,0,0,6.7522824999759905,number2,True,True,True,14,4,2019_Nov_14_1001,MA_Theta_Exp,3.0.7,60.681305427465524,
video/Experiment/zh_sp01_Dr_Ro_4_NoThetaInAudio_NoVideo.avi,noTheta,noVideo,sp01,Dr,Ro,4,1,4,flow/blocks/NoThetaInAudio_NoVideo_A.csv,,,,,,,,,0,1,1,1,0,10,10,27,,,,,,,,,-0.38055555555555554,0.12268518518518519,1,0,0,5.839811699988786,call2,-0.05416666666666667,-0.08009259259259259,1,0,0,7.108483699965291,colour3,0.43472222222222223,-0.35509259259259257,1,0,0,8.19166980002774,number4,True,True,True,14,4,2019_Nov_14_1001,MA_Theta_Exp,3.0.7,60.681305427465524,
video/Experiment/zh_sp01_Dr_Gr_4_NoThetaInAudio_NoVideo.avi,noTheta,noVideo,sp01,Dr,Gr,4,1,4,flow/blocks/NoThetaInAudio_NoVideo_A.csv,,,,,,,,,0,1,1,1,0,11,11,23,,,,,,,,,-0.3638888888888889,0.05462962962962963,1,0,0,5.277938499988522,call2,-0.08472222222222223,0.0763888888888889,1,0,0,5.906375399965327,colour2,0.3888888888888889,-0.3648148148148148,1,0,0,6.827593400026672,number4,True,True,True,14,4,2019_Nov_14_1001,MA_Theta_Exp,3.0.7,60.681305427465524,
video/Experiment/zh_sp07_Ad_Gr_2_NoThetaInAudio_NoVideo.avi,noTheta,noVideo,sp07,Ad,Gr,2,1,4,flow/blocks/NoThetaInAudio_NoVideo_A.csv,,,,,,,,,0,1,1,1,0,12,12,5,,,,,,,,,-0.3972222222222222,0.1,1,0,0,5.022242500039283,call2,0.020833333333333332,0.09490740740740741,1,0,0,5.574679900018964,colour2,0.37083333333333335,0.10416666666666667,1,0,0,6.2068960999604315,number2,False,True,True,14,4,2019_Nov_14_1001,MA_Theta_Exp,3.0.7,60.681305427465524,
video/Experiment/zh_sp07_Dr_Ge_4_NoThetaInAudio_NoVideo.avi,noTheta,noVideo,sp07,Dr,Ge,4,1,4,flow/blocks/NoThetaInAudio_NoVideo_A.csv,,,,,,,,,0,1,1,1,0,13,13,19,,,,,,,,,-0.37083333333333335,0.09212962962962963,1,0,0,4.65569740004139,call2,-0.043055555555555555,0.2875,1,0,0,5.555601099971682,colour1,0.39305555555555555,-0.29583333333333334,1,0,0,6.390639799996279,number4,True,True,True,14,4,2019_Nov_14_1001,MA_Theta_Exp,3.0.7,60.681305427465524,
video/Experiment/zh_sp07_Ad_Ge_1_NoThetaInAudio_NoVideo.avi,noTheta,noVideo,sp07,Ad,Ge,1,1,4,flow/blocks/NoThetaInAudio_NoVideo_A.csv,,,,,,,,,0,1,1,1,0,14,14,0,,,,,,,,,-0.3902777777777778,0.28379629629629627,1,0,0,4.4212850000476465,call1,-0.05694444444444444,0.29907407407407405,1,0,0,5.170335299975704,colour1,0.4027777777777778,0.26990740740740743,1,0,0,5.934763800003566,number1,True,True,True,14,4,2019_Nov_14_1001,MA_Theta_Exp,3.0.7,60.681305427465524,
video/Experiment/zh_sp07_Dr_Ge_1_NoThetaInAudio_NoVideo.avi,noTheta,noVideo,sp07,Dr,Ge,1,1,4,flow/blocks/NoThetaInAudio_NoVideo_A.csv,,,,,,,,,0,1,1,1,0,15,15,16,,,,,,,,,-0.325,0.287962962962963,1,0,0,4.450744800036773,call1,-0.001388888888888889,0.29907407407407405,1,0,0,5.184533499996178,colour1,0.3763888888888889,0.27546296296296297,1,0,0,6.019313600030728,number1,False,True,True,14,4,2019_Nov_14_1001,MA_Theta_Exp,3.0.7,60.681305427465524,
video/Experiment/zh_sp07_Dr_Ro_1_NoThetaInAudio_NoVideo.avi,noTheta,noVideo,sp07,Dr,Ro,1,1,4,flow/blocks/NoThetaInAudio_NoVideo_A.csv,,,,,,,,,0,1,1,1,0,16,16,24,,,,,,,,,-0.3902777777777778,0.2638888888888889,1,0,0,4.300984099972993,call1,-0.027777777777777776,-0.05648148148148148,1,0,0,5.036090300010983,colour3,0.44583333333333336,0.2763888888888889,1,0,0,5.8203210000065155,number1,False,True,True,14,4,2019_Nov_14_1001,MA_Theta_Exp,3.0.7,60.681305427465524,
video/Experiment/zh_sp01_Dr_We_2_NoThetaInAudio_NoVideo.avi,noTheta,noVideo,sp01,Dr,We,2,1,4,flow/blocks/NoThetaInAudio_NoVideo_A.csv,,,,,,,,,0,1,1,1,0,17,17,29,,,,,,,,,-0.4027777777777778,0.06666666666666667,1,0,0,5.579787199967541,call2,-0.011111111111111112,-0.324537037037037,1,0,0,6.428848700015806,colour4,0.3861111111111111,0.10462962962962963,1,0,0,7.292381400009617,number2,True,True,True,14,4,2019_Nov_14_1001,MA_Theta_Exp,3.0.7,60.681305427465524,
video/Experiment/zh_sp07_Ad_Ge_4_NoThetaInAudio_NoVideo.avi,noTheta,noVideo,sp07,Ad,Ge,4,1,4,flow/blocks/NoThetaInAudio_NoVideo_A.csv,,,,,,,,,0,1,1,1,0,18,18,3,,,,,,,,,-0.3875,0.2875,1,0,0,4.604092300054617,call1,0.09166666666666666,0.03518518518518519,1,0,0,6.053177799971309,colour2,0.3625,-0.28425925925925927,1,0,0,7.301659699995071,number4,True,False,True,14,4,2019_Nov_14_1001,MA_Theta_Exp,3.0.7,60.681305427465524,
video/Experiment/zh_sp07_Dr_Gr_3_NoThetaInAudio_NoVideo.avi,noTheta,noVideo,sp07,Dr,Gr,3,1,4,flow/blocks/NoThetaInAudio_NoVideo_A.csv,,,,,,,,,0,1,1,1,0,19,19,22,,,,,,,,,-0.35,0.28379629629629627,1,0,0,4.5396680000121705,call1,0.002777777777777778,0.1087962962962963,1,0,0,5.119987200014293,colour2,0.4111111111111111,-0.09953703703703703,1,0,0,5.841153899964411,number3,False,True,True,14,4,2019_Nov_14_1001,MA_Theta_Exp,3.0.7,60.681305427465524,
video/Experiment/zh_sp01_Ad_Gr_3_NoThetaInAudio_NoVideo.avi,noTheta,noVideo,sp01,Ad,Gr,3,1,4,flow/blocks/NoThetaInAudio_NoVideo_A.csv,,,,,,,,,0,1,1,1,0,20,20,6,,,,,,,,,-0.37916666666666665,0.3101851851851852,1,0,0,5.484194900025614,call1,0.006944444444444444,0.12962962962962962,1,0,0,6.2688373000128195,colour2,0.37083333333333335,-0.11064814814814815,1,0,0,7.252162999997381,number3,True,True,True,14,4,2019_Nov_14_1001,MA_Theta_Exp,3.0.7,60.681305427465524,
video/Experiment/zh_sp07_Ad_Gr_1_NoThetaInAudio_NoVideo.avi,noTheta,noVideo,sp07,Ad,Gr,1,1,4,flow/blocks/NoThetaInAudio_NoVideo_A.csv,,,,,,,,,0,1,1,1,0,21,21,4,,,,,,,,,-0.4027777777777778,0.3013888888888889,1,0,0,4.460933800030034,call1,-0.03888888888888889,0.11574074074074074,1,0,0,5.056243699975312,colour2,0.3472222222222222,0.275,1,0,0,5.6744194000493735,number1,True,True,True,14,4,2019_Nov_14_1001,MA_Theta_Exp,3.0.7,60.681305427465524,
video/Experiment/zh_sp01_Ad_Ro_3_NoThetaInAudio_NoVideo.avi,noTheta,noVideo,sp01,Ad,Ro,3,1,4,flow/blocks/NoThetaInAudio_NoVideo_A.csv,,,,,,,,,0,1,1,1,0,22,22,10,,,,,,,,,-0.4111111111111111,0.32916666666666666,1,0,0,5.7013871999806724,call1,-0.06666666666666667,0.047685185185185185,1,0,0,6.884260100021493,colour2,0.39444444444444443,-0.14814814814814814,1,0,0,7.60463700001128,number3,True,False,True,14,4,2019_Nov_14_1001,MA_Theta_Exp,3.0.7,60.681305427465524,
video/Experiment/zh_sp01_Ad_We_1_NoThetaInAudio_NoVideo.avi,noTheta,noVideo,sp01,Ad,We,1,1,4,flow/blocks/NoThetaInAudio_NoVideo_A.csv,,,,,,,,,0,1,1,1,0,23,23,12,,,,,,,,,-0.3736111111111111,0.2708333333333333,1,0,0,5.11230749997776,call1,0.022222222222222223,-0.2967592592592593,1,0,0,6.011091199994553,colour4,0.35,0.2791666666666667,1,0,0,6.858148500032257,number1,True,True,True,14,4,2019_Nov_14_1001,MA_Theta_Exp,3.0.7,60.681305427465524,
video/Experiment/zh_sp01_Dr_Ge_3_NoThetaInAudio_NoVideo.avi,noTheta,noVideo,sp01,Dr,Ge,3,1,4,flow/blocks/NoThetaInAudio_NoVideo_A.csv,,,,,,,,,0,1,1,1,0,24,24,18,,,,,,,,,-0.39166666666666666,0.12962962962962962,1,0,0,5.534652300004382,call2,-0.011111111111111112,0.2777777777777778,1,0,0,6.7527054999955,colour1,0.37083333333333335,-0.09259259259259259,1,0,0,7.5691321000340395,number3,True,True,True,14,4,2019_Nov_14_1001,MA_Theta_Exp,3.0.7,60.681305427465524,
video/Experiment/zh_sp01_Dr_We_1_NoThetaInAudio_NoVideo.avi,noTheta,noVideo,sp01,Dr,We,1,1,4,flow/blocks/NoThetaInAudio_NoVideo_A.csv,,,,,,,,,0,1,1,1,0,25,25,28,,,,,,,,,-0.3527777777777778,0.10416666666666667,1,0,0,5.312990700011142,call2,0.03194444444444444,-0.29398148148148145,1,0,0,6.264668399991933,colour4,0.39861111111111114,0.25972222222222224,1,0,0,7.078425699961372,number1,True,True,True,14,4,2019_Nov_14_1001,MA_Theta_Exp,3.0.7,60.681305427465524,
video/Experiment/zh_sp01_Dr_Ro_2_NoThetaInAudio_NoVideo.avi,noTheta,noVideo,sp01,Dr,Ro,2,1,4,flow/blocks/NoThetaInAudio_NoVideo_A.csv,,,,,,,,,0,1,1,1,0,26,26,25,,,,,,,,,-0.4125,0.29444444444444445,1,0,0,5.750835000013467,call1,-0.0125,-0.08842592592592592,1,0,0,6.587516099971253,colour3,0.40555555555555556,0.08611111111111111,1,0,0,7.620599999965634,number2,False,True,True,14,4,2019_Nov_14_1001,MA_Theta_Exp,3.0.7,60.681305427465524,
video/Experiment/zh_sp07_Dr_We_4_NoThetaInAudio_NoVideo.avi,noTheta,noVideo,sp07,Dr,We,4,1,4,flow/blocks/NoThetaInAudio_NoVideo_A.csv,,,,,,,,,0,1,1,1,0,27,27,31,,,,,,,,,-0.44722222222222224,0.10416666666666667,1,0,0,4.5806139999767765,call2,0.0125,-0.3662037037037037,1,0,0,8.258107400033623,colour4,0.35,-0.3763888888888889,1,0,0,8.849596999993082,number4,True,True,True,14,4,2019_Nov_14_1001,MA_Theta_Exp,3.0.7,60.681305427465524,
video/Experiment/zh_sp01_Ad_Ro_4_NoThetaInAudio_NoVideo.avi,noTheta,noVideo,sp01,Ad,Ro,4,1,4,flow/blocks/NoThetaInAudio_NoVideo_A.csv,,,,,,,,,0,1,1,1,0,28,28,11,,,,,,,,,-0.4111111111111111,0.36435185185185187,1,0,0,5.21464369999012,call1,0.0,-0.05787037037037037,1,0,0,5.999370999983512,colour3,0.38055555555555554,-0.3162037037037037,1,0,0,6.7330249000224285,number4,True,True,True,14,4,2019_Nov_14_1001,MA_Theta_Exp,3.0.7,60.681305427465524,
video/Experiment/zh_sp07_Ad_Gr_4_NoThetaInAudio_NoVideo.avi,noTheta,noVideo,sp07,Ad,Gr,4,1,4,flow/blocks/NoThetaInAudio_NoVideo_A.csv,,,,,,,,,0,1,1,1,0,29,29,7,,,,,,,,,-0.3958333333333333,0.29074074074074074,1,0,0,4.320188699988648,call1,-0.020833333333333332,0.0962962962962963,1,0,0,4.906397900020238,colour2,0.3638888888888889,-0.2800925925925926,1,0,0,5.791667499986943,number4,True,True,True,14,4,2019_Nov_14_1001,MA_Theta_Exp,3.0.7,60.681305427465524,
video/Experiment/zh_sp07_Dr_Ge_2_NoThetaInAudio_NoVideo.avi,noTheta,noVideo,sp07,Dr,Ge,2,1,4,flow/blocks/NoThetaInAudio_NoVideo_A.csv,,,,,,,,,0,1,1,1,0,30,30,17,,,,,,,,,-0.4041666666666667,0.2875,1,0,0,5.110171599953901,call1,-0.06388888888888888,0.30694444444444446,1,0,0,5.91641800000798,colour1,0.3458333333333333,0.09768518518518518,1,0,0,6.678280899999663,number2,False,True,True,14,4,2019_Nov_14_1001,MA_Theta_Exp,3.0.7,60.681305427465524,
video/Experiment/zh_sp07_Ad_Ge_2_NoThetaInAudio_NoVideo.avi,noTheta,noVideo,sp07,Ad,Ge,2,1,4,flow/blocks/NoThetaInAudio_NoVideo_A.csv,,,,,,,,,0,1,1,1,0,31,31,1,,,,,,,,,-0.4027777777777778,0.3194444444444444,1,0,0,4.511400700022932,call1,0.011111111111111112,0.3143518518518518,1,0,0,5.277587399992626,colour1,0.3472222222222222,0.14907407407407408,1,0,0,6.061469000007492,number2,True,True,True,14,4,2019_Nov_14_1001,MA_Theta_Exp,3.0.7,60.681305427465524,
video/Experiment/zh_sp01_Ad_Gr_2_NVocInAudio_NoVideo.avi,vocoded,noVideo,sp01,Ad,Gr,2,2,2,flow/blocks/NVocInAudio_NoVideo_A.csv,,,,,,,,,0,2,2,2,0,0,0,5,,,,,,,,,-0.4152777777777778,0.26435185185185184,1,0,0,6.093777799978852,call1,0.07222222222222222,0.09027777777777778,1,0,0,6.911174500011839,colour2,0.3902777777777778,0.1125,1,0,0,7.560097099980339,number2,True,True,True,14,4,2019_Nov_14_1001,MA_Theta_Exp,3.0.7,60.681305427465524,
video/Experiment/zh_sp07_Dr_Ge_2_NVocInAudio_NoVideo.avi,vocoded,noVideo,sp07,Dr,Ge,2,2,2,flow/blocks/NVocInAudio_NoVideo_A.csv,,,,,,,,,0,2,2,2,0,1,1,17,,,,,,,,,-0.4236111111111111,0.10277777777777777,1,0,0,4.600169899989851,call2,-0.05694444444444444,0.29583333333333334,1,0,0,5.405225099995732,colour1,0.37083333333333335,0.08888888888888889,1,0,0,6.18559050001204,number2,True,True,True,14,4,2019_Nov_14_1001,MA_Theta_Exp,3.0.7,60.681305427465524,
video/Experiment/zh_sp07_Ad_Ge_4_NVocInAudio_NoVideo.avi,vocoded,noVideo,sp07,Ad,Ge,4,2,2,flow/blocks/NVocInAudio_NoVideo_A.csv,,,,,,,,,0,2,2,2,0,2,2,3,,,,,,,,,-0.45416666666666666,0.2708333333333333,1,0,0,4.658620300004259,call1,-0.001388888888888889,0.28935185185185186,1,0,0,5.476254599983804,colour1,0.375,-0.29259259259259257,1,0,0,6.422765099967364,number4,True,True,True,14,4,2019_Nov_14_1001,MA_Theta_Exp,3.0.7,60.681305427465524,
video/Experiment/zh_sp01_Dr_Ro_4_NVocInAudio_NoVideo.avi,vocoded,noVideo,sp01,Dr,Ro,4,2,2,flow/blocks/NVocInAudio_NoVideo_A.csv,,,,,,,,,0,2,2,2,0,3,3,27,,,,,,,,,-0.3958333333333333,0.10555555555555556,1,0,0,5.2836123000015505,call2,0.009722222222222222,-0.07592592592592592,1,0,0,6.041555999952834,colour3,0.4041666666666667,-0.3162037037037037,1,0,0,6.716807699995115,number4,True,True,True,14,4,2019_Nov_14_1001,MA_Theta_Exp,3.0.7,60.681305427465524,
video/Experiment/zh_sp01_Dr_Gr_4_NVocInAudio_NoVideo.avi,vocoded,noVideo,sp01,Dr,Gr,4,2,2,flow/blocks/NVocInAudio_NoVideo_A.csv,,,,,,,,,0,2,2,2,0,4,4,23,,,,,,,,,-0.3763888888888889,0.10324074074074074,1,0,0,5.151755099999718,call2,-0.011111111111111112,0.07685185185185185,1,0,0,5.882687300036196,colour2,0.3527777777777778,-0.33055555555555555,1,0,0,6.9354882999905385,number4,True,True,True,14,4,2019_Nov_14_1001,MA_Theta_Exp,3.0.7,60.681305427465524,
video/Experiment/zh_sp01_Ad_Gr_3_NVocInAudio_NoVideo.avi,vocoded,noVideo,sp01,Ad,Gr,3,2,2,flow/blocks/NVocInAudio_NoVideo_A.csv,,,,,,,,,0,2,2,2,0,5,5,6,,,,,,,,,-0.3902777777777778,0.31527777777777777,1,0,0,5.204710600024555,call1,0.043055555555555555,0.08935185185185185,1,0,0,5.9876949999597855,colour2,0.375,-0.11342592592592593,1,0,0,7.1198815000243485,number3,True,True,True,14,4,2019_Nov_14_1001,MA_Theta_Exp,3.0.7,60.681305427465524,
video/Experiment/zh_sp07_Ad_Ro_1_NVocInAudio_NoVideo.avi,vocoded,noVideo,sp07,Ad,Ro,1,2,2,flow/blocks/NVocInAudio_NoVideo_A.csv,,,,,,,,,0,2,2,2,0,6,6,8,,,,,,,,,-0.375,0.2712962962962963,1,0,0,4.743782599980477,call1,-0.016666666666666666,-0.07731481481481481,1,0,0,5.524623300007079,colour3,0.38333333333333336,0.34305555555555556,1,0,0,6.278843400010373,number1,True,True,True,14,4,2019_Nov_14_1001,MA_Theta_Exp,3.0.7,60.681305427465524,
video/Experiment/zh_sp07_Dr_Gr_2_NVocInAudio_NoVideo.avi,vocoded,noVideo,sp07,Dr,Gr,2,2,2,flow/blocks/NVocInAudio_NoVideo_A.csv,,,,,,,,,0,2,2,2,0,7,7,21,,,,,,,,,-0.35138888888888886,0.10555555555555556,1,0,0,4.603823100042064,call2,-0.02361111111111111,0.11990740740740741,1,0,0,5.256176399998367,colour2,0.3680555555555556,0.07685185185185185,1,0,0,5.972018199972808,number2,True,True,True,14,4,2019_Nov_14_1001,MA_Theta_Exp,3.0.7,60.681305427465524,
video/Experiment/zh_sp07_Dr_Gr_3_NVocInAudio_NoVideo.avi,vocoded,noVideo,sp07,Dr,Gr,3,2,2,flow/blocks/NVocInAudio_NoVideo_A.csv,,,,,,,,,0,2,2,2,0,8,8,22,,,,,,,,,-0.31527777777777777,0.075,1,0,0,4.531954700010829,call2,-0.016666666666666666,0.08888888888888889,1,0,0,5.184738199983258,colour2,0.37916666666666665,-0.11898148148148148,1,0,0,5.984286900027655,number3,True,True,True,14,4,2019_Nov_14_1001,MA_Theta_Exp,3.0.7,60.681305427465524,
video/Experiment/zh_sp07_Ad_Ro_2_NVocInAudio_NoVideo.avi,vocoded,noVideo,sp07,Ad,Ro,2,2,2,flow/blocks/NVocInAudio_NoVideo_A.csv,,,,,,,,,0,2,2,2,0,9,9,9,,,,,,,,,-0.35555555555555557,0.31666666666666665,1,0,0,4.698781899991445,call1,0.015277777777777777,-0.07314814814814814,1,0,0,5.499437500024214,colour3,0.4638888888888889,0.07083333333333333,1,0,0,6.346505399968009,number2,True,True,True,14,4,2019_Nov_14_1001,MA_Theta_Exp,3.0.7,60.681305427465524,
video/Experiment/zh_sp07_Dr_Gr_1_NVocInAudio_NoVideo.avi,vocoded,noVideo,sp07,Dr,Gr,1,2,2,flow/blocks/NVocInAudio_NoVideo_A.csv,,,,,,,,,0,2,2,2,0,10,10,20,,,,,,,,,-0.3875,0.08472222222222223,1,0,0,4.857977599953301,call2,-0.04722222222222222,0.10138888888888889,1,0,0,5.407623299979605,colour2,0.3486111111111111,0.29305555555555557,1,0,0,6.190649399999529,number1,True,True,True,14,4,2019_Nov_14_1001,MA_Theta_Exp,3.0.7,60.681305427465524,
video/Experiment/zh_sp07_Ad_Ro_4_NVocInAudio_NoVideo.avi,vocoded,noVideo,sp07,Ad,Ro,4,2,2,flow/blocks/NVocInAudio_NoVideo_A.csv,,,,,,,,,0,2,2,2,0,11,11,11,,,,,,,,,-0.375,0.30277777777777776,1,0,0,5.0357359000481665,call1,-0.0125,-0.08148148148148149,1,0,0,5.821254300011788,colour3,0.4083333333333333,-0.30092592592592593,1,0,0,6.407127199985553,number4,True,True,True,14,4,2019_Nov_14_1001,MA_Theta_Exp,3.0.7,60.681305427465524,
video/Experiment/zh_sp07_Dr_We_2_NVocInAudio_NoVideo.avi,vocoded,noVideo,sp07,Dr,We,2,2,2,flow/blocks/NVocInAudio_NoVideo_A.csv,,,,,,,,,0,2,2,2,0,12,12,29,,,,,,,,,-0.3902777777777778,0.09907407407407408,1,0,0,4.472876299987547,call2,0.001388888888888889,-0.2773148148148148,1,0,0,5.251510900037829,colour4,0.3541666666666667,0.06388888888888888,1,0,0,6.003844199993182,number2,True,True,True,14,4,2019_Nov_14_1001,MA_Theta_Exp,3.0.7,60.681305427465524,
video/Experiment/zh_sp01_Ad_Gr_4_NVocInAudio_NoVideo.avi,vocoded,noVideo,sp01,Ad,Gr,4,2,2,flow/blocks/NVocInAudio_NoVideo_A.csv,,,,,,,,,0,2,2,2,0,13,13,7,,,,,,,,,-0.38333333333333336,0.31527777777777777,1,0,0,5.299482100002933,call1,-0.030555555555555555,0.15046296296296297,1,0,0,5.896823499992024,colour2,0.35,-0.26064814814814813,1,0,0,6.829817399964668,number4,True,True,True,14,4,2019_Nov_14_1001,MA_Theta_Exp,3.0.7,60.681305427465524,
video/Experiment/zh_sp01_Ad_Ge_3_NVocInAudio_NoVideo.avi,vocoded,noVideo,sp01,Ad,Ge,3,2,2,flow/blocks/NVocInAudio_NoVideo_A.csv,,,,,,,,,0,2,2,2,0,14,14,2,,,,,,,,,-0.44027777777777777,0.2861111111111111,1,0,0,4.9574388999608345,call1,-0.06111111111111111,0.26990740740740743,1,0,0,5.671575899992604,colour1,0.38055555555555554,-0.13703703703703704,1,0,0,6.4596970999846235,number3,True,True,True,14,4,2019_Nov_14_1001,MA_Theta_Exp,3.0.7,60.681305427465524,
video/Experiment/zh_sp01_Ad_Ge_2_NVocInAudio_NoVideo.avi,vocoded,noVideo,sp01,Ad,Ge,2,2,2,flow/blocks/NVocInAudio_NoVideo_A.csv,,,,,,,,,0,2,2,2,0,15,15,1,,,,,,,,,-0.43194444444444446,0.33935185185185185,1,0,0,5.350770600023679,call1,-0.06527777777777778,0.29212962962962963,1,0,0,6.152520600007847,colour1,0.4527777777777778,0.07407407407407407,1,0,0,6.883637300052214,number2,True,True,True,14,4,2019_Nov_14_1001,MA_Theta_Exp,3.0.7,60.681305427465524,
video/Experiment/zh_sp01_Dr_Ro_1_NVocInAudio_NoVideo.avi,vocoded,noVideo,sp01,Dr,Ro,1,2,2,flow/blocks/NVocInAudio_NoVideo_A.csv,,,,,,,,,0,2,2,2,0,16,16,24,,,,,,,,,-0.3611111111111111,0.05277777777777778,1,0,0,5.137586899974849,call2,-0.008333333333333333,-0.09814814814814815,1,0,0,6.054665699950419,colour3,0.3541666666666667,0.27361111111111114,1,0,0,6.789599600015208,number1,True,True,True,14,4,2019_Nov_14_1001,MA_Theta_Exp,3.0.7,60.681305427465524,
video/Experiment/zh_sp01_Ad_Ro_3_NVocInAudio_NoVideo.avi,vocoded,noVideo,sp01,Ad,Ro,3,2,2,flow/blocks/NVocInAudio_NoVideo_A.csv,,,,,,,,,0,2,2,2,0,17,17,10,,,,,,,,,-0.4166666666666667,0.28379629629629627,1,0,0,5.001676000014413,call1,0.009722222222222222,-0.14675925925925926,1,0,0,5.938369999988936,colour3,0.44166666666666665,-0.14444444444444443,1,0,0,6.557975899951998,number3,True,True,True,14,4,2019_Nov_14_1001,MA_Theta_Exp,3.0.7,60.681305427465524,
video/Experiment/zh_sp07_Ad_Ge_1_NVocInAudio_NoVideo.avi,vocoded,noVideo,sp07,Ad,Ge,1,2,2,flow/blocks/NVocInAudio_NoVideo_A.csv,,,,,,,,,0,2,2,2,0,18,18,0,,,,,,,,,-0.4,0.29444444444444445,1,0,0,4.435705700016115,call1,-0.02638888888888889,0.2935185185185185,1,0,0,4.98421279998729,colour1,0.38472222222222224,0.27361111111111114,1,0,0,5.979340699966997,number1,True,True,True,14,4,2019_Nov_14_1001,MA_Theta_Exp,3.0.7,60.681305427465524,
video/Experiment/zh_sp07_Dr_Ge_4_NVocInAudio_NoVideo.avi,vocoded,noVideo,sp07,Dr,Ge,4,2,2,flow/blocks/NVocInAudio_NoVideo_A.csv,,,,,,,,,0,2,2,2,0,19,19,19,,,,,,,,,-0.37777777777777777,0.09166666666666666,1,0,0,4.560822800034657,call2,-0.03333333333333333,0.31527777777777777,1,0,0,5.221131599973887,colour1,0.3472222222222222,-0.2550925925925926,1,0,0,6.065110599971376,number4,True,True,True,14,4,2019_Nov_14_1001,MA_Theta_Exp,3.0.7,60.681305427465524,
video/Experiment/zh_sp07_Dr_Ge_3_NVocInAudio_NoVideo.avi,vocoded,noVideo,sp07,Dr,Ge,3,2,2,flow/blocks/NVocInAudio_NoVideo_A.csv,,,,,,,,,0,2,2,2,0,20,20,18,,,,,,,,,-0.4388888888888889,0.1,1,0,0,4.603820799966343,call2,-0.05416666666666667,0.26805555555555555,1,0,0,5.320325100037735,colour1,0.3638888888888889,-0.1259259259259259,1,0,0,6.265078300028108,number3,True,True,True,14,4,2019_Nov_14_1001,MA_Theta_Exp,3.0.7,60.681305427465524,
video/Experiment/zh_sp07_Ad_Gr_1_NVocInAudio_NoVideo.avi,vocoded,noVideo,sp07,Ad,Gr,1,2,2,flow/blocks/NVocInAudio_NoVideo_A.csv,,,,,,,,,0,2,2,2,0,21,21,4,,,,,,,,,-0.3958333333333333,0.30416666666666664,1,0,0,4.559106200002134,call1,0.03888888888888889,0.13796296296296295,1,0,0,5.2600221000029705,colour2,0.3763888888888889,0.26666666666666666,1,0,0,5.961380699998699,number1,True,True,True,14,4,2019_Nov_14_1001,MA_Theta_Exp,3.0.7,60.681305427465524,
video/Experiment/zh_sp07_Dr_We_1_NVocInAudio_NoVideo.avi,vocoded,noVideo,sp07,Dr,We,1,2,2,flow/blocks/NVocInAudio_NoVideo_A.csv,,,,,,,,,0,2,2,2,0,22,22,28,,,,,,,,,-0.3388888888888889,0.056018518518518516,1,0,0,5.115393000014592,call2,-0.05694444444444444,-0.2884259259259259,1,0,0,5.842860999982804,colour4,0.3861111111111111,0.3013888888888889,1,0,0,6.650407499982975,number1,True,True,True,14,4,2019_Nov_14_1001,MA_Theta_Exp,3.0.7,60.681305427465524,
video/Experiment/zh_sp01_Ad_We_3_NVocInAudio_NoVideo.avi,vocoded,noVideo,sp01,Ad,We,3,2,2,flow/blocks/NVocInAudio_NoVideo_A.csv,,,,,,,,,0,2,2,2,0,23,23,14,,,,,,,,,-0.41388888888888886,0.300462962962963,1,0,0,5.451816999993753,call1,-0.0125,-0.3148148148148148,1,0,0,6.2378171000164,colour4,0.3638888888888889,-0.13472222222222222,1,0,0,6.939647299994249,number3,True,True,True,14,4,2019_Nov_14_1001,MA_Theta_Exp,3.0.7,60.681305427465524,
video/Experiment/zh_sp01_Dr_Ro_3_NVocInAudio_NoVideo.avi,vocoded,noVideo,sp01,Dr,Ro,3,2,2,flow/blocks/NVocInAudio_NoVideo_A.csv,,,,,,,,,0,2,2,2,0,24,24,26,,,,,,,,,-0.3736111111111111,0.08333333333333333,1,0,0,5.906057700049132,call2,0.020833333333333332,-0.052314814814814814,1,0,0,6.788506000011694,colour3,0.3875,-0.1300925925925926,1,0,0,7.4247619999805465,number3,True,True,True,14,4,2019_Nov_14_1001,MA_Theta_Exp,3.0.7,60.681305427465524,
video/Experiment/zh_sp01_Dr_We_4_NVocInAudio_NoVideo.avi,vocoded,noVideo,sp01,Dr,We,4,2,2,flow/blocks/NVocInAudio_NoVideo_A.csv,,,,,,,,,0,2,2,2,0,25,25,31,,,,,,,,,-0.36944444444444446,0.1111111111111111,1,0,0,5.250396799994633,call2,-0.016666666666666666,-0.28425925925925927,1,0,0,5.979096699971706,colour4,0.46111111111111114,-0.34675925925925927,1,0,0,6.582191800000146,number4,True,True,True,14,4,2019_Nov_14_1001,MA_Theta_Exp,3.0.7,60.681305427465524,
video/Experiment/zh_sp07_Ad_We_1_NVocInAudio_NoVideo.avi,vocoded,noVideo,sp07,Ad,We,1,2,2,flow/blocks/NVocInAudio_NoVideo_A.csv,,,,,,,,,0,2,2,2,0,26,26,12,,,,,,,,,-0.39444444444444443,0.23472222222222222,1,0,0,5.9398587999749,call1,-0.025,-0.31342592592592594,1,0,0,6.6062416000058874,colour4,0.38333333333333336,0.3347222222222222,1,0,0,7.300288700032979,number1,True,True,True,14,4,2019_Nov_14_1001,MA_Theta_Exp,3.0.7,60.681305427465524,
video/Experiment/zh_sp01_Dr_Ge_1_NVocInAudio_NoVideo.avi,vocoded,noVideo,sp01,Dr,Ge,1,2,2,flow/blocks/NVocInAudio_NoVideo_A.csv,,,,,,,,,0,2,2,2,0,27,27,16,,,,,,,,,-0.36666666666666664,0.10601851851851851,1,0,0,5.474049200012814,call2,-0.009722222222222222,0.25833333333333336,1,0,0,6.15752780000912,colour1,0.35694444444444445,0.2490740740740741,1,0,0,6.860048500006087,number1,True,True,True,14,4,2019_Nov_14_1001,MA_Theta_Exp,3.0.7,60.681305427465524,
video/Experiment/zh_sp07_Dr_Ro_2_NVocInAudio_NoVideo.avi,vocoded,noVideo,sp07,Dr,Ro,2,2,2,flow/blocks/NVocInAudio_NoVideo_A.csv,,,,,,,,,0,2,2,2,0,28,28,25,,,,,,,,,-0.3597222222222222,0.08935185185185185,1,0,0,4.5809344999725,call2,-0.020833333333333332,-0.09398148148148149,1,0,0,5.156576700042933,colour3,0.3958333333333333,0.058333333333333334,1,0,0,5.955764300015289,number2,True,True,True,14,4,2019_Nov_14_1001,MA_Theta_Exp,3.0.7,60.681305427465524,
video/Experiment/zh_sp01_Ad_We_2_NVocInAudio_NoVideo.avi,vocoded,noVideo,sp01,Ad,We,2,2,2,flow/blocks/NVocInAudio_NoVideo_A.csv,,,,,,,,,0,2,2,2,0,29,29,13,,,,,,,,,-0.35138888888888886,0.2935185185185185,1,0,0,5.230211500020232,call1,-0.034722222222222224,-0.29398148148148145,1,0,0,6.280434200016316,colour4,0.4097222222222222,0.04722222222222222,1,0,0,6.9994843999738805,number2,True,True,True,14,4,2019_Nov_14_1001,MA_Theta_Exp,3.0.7,60.681305427465524,
video/Experiment/zh_sp01_Ad_We_4_NVocInAudio_NoVideo.avi,vocoded,noVideo,sp01,Ad,We,4,2,2,flow/blocks/NVocInAudio_NoVideo_A.csv,,,,,,,,,0,2,2,2,0,30,30,15,,,,,,,,,-0.3333333333333333,0.3236111111111111,1,0,0,4.961437700025272,call1,0.0,-0.24259259259259258,1,0,0,5.763745500007644,colour4,0.36944444444444446,-0.3398148148148148,1,0,0,6.466485099983402,number4,True,True,True,14,4,2019_Nov_14_1001,MA_Theta_Exp,3.0.7,60.681305427465524,
video/Experiment/zh_sp01_Dr_We_3_NVocInAudio_NoVideo.avi,vocoded,noVideo,sp01,Dr,We,3,2,2,flow/blocks/NVocInAudio_NoVideo_A.csv,,,,,,,,,0,2,2,2,0,31,31,30,,,,,,,,,-0.3861111111111111,0.07962962962962963,1,0,0,5.094601499964483,call2,-0.02361111111111111,-0.3384259259259259,1,0,0,6.408565299992915,colour4,0.37083333333333335,-0.11805555555555555,1,0,0,7.139672999968752,number3,True,True,True,14,4,2019_Nov_14_1001,MA_Theta_Exp,3.0.7,60.681305427465524,
video/Experiment/zh_sp07_Ad_We_2_NoThetaInAudio_GlobalThetaInVideo.avi,noTheta,plusVideo,sp07,Ad,We,2,3,3,flow/blocks/NoThetaInAudio_GlobalThetaInVideo_A.csv,,,,,,,,,0,3,3,3,0,0,0,13,,,,,,,,,-0.32916666666666666,0.2847222222222222,1,0,0,4.700559500022791,call1,0.0,-0.2912037037037037,1,0,0,5.456151899998076,colour4,0.37777777777777777,0.05694444444444444,1,0,0,6.085310900001787,number2,True,True,True,14,4,2019_Nov_14_1001,MA_Theta_Exp,3.0.7,60.681305427465524,
video/Experiment/zh_sp07_Dr_We_2_NoThetaInAudio_GlobalThetaInVideo.avi,noTheta,plusVideo,sp07,Dr,We,2,3,3,flow/blocks/NoThetaInAudio_GlobalThetaInVideo_A.csv,,,,,,,,,0,3,3,3,0,1,1,29,,,,,,,,,-0.3888888888888889,0.10972222222222222,1,0,0,4.762965300003998,call2,0.002777777777777778,-0.2689814814814815,1,0,0,5.476896999985911,colour4,0.3680555555555556,0.08194444444444444,1,0,0,6.563270200043917,number2,True,True,True,14,4,2019_Nov_14_1001,MA_Theta_Exp,3.0.7,60.681305427465524,
video/Experiment/zh_sp07_Dr_Gr_1_NoThetaInAudio_GlobalThetaInVideo.avi,noTheta,plusVideo,sp07,Dr,Gr,1,3,3,flow/blocks/NoThetaInAudio_GlobalThetaInVideo_A.csv,,,,,,,,,0,3,3,3,0,2,2,20,,,,,,,,,-0.3819444444444444,0.08472222222222223,1,0,0,4.710095299989916,call2,-0.025,0.1,1,0,0,5.276441499998327,colour2,0.42083333333333334,0.2833333333333333,1,0,0,5.946532699977979,number1,True,True,True,14,4,2019_Nov_14_1001,MA_Theta_Exp,3.0.7,60.681305427465524,
video/Experiment/zh_sp07_Dr_Ro_1_NoThetaInAudio_GlobalThetaInVideo.avi,noTheta,plusVideo,sp07,Dr,Ro,1,3,3,flow/blocks/NoThetaInAudio_GlobalThetaInVideo_A.csv,,,,,,,,,0,3,3,3,0,3,3,24,,,,,,,,,-0.4041666666666667,0.26944444444444443,1,0,0,4.3446500999853015,call1,-0.07916666666666666,-0.07453703703703704,1,0,0,5.017173999978695,colour3,0.3388888888888889,0.3125,1,0,0,5.728375899954699,number1,False,True,True,14,4,2019_Nov_14_1001,MA_Theta_Exp,3.0.7,60.681305427465524,
video/Experiment/zh_sp01_Ad_Ge_4_NoThetaInAudio_GlobalThetaInVideo.avi,noTheta,plusVideo,sp01,Ad,Ge,4,3,3,flow/blocks/NoThetaInAudio_GlobalThetaInVideo_A.csv,,,,,,,,,0,3,3,3,0,4,4,3,,,,,,,,,-0.34305555555555556,0.31666666666666665,1,0,0,5.003994099970441,call1,-0.05694444444444444,0.30462962962962964,1,0,0,5.552361500042025,colour1,0.37916666666666665,-0.30787037037037035,1,0,0,6.237949499976821,number4,True,True,True,14,4,2019_Nov_14_1001,MA_Theta_Exp,3.0.7,60.681305427465524,
video/Experiment/zh_sp07_Dr_Ge_1_NoThetaInAudio_GlobalThetaInVideo.avi,noTheta,plusVideo,sp07,Dr,Ge,1,3,3,flow/blocks/NoThetaInAudio_GlobalThetaInVideo_A.csv,,,,,,,,,0,3,3,3,0,5,5,16,,,,,,,,,-0.3875,0.3458333333333333,1,0,0,4.299131300009321,call1,-0.022222222222222223,0.3351851851851852,1,0,0,4.862725500017405,colour1,0.3597222222222222,0.26435185185185184,1,0,0,5.727407899976242,number1,False,True,True,14,4,2019_Nov_14_1001,MA_Theta_Exp,3.0.7,60.681305427465524,
video/Experiment/zh_sp07_Dr_We_1_NoThetaInAudio_GlobalThetaInVideo.avi,noTheta,plusVideo,sp07,Dr,We,1,3,3,flow/blocks/NoThetaInAudio_GlobalThetaInVideo_A.csv,,,,,,,,,0,3,3,3,0,6,6,28,,,,,,,,,-0.3472222222222222,0.07361111111111111,1,0,0,4.621138599992264,call2,-0.020833333333333332,-0.2773148148148148,1,0,0,5.336619500012603,colour4,0.38472222222222224,0.275,1,0,0,6.12453029997414,number1,True,True,True,14,4,2019_Nov_14_1001,MA_Theta_Exp,3.0.7,60.681305427465524,
video/Experiment/zh_sp01_Dr_Ro_2_NoThetaInAudio_GlobalThetaInVideo.avi,noTheta,plusVideo,sp01,Dr,Ro,2,3,3,flow/blocks/NoThetaInAudio_GlobalThetaInVideo_A.csv,,,,,,,,,0,3,3,3,0,7,7,25,,,,,,,,,-0.3680555555555556,0.12222222222222222,1,0,0,5.250334099982865,call2,0.009722222222222222,-0.13148148148148148,1,0,0,5.796341700013727,colour3,0.375,0.07916666666666666,1,0,0,6.503982700000051,number2,True,True,True,14,4,2019_Nov_14_1001,MA_Theta_Exp,3.0.7,60.681305427465524,
video/Experiment/zh_sp07_Dr_Ro_4_NoThetaInAudio_GlobalThetaInVideo.avi,noTheta,plusVideo,sp07,Dr,Ro,4,3,3,flow/blocks/NoThetaInAudio_GlobalThetaInVideo_A.csv,,,,,,,,,0,3,3,3,0,8,8,27,,,,,,,,,-0.41388888888888886,0.12129629629629629,1,0,0,4.5706023999955505,call2,0.03333333333333333,0.0587962962962963,1,0,0,5.805887900001835,colour2,0.42916666666666664,-0.3162037037037037,1,0,0,6.471244300017133,number4,True,False,True,14,4,2019_Nov_14_1001,MA_Theta_Exp,3.0.7,60.681305427465524,
video/Experiment/zh_sp07_Ad_Gr_4_NoThetaInAudio_GlobalThetaInVideo.avi,noTheta,plusVideo,sp07,Ad,Gr,4,3,3,flow/blocks/NoThetaInAudio_GlobalThetaInVideo_A.csv,,,,,,,,,0,3,3,3,0,9,9,7,,,,,,,,,-0.38472222222222224,0.14583333333333334,1,0,0,4.79816349997418,call2,0.07083333333333333,0.0712962962962963,1,0,0,5.656320499954745,colour2,0.3638888888888889,-0.2814814814814815,1,0,0,6.490941299998667,number4,False,True,True,14,4,2019_Nov_14_1001,MA_Theta_Exp,3.0.7,60.681305427465524,
video/Experiment/zh_sp07_Ad_We_4_NoThetaInAudio_GlobalThetaInVideo.avi,noTheta,plusVideo,sp07,Ad,We,4,3,3,flow/blocks/NoThetaInAudio_GlobalThetaInVideo_A.csv,,,,,,,,,0,3,3,3,0,10,10,15,,,,,,,,,-0.3888888888888889,0.3060185185185185,1,0,0,4.458503600035328,call1,-0.011111111111111112,-0.2898148148148148,1,0,0,7.122964399983175,colour4,0.4097222222222222,-0.2689814814814815,1,0,0,7.809029299998656,number4,True,True,True,14,4,2019_Nov_14_1001,MA_Theta_Exp,3.0.7,60.681305427465524,
video/Experiment/zh_sp07_Ad_Ge_2_NoThetaInAudio_GlobalThetaInVideo.avi,noTheta,plusVideo,sp07,Ad,Ge,2,3,3,flow/blocks/NoThetaInAudio_GlobalThetaInVideo_A.csv,,,,,,,,,0,3,3,3,0,11,11,1,,,,,,,,,-0.4,0.2902777777777778,1,0,0,4.285952900012489,call1,0.016666666666666666,0.2916666666666667,1,0,0,4.783977999992203,colour1,0.3402777777777778,0.11157407407407408,1,0,0,5.314705199969467,number2,True,True,True,14,4,2019_Nov_14_1001,MA_Theta_Exp,3.0.7,60.681305427465524,
video/Experiment/zh_sp01_Dr_Ge_3_NoThetaInAudio_GlobalThetaInVideo.avi,noTheta,plusVideo,sp01,Dr,Ge,3,3,3,flow/blocks/NoThetaInAudio_GlobalThetaInVideo_A.csv,,,,,,,,,0,3,3,3,0,12,12,18,,,,,,,,,-0.36944444444444446,0.07685185185185185,1,0,0,4.994499199965503,call2,-0.05555555555555555,0.27361111111111114,1,0,0,5.64854030002607,colour1,0.3861111111111111,-0.12083333333333333,1,0,0,6.444563299999572,number3,True,True,True,14,4,2019_Nov_14_1001,MA_Theta_Exp,3.0.7,60.681305427465524,
video/Experiment/zh_sp01_Ad_Gr_1_NoThetaInAudio_GlobalThetaInVideo.avi,noTheta,plusVideo,sp01,Ad,Gr,1,3,3,flow/blocks/NoThetaInAudio_GlobalThetaInVideo_A.csv,,,,,,,,,0,3,3,3,0,13,13,4,,,,,,,,,-0.3541666666666667,0.30694444444444446,1,0,0,5.197076199983712,call1,0.03333333333333333,0.0824074074074074,1,0,0,5.877609000017401,colour2,0.3472222222222222,0.24305555555555555,1,0,0,6.5309287999989465,number1,True,True,True,14,4,2019_Nov_14_1001,MA_Theta_Exp,3.0.7,60.681305427465524,
video/Experiment/zh_sp01_Ad_Ro_3_NoThetaInAudio_GlobalThetaInVideo.avi,noTheta,plusVideo,sp01,Ad,Ro,3,3,3,flow/blocks/NoThetaInAudio_GlobalThetaInVideo_A.csv,,,,,,,,,0,3,3,3,0,14,14,10,,,,,,,,,-0.39166666666666666,0.31805555555555554,1,0,0,5.495235999987926,call1,-0.04861111111111111,-0.04537037037037037,1,0,0,6.226349400007166,colour3,0.44305555555555554,-0.1375,1,0,0,7.129560599976685,number3,True,True,True,14,4,2019_Nov_14_1001,MA_Theta_Exp,3.0.7,60.681305427465524,
video/Experiment/zh_sp01_Ad_Ge_3_NoThetaInAudio_GlobalThetaInVideo.avi,noTheta,plusVideo,sp01,Ad,Ge,3,3,3,flow/blocks/NoThetaInAudio_GlobalThetaInVideo_A.csv,,,,,,,,,0,3,3,3,0,15,15,2,,,,,,,,,-0.35,0.3060185185185185,1,0,0,4.7743117999634705,call1,-0.03888888888888889,0.3138888888888889,1,0,0,5.361435500031803,colour1,0.4597222222222222,-0.09675925925925925,1,0,0,6.157262499968056,number3,True,True,True,14,4,2019_Nov_14_1001,MA_Theta_Exp,3.0.7,60.681305427465524,
video/Experiment/zh_sp01_Ad_Ro_4_NoThetaInAudio_GlobalThetaInVideo.avi,noTheta,plusVideo,sp01,Ad,Ro,4,3,3,flow/blocks/NoThetaInAudio_GlobalThetaInVideo_A.csv,,,,,,,,,0,3,3,3,0,16,16,11,,,,,,,,,-0.45555555555555555,0.275,1,0,0,5.30581049999455,call1,-0.004166666666666667,-0.13287037037037036,1,0,0,6.252074000018183,colour3,0.4305555555555556,-0.3148148148148148,1,0,0,6.933764000015799,number4,True,True,True,14,4,2019_Nov_14_1001,MA_Theta_Exp,3.0.7,60.681305427465524,
video/Experiment/zh_sp01_Dr_Gr_3_NoThetaInAudio_GlobalThetaInVideo.avi,noTheta,plusVideo,sp01,Dr,Gr,3,3,3,flow/blocks/NoThetaInAudio_GlobalThetaInVideo_A.csv,,,,,,,,,0,3,3,3,0,17,17,22,,,,,,,,,-0.42083333333333334,0.11388888888888889,1,0,0,5.192751399998087,call2,-0.025,0.0837962962962963,1,0,0,5.927561899996363,colour2,0.3527777777777778,-0.13425925925925927,1,0,0,6.5729294999619015,number3,True,True,True,14,4,2019_Nov_14_1001,MA_Theta_Exp,3.0.7,60.681305427465524,
video/Experiment/zh_sp01_Ad_Ro_2_NoThetaInAudio_GlobalThetaInVideo.avi,noTheta,plusVideo,sp01,Ad,Ro,2,3,3,flow/blocks/NoThetaInAudio_GlobalThetaInVideo_A.csv,,,,,,,,,0,3,3,3,0,18,18,9,,,,,,,,,-0.4638888888888889,0.2791666666666667,1,0,0,5.318672100023832,call1,-0.029166666666666667,-0.08009259259259259,1,0,0,6.056562000012491,colour3,0.4111111111111111,0.06666666666666667,1,0,0,6.718709500040859,number2,True,True,True,14,4,2019_Nov_14_1001,MA_Theta_Exp,3.0.7,60.681305427465524,
video/Experiment/zh_sp01_Dr_We_3_NoThetaInAudio_GlobalThetaInVideo.avi,noTheta,plusVideo,sp01,Dr,We,3,3,3,flow/blocks/NoThetaInAudio_GlobalThetaInVideo_A.csv,,,,,,,,,0,3,3,3,0,19,19,30,,,,,,,,,-0.44722222222222224,0.10694444444444444,1,0,0,5.159635799995158,call2,-0.005555555555555556,-0.24953703703703703,1,0,0,5.925334100029431,colour4,0.4361111111111111,-0.1527777777777778,1,0,0,6.6575374999665655,number3,True,True,True,14,4,2019_Nov_14_1001,MA_Theta_Exp,3.0.7,60.681305427465524,
video/Experiment/zh_sp01_Dr_Ge_4_NoThetaInAudio_GlobalThetaInVideo.avi,noTheta,plusVideo,sp01,Dr,Ge,4,3,3,flow/blocks/NoThetaInAudio_GlobalThetaInVideo_A.csv,,,,,,,,,0,3,3,3,0,20,20,19,,,,,,,,,-0.3819444444444444,0.05,1,0,0,5.263843299995642,call2,-0.018055555555555554,0.3111111111111111,1,0,0,5.948190999974031,colour1,0.37777777777777777,-0.30092592592592593,1,0,0,6.709949200041592,number4,True,True,True,14,4,2019_Nov_14_1001,MA_Theta_Exp,3.0.7,60.681305427465524,
video/Experiment/zh_sp01_Dr_Ge_2_NoThetaInAudio_GlobalThetaInVideo.avi,noTheta,plusVideo,sp01,Dr,Ge,2,3,3,flow/blocks/NoThetaInAudio_GlobalThetaInVideo_A.csv,,,,,,,,,0,3,3,3,0,21,21,17,,,,,,,,,-0.325,0.11990740740740741,1,0,0,5.106891000003088,call2,-0.03611111111111111,0.2611111111111111,1,0,0,5.768074899970088,colour1,0.35555555555555557,0.06435185185185185,1,0,0,6.816021999984514,number2,True,True,True,14,4,2019_Nov_14_1001,MA_Theta_Exp,3.0.7,60.681305427465524,
video/Experiment/zh_sp07_Ad_We_3_NoThetaInAudio_GlobalThetaInVideo.avi,noTheta,plusVideo,sp07,Ad,We,3,3,3,flow/blocks/NoThetaInAudio_GlobalThetaInVideo_A.csv,,,,,,,,,0,3,3,3,0,22,22,14,,,,,,,,,-0.4083333333333333,0.3597222222222222,1,0,0,4.250768699974287,call1,-0.0763888888888889,-0.2884259259259259,1,0,0,5.170093099994119,colour4,0.37916666666666665,-0.14027777777777778,1,0,0,5.757302100013476,number3,True,True,True,14,4,2019_Nov_14_1001,MA_Theta_Exp,3.0.7,60.681305427465524,
video/Experiment/zh_sp01_Dr_Gr_2_NoThetaInAudio_GlobalThetaInVideo.avi,noTheta,plusVideo,sp01,Dr,Gr,2,3,3,flow/blocks/NoThetaInAudio_GlobalThetaInVideo_A.csv,,,,,,,,,0,3,3,3,0,23,23,21,,,,,,,,,-0.3902777777777778,0.11805555555555555,1,0,0,5.429345400014427,call2,-0.03333333333333333,0.0824074074074074,1,0,0,6.029166399966925,colour2,0.3861111111111111,0.0587962962962963,1,0,0,6.578181499964558,number2,True,True,True,14,4,2019_Nov_14_1001,MA_Theta_Exp,3.0.7,60.681305427465524,
video/Experiment/zh_sp07_Dr_Ro_3_NoThetaInAudio_GlobalThetaInVideo.avi,noTheta,plusVideo,sp07,Dr,Ro,3,3,3,flow/blocks/NoThetaInAudio_GlobalThetaInVideo_A.csv,,,,,,,,,0,3,3,3,0,24,24,26,,,,,,,,,-0.37916666666666665,0.30972222222222223,1,0,0,4.362899400002789,call1,-0.041666666666666664,-0.05787037037037037,1,0,0,5.098734900006093,colour3,0.43333333333333335,-0.16898148148148148,1,0,0,5.688581299968064,number3,False,True,True,14,4,2019_Nov_14_1001,MA_Theta_Exp,3.0.7,60.681305427465524,
video/Experiment/zh_sp07_Ad_Ro_1_NoThetaInAudio_GlobalThetaInVideo.avi,noTheta,plusVideo,sp07,Ad,Ro,1,3,3,flow/blocks/NoThetaInAudio_GlobalThetaInVideo_A.csv,,,,,,,,,0,3,3,3,0,25,25,8,,,,,,,,,-0.36527777777777776,0.3472222222222222,1,0,0,5.048801299999468,call1,-0.04722222222222222,-0.07175925925925926,1,0,0,5.75005339999916,colour3,0.3277777777777778,0.26944444444444443,1,0,0,6.4457151999813505,number1,True,True,True,14,4,2019_Nov_14_1001,MA_Theta_Exp,3.0.7,60.681305427465524,
video/Experiment/zh_sp07_Dr_Gr_4_NoThetaInAudio_GlobalThetaInVideo.avi,noTheta,plusVideo,sp07,Dr,Gr,4,3,3,flow/blocks/NoThetaInAudio_GlobalThetaInVideo_A.csv,,,,,,,,,0,3,3,3,0,26,26,23,,,,,,,,,-0.35138888888888886,0.0875,1,0,0,4.705704800027888,call2,0.022222222222222223,0.10601851851851851,1,0,0,5.324764099961612,colour2,0.36666666666666664,-0.12037037037037036,1,0,0,6.1929901000112295,number3,True,True,False,14,4,2019_Nov_14_1001,MA_Theta_Exp,3.0.7,60.681305427465524,
video/Experiment/zh_sp01_Ad_Gr_2_NoThetaInAudio_GlobalThetaInVideo.avi,noTheta,plusVideo,sp01,Ad,Gr,2,3,3,flow/blocks/NoThetaInAudio_GlobalThetaInVideo_A.csv,,,,,,,,,0,3,3,3,0,27,27,5,,,,,,,,,-0.40555555555555556,0.26944444444444443,1,0,0,5.291686500015203,call1,0.04027777777777778,0.04212962962962963,1,0,0,5.924181000038516,colour2,0.4388888888888889,0.04027777777777778,1,0,0,6.624396800005343,number2,True,True,True,14,4,2019_Nov_14_1001,MA_Theta_Exp,3.0.7,60.681305427465524,
video/Experiment/zh_sp01_Dr_We_4_NoThetaInAudio_GlobalThetaInVideo.avi,noTheta,plusVideo,sp01,Dr,We,4,3,3,flow/blocks/NoThetaInAudio_GlobalThetaInVideo_A.csv,,,,,,,,,0,3,3,3,0,28,28,31,,,,,,,,,-0.4152777777777778,0.12685185185185185,1,0,0,5.11084610002581,call2,-0.0125,-0.3439814814814815,1,0,0,5.816530299955048,colour4,0.4041666666666667,-0.3314814814814815,1,0,0,6.430923600040842,number4,True,True,True,14,4,2019_Nov_14_1001,MA_Theta_Exp,3.0.7,60.681305427465524,
video/Experiment/zh_sp01_Ad_Gr_3_NoThetaInAudio_GlobalThetaInVideo.avi,noTheta,plusVideo,sp01,Ad,Gr,3,3,3,flow/blocks/NoThetaInAudio_GlobalThetaInVideo_A.csv,,,,,,,,,0,3,3,3,0,29,29,6,,,,,,,,,-0.33055555555555555,0.2712962962962963,1,0,0,5.085065999999642,call1,-0.05416666666666667,0.06851851851851852,1,0,0,5.71857899997849,colour2,0.4125,-0.10787037037037037,1,0,0,6.319361099973321,number3,True,True,True,14,4,2019_Nov_14_1001,MA_Theta_Exp,3.0.7,60.681305427465524,
video/Experiment/zh_sp07_Ad_Ge_1_NoThetaInAudio_GlobalThetaInVideo.avi,noTheta,plusVideo,sp07,Ad,Ge,1,3,3,flow/blocks/NoThetaInAudio_GlobalThetaInVideo_A.csv,,,,,,,,,0,3,3,3,0,30,30,0,,,,,,,,,-0.45555555555555555,0.2986111111111111,1,0,0,4.353017400018871,call1,-0.04861111111111111,0.26805555555555555,1,0,0,5.11827939999057,colour1,0.4083333333333333,0.2824074074074074,1,0,0,5.805101900012232,number1,True,True,True,14,4,2019_Nov_14_1001,MA_Theta_Exp,3.0.7,60.681305427465524,
video/Experiment/zh_sp07_Ad_We_1_NoThetaInAudio_GlobalThetaInVideo.avi,noTheta,plusVideo,sp07,Ad,We,1,3,3,flow/blocks/NoThetaInAudio_GlobalThetaInVideo_A.csv,,,,,,,,,0,3,3,3,0,31,31,12,,,,,,,,,-0.3611111111111111,0.3212962962962963,1,0,0,4.335461999988183,call1,0.0,-0.2953703703703704,1,0,0,5.086479199992027,colour4,0.3902777777777778,0.25,1,0,0,5.854988900013268,number1,True,True,True,14,4,2019_Nov_14_1001,MA_Theta_Exp,3.0.7,60.681305427465524,
video/Experiment/zh_sp01_Dr_We_2_GlobalTheta_NoVideo.avi,globalTheta,noVideo,sp01,Dr,We,2,4,5,flow/blocks/GlobalTheta_NoVideo_A.csv,,,,,,,,,0,4,4,4,0,0,0,29,,,,,,,,,-0.3888888888888889,0.3365740740740741,1,0,0,6.683074900007341,call1,0.001388888888888889,-0.28703703703703703,1,0,0,7.5679599000141025,colour4,0.3486111111111111,0.08055555555555556,1,0,0,8.350481699977536,number2,False,True,True,14,4,2019_Nov_14_1001,MA_Theta_Exp,3.0.7,60.681305427465524,
video/Experiment/zh_sp07_Ad_Ge_4_GlobalTheta_NoVideo.avi,globalTheta,noVideo,sp07,Ad,Ge,4,4,5,flow/blocks/GlobalTheta_NoVideo_A.csv,,,,,,,,,0,4,4,4,0,1,1,3,,,,,,,,,-0.31527777777777777,0.2708333333333333,1,0,0,4.666138799977489,call1,-0.018055555555555554,0.2916666666666667,1,0,0,5.502726100035943,colour1,0.3680555555555556,-0.3162037037037037,1,0,0,6.218535499996506,number4,True,True,True,14,4,2019_Nov_14_1001,MA_Theta_Exp,3.0.7,60.681305427465524,
video/Experiment/zh_sp07_Ad_Gr_3_GlobalTheta_NoVideo.avi,globalTheta,noVideo,sp07,Ad,Gr,3,4,5,flow/blocks/GlobalTheta_NoVideo_A.csv,,,,,,,,,0,4,4,4,0,2,2,6,,,,,,,,,-0.3763888888888889,0.2972222222222222,1,0,0,4.525857000029646,call1,-0.04027777777777778,0.08518518518518518,1,0,0,5.37520329997642,colour2,0.4305555555555556,-0.1425925925925926,1,0,0,6.359435499995016,number3,True,True,True,14,4,2019_Nov_14_1001,MA_Theta_Exp,3.0.7,60.681305427465524,
video/Experiment/zh_sp07_Dr_Ge_1_GlobalTheta_NoVideo.avi,globalTheta,noVideo,sp07,Dr,Ge,1,4,5,flow/blocks/GlobalTheta_NoVideo_A.csv,,,,,,,,,0,4,4,4,0,3,3,16,,,,,,,,,-0.3763888888888889,0.31851851851851853,1,0,0,4.282417499984149,call1,-0.008333333333333333,0.3282407407407407,1,0,0,4.887502700032201,colour1,0.42777777777777776,0.2740740740740741,1,0,0,5.483356899989303,number1,False,True,True,14,4,2019_Nov_14_1001,MA_Theta_Exp,3.0.7,60.681305427465524,
video/Experiment/zh_sp01_Dr_We_1_GlobalTheta_NoVideo.avi,globalTheta,noVideo,sp01,Dr,We,1,4,5,flow/blocks/GlobalTheta_NoVideo_A.csv,,,,,,,,,0,4,4,4,0,4,4,28,,,,,,,,,-0.46805555555555556,0.31851851851851853,1,0,0,5.135077400016598,call1,-0.005555555555555556,-0.27175925925925926,1,0,0,5.88665930001298,colour4,0.375,0.2833333333333333,1,0,0,6.7008639999548905,number1,False,True,True,14,4,2019_Nov_14_1001,MA_Theta_Exp,3.0.7,60.681305427465524,
video/Experiment/zh_sp07_Ad_Gr_4_GlobalTheta_NoVideo.avi,globalTheta,noVideo,sp07,Ad,Gr,4,4,5,flow/blocks/GlobalTheta_NoVideo_A.csv,,,,,,,,,0,4,4,4,0,5,5,7,,,,,,,,,-0.4125,0.3125,1,0,0,4.392168499995023,call1,-0.020833333333333332,0.10185185185185185,1,0,0,4.991458599979524,colour2,0.40555555555555556,-0.3162037037037037,1,0,0,5.805452800006606,number4,True,True,True,14,4,2019_Nov_14_1001,MA_Theta_Exp,3.0.7,60.681305427465524,
video/Experiment/zh_sp07_Ad_Ro_2_GlobalTheta_NoVideo.avi,globalTheta,noVideo,sp07,Ad,Ro,2,4,5,flow/blocks/GlobalTheta_NoVideo_A.csv,,,,,,,,,0,4,4,4,0,6,6,9,,,,,,,,,-0.35555555555555557,0.27361111111111114,1,0,0,4.872932900034357,call1,-0.018055555555555554,0.09907407407407408,1,0,0,6.12311139999656,colour2,0.3388888888888889,0.1087962962962963,1,0,0,6.87748460000148,number2,True,False,True,14,4,2019_Nov_14_1001,MA_Theta_Exp,3.0.7,60.681305427465524,
video/Experiment/zh_sp01_Dr_Gr_3_GlobalTheta_NoVideo.avi,globalTheta,noVideo,sp01,Dr,Gr,3,4,5,flow/blocks/GlobalTheta_NoVideo_A.csv,,,,,,,,,0,4,4,4,0,7,7,22,,,,,,,,,-0.4111111111111111,0.33796296296296297,1,0,0,4.946968899981584,call1,0.03194444444444444,0.12268518518518519,1,0,0,5.578644499997608,colour2,0.3527777777777778,-0.08703703703703704,1,0,0,6.226884000003338,number3,False,True,True,14,4,2019_Nov_14_1001,MA_Theta_Exp,3.0.7,60.681305427465524,
video/Experiment/zh_sp01_Ad_Ge_3_GlobalTheta_NoVideo.avi,globalTheta,noVideo,sp01,Ad,Ge,3,4,5,flow/blocks/GlobalTheta_NoVideo_A.csv,,,,,,,,,0,4,4,4,0,8,8,2,,,,,,,,,-0.40555555555555556,0.3101851851851852,1,0,0,4.741260899987537,call1,0.058333333333333334,0.3226851851851852,1,0,0,5.315999399987049,colour1,0.39861111111111114,-0.08842592592592592,1,0,0,6.039850600005593,number3,True,True,True,14,4,2019_Nov_14_1001,MA_Theta_Exp,3.0.7,60.681305427465524,
video/Experiment/zh_sp01_Ad_We_2_GlobalTheta_NoVideo.avi,globalTheta,noVideo,sp01,Ad,We,2,4,5,flow/blocks/GlobalTheta_NoVideo_A.csv,,,,,,,,,0,4,4,4,0,9,9,13,,,,,,,,,-0.3541666666666667,0.25833333333333336,1,0,0,5.619030100002419,call1,0.043055555555555555,-0.2884259259259259,1,0,0,8.30289630003972,colour4,0.3888888888888889,-0.11666666666666667,1,0,0,8.990766200004146,number3,True,True,False,14,4,2019_Nov_14_1001,MA_Theta_Exp,3.0.7,60.681305427465524,
video/Experiment/zh_sp01_Dr_Ro_1_GlobalTheta_NoVideo.avi,globalTheta,noVideo,sp01,Dr,Ro,1,4,5,flow/blocks/GlobalTheta_NoVideo_A.csv,,,,,,,,,0,4,4,4,0,10,10,24,,,,,,,,,-0.3472222222222222,0.10740740740740741,1,0,0,5.468705699953716,call2,-0.02638888888888889,-0.10787037037037037,1,0,0,6.151624199992511,colour3,0.4527777777777778,0.28055555555555556,1,0,0,7.222738299984485,number1,True,True,True,14,4,2019_Nov_14_1001,MA_Theta_Exp,3.0.7,60.681305427465524,
video/Experiment/zh_sp07_Ad_We_1_GlobalTheta_NoVideo.avi,globalTheta,noVideo,sp07,Ad,We,1,4,5,flow/blocks/GlobalTheta_NoVideo_A.csv,,,,,,,,,0,4,4,4,0,11,11,12,,,,,,,,,-0.4777777777777778,0.32685185185185184,1,0,0,4.583373900037259,call1,0.008333333333333333,-0.3037037037037037,1,0,0,5.320136499998625,colour4,0.3527777777777778,0.275,1,0,0,6.186417199962307,number1,True,True,True,14,4,2019_Nov_14_1001,MA_Theta_Exp,3.0.7,60.681305427465524,
video/Experiment/zh_sp01_Dr_Gr_2_GlobalTheta_NoVideo.avi,globalTheta,noVideo,sp01,Dr,Gr,2,4,5,flow/blocks/GlobalTheta_NoVideo_A.csv,,,,,,,,,0,4,4,4,0,12,12,21,,,,,,,,,-0.3277777777777778,0.08888888888888889,1,0,0,5.596735300030559,call2,0.034722222222222224,0.049074074074074076,1,0,0,6.247263299999759,colour2,0.3625,0.04351851851851852,1,0,0,6.865472900040913,number2,True,True,True,14,4,2019_Nov_14_1001,MA_Theta_Exp,3.0.7,60.681305427465524,
video/Experiment/zh_sp07_Dr_We_3_GlobalTheta_NoVideo.avi,globalTheta,noVideo,sp07,Dr,We,3,4,5,flow/blocks/GlobalTheta_NoVideo_A.csv,,,,,,,,,0,4,4,4,0,13,13,30,,,,,,,,,-0.4236111111111111,0.26666666666666666,1,0,0,4.162318599992432,call1,-0.041666666666666664,-0.2912037037037037,1,0,0,5.013546400004998,colour4,0.3638888888888889,-0.09722222222222222,1,0,0,5.647198699996807,number3,False,True,True,14,4,2019_Nov_14_1001,MA_Theta_Exp,3.0.7,60.681305427465524,
video/Experiment/zh_sp07_Ad_We_4_GlobalTheta_NoVideo.avi,globalTheta,noVideo,sp07,Ad,We,4,4,5,flow/blocks/GlobalTheta_NoVideo_A.csv,,,,,,,,,0,4,4,4,0,14,14,15,,,,,,,,,-0.3333333333333333,0.2611111111111111,1,0,0,4.953345599991735,call1,0.034722222222222224,-0.2759259259259259,1,0,0,5.7364604999893345,colour4,0.35555555555555557,-0.3314814814814815,1,0,0,6.474683700012974,number4,True,True,True,14,4,2019_Nov_14_1001,MA_Theta_Exp,3.0.7,60.681305427465524,
video/Experiment/zh_sp01_Dr_Gr_1_GlobalTheta_NoVideo.avi,globalTheta,noVideo,sp01,Dr,Gr,1,4,5,flow/blocks/GlobalTheta_NoVideo_A.csv,,,,,,,,,0,4,4,4,0,15,15,20,,,,,,,,,-0.45694444444444443,0.07083333333333333,1,0,0,5.755064300028607,call2,-0.041666666666666664,0.10833333333333334,1,0,0,6.376819199998863,colour2,0.40694444444444444,0.3055555555555556,1,0,0,6.972567200020421,number1,True,True,True,14,4,2019_Nov_14_1001,MA_Theta_Exp,3.0.7,60.681305427465524,
video/Experiment/zh_sp07_Dr_Ge_2_GlobalTheta_NoVideo.avi,globalTheta,noVideo,sp07,Dr,Ge,2,4,5,flow/blocks/GlobalTheta_NoVideo_A.csv,,,,,,,,,0,4,4,4,0,16,16,17,,,,,,,,,-0.45694444444444443,0.27824074074074073,1,0,0,4.421075599966571,call1,-0.03888888888888889,0.3212962962962963,1,0,0,5.1047727999975905,colour1,0.39444444444444443,0.02824074074074074,1,0,0,6.414560200006235,number2,False,True,True,14,4,2019_Nov_14_1001,MA_Theta_Exp,3.0.7,60.681305427465524,
video/Experiment/zh_sp01_Ad_Ro_4_GlobalTheta_NoVideo.avi,globalTheta,noVideo,sp01,Ad,Ro,4,4,5,flow/blocks/GlobalTheta_NoVideo_A.csv,,,,,,,,,0,4,4,4,0,17,17,11,,,,,,,,,-0.3458333333333333,0.275,1,0,0,5.2001969999982975,call1,-0.03194444444444444,-0.09259259259259259,1,0,0,6.067129000031855,colour3,0.3472222222222222,-0.3300925925925926,1,0,0,6.782769499986898,number4,True,True,True,14,4,2019_Nov_14_1001,MA_Theta_Exp,3.0.7,60.681305427465524,
video/Experiment/zh_sp01_Ad_Ge_1_GlobalTheta_NoVideo.avi,globalTheta,noVideo,sp01,Ad,Ge,1,4,5,flow/blocks/GlobalTheta_NoVideo_A.csv,,,,,,,,,0,4,4,4,0,18,18,0,,,,,,,,,-0.3541666666666667,0.35185185185185186,1,0,0,5.1703140999889,call1,0.0,0.3282407407407407,1,0,0,5.687001899990719,colour1,0.31805555555555554,0.32407407407407407,1,0,0,6.436699800018687,number1,True,True,True,14,4,2019_Nov_14_1001,MA_Theta_Exp,3.0.7,60.681305427465524,
video/Experiment/zh_sp01_Dr_Ge_3_GlobalTheta_NoVideo.avi,globalTheta,noVideo,sp01,Dr,Ge,3,4,5,flow/blocks/GlobalTheta_NoVideo_A.csv,,,,,,,,,0,4,4,4,0,19,19,18,,,,,,,,,-0.39444444444444443,0.08796296296296297,1,0,0,5.231098800024483,call2,0.004166666666666667,0.31805555555555554,1,0,0,5.919262500014156,colour1,0.3902777777777778,-0.1050925925925926,1,0,0,6.612361299979966,number3,True,True,True,14,4,2019_Nov_14_1001,MA_Theta_Exp,3.0.7,60.681305427465524,
video/Experiment/zh_sp01_Dr_Ro_2_GlobalTheta_NoVideo.avi,globalTheta,noVideo,sp01,Dr,Ro,2,4,5,flow/blocks/GlobalTheta_NoVideo_A.csv,,,,,,,,,0,4,4,4,0,20,20,25,,,,,,,,,-0.36527777777777776,0.25833333333333336,1,0,0,5.840354899992235,call1,0.05277777777777778,-0.06620370370370371,1,0,0,6.736767800000962,colour3,0.4305555555555556,0.08611111111111111,1,0,0,7.553341199993156,number2,False,True,True,14,4,2019_Nov_14_1001,MA_Theta_Exp,3.0.7,60.681305427465524,
video/Experiment/zh_sp07_Dr_Ge_4_GlobalTheta_NoVideo.avi,globalTheta,noVideo,sp07,Dr,Ge,4,4,5,flow/blocks/GlobalTheta_NoVideo_A.csv,,,,,,,,,0,4,4,4,0,21,21,19,,,,,,,,,-0.3541666666666667,0.3125,1,0,0,6.641529899963643,call1,-0.03194444444444444,0.31574074074074077,1,0,0,7.19484300003387,colour1,0.3625,-0.25787037037037036,1,0,0,7.975864599982742,number4,False,True,True,14,4,2019_Nov_14_1001,MA_Theta_Exp,3.0.7,60.681305427465524,
video/Experiment/zh_sp01_Ad_We_3_GlobalTheta_NoVideo.avi,globalTheta,noVideo,sp01,Ad,We,3,4,5,flow/blocks/GlobalTheta_NoVideo_A.csv,,,,,,,,,0,4,4,4,0,22,22,14,,,,,,,,,-0.3972222222222222,0.29907407407407405,1,0,0,4.827982599963434,call1,0.0625,-0.262037037037037,1,0,0,5.6306162000400946,colour4,0.34305555555555556,-0.12916666666666668,1,0,0,6.5786102000274695,number3,True,True,True,14,4,2019_Nov_14_1001,MA_Theta_Exp,3.0.7,60.681305427465524,
video/Experiment/zh_sp01_Ad_Gr_1_GlobalTheta_NoVideo.avi,globalTheta,noVideo,sp01,Ad,Gr,1,4,5,flow/blocks/GlobalTheta_NoVideo_A.csv,,,,,,,,,0,4,4,4,0,23,23,4,,,,,,,,,-0.3736111111111111,0.2875,1,0,0,5.136554399970919,call1,0.05,0.03935185185185185,1,0,0,5.7749243000289425,colour2,0.4166666666666667,0.3333333333333333,1,0,0,6.575596000009682,number1,True,True,True,14,4,2019_Nov_14_1001,MA_Theta_Exp,3.0.7,60.681305427465524,
video/Experiment/zh_sp07_Ad_Ro_1_GlobalTheta_NoVideo.avi,globalTheta,noVideo,sp07,Ad,Ro,1,4,5,flow/blocks/GlobalTheta_NoVideo_A.csv,,,,,,,,,0,4,4,4,0,24,24,8,,,,,,,,,-0.41944444444444445,0.2652777777777778,1,0,0,4.608330600021873,call1,-0.005555555555555556,0.27824074074074073,1,0,0,5.476408100046683,colour1,0.38055555555555554,0.3194444444444444,1,0,0,6.0464117000228725,number1,True,False,True,14,4,2019_Nov_14_1001,MA_Theta_Exp,3.0.7,60.681305427465524,
video/Experiment/zh_sp01_Ad_Ge_2_GlobalTheta_NoVideo.avi,globalTheta,noVideo,sp01,Ad,Ge,2,4,5,flow/blocks/GlobalTheta_NoVideo_A.csv,,,,,,,,,0,4,4,4,0,25,25,1,,,,,,,,,-0.3597222222222222,0.2861111111111111,1,0,0,5.147197799989954,call1,0.019444444444444445,0.3143518518518518,1,0,0,5.678493099985644,colour1,0.41805555555555557,0.07546296296296297,1,0,0,6.314954400004353,number2,True,True,True,14,4,2019_Nov_14_1001,MA_Theta_Exp,3.0.7,60.681305427465524,
video/Experiment/zh_sp07_Dr_Gr_4_GlobalTheta_NoVideo.avi,globalTheta,noVideo,sp07,Dr,Gr,4,4,5,flow/blocks/GlobalTheta_NoVideo_A.csv,,,,,,,,,0,4,4,4,0,26,26,23,,,,,,,,,-0.3763888888888889,0.3,1,0,0,4.689125300035812,call1,0.059722222222222225,0.12407407407407407,1,0,0,5.274334700021427,colour2,0.3347222222222222,-0.062037037037037036,1,0,0,5.872576099995058,number3,False,True,False,14,4,2019_Nov_14_1001,MA_Theta_Exp,3.0.7,60.681305427465524,
video/Experiment/zh_sp01_Dr_Ro_3_GlobalTheta_NoVideo.avi,globalTheta,noVideo,sp01,Dr,Ro,3,4,5,flow/blocks/GlobalTheta_NoVideo_A.csv,,,,,,,,,0,4,4,4,0,27,27,26,,,,,,,,,-0.3527777777777778,0.04861111111111111,1,0,0,4.984374399995431,call2,-0.034722222222222224,-0.08703703703703704,1,0,0,8.001272900030017,colour3,0.3736111111111111,-0.08148148148148149,1,0,0,8.683156399987638,number3,True,True,True,14,4,2019_Nov_14_1001,MA_Theta_Exp,3.0.7,60.681305427465524,
video/Experiment/zh_sp07_Ad_Ro_3_GlobalTheta_NoVideo.avi,globalTheta,noVideo,sp07,Ad,Ro,3,4,5,flow/blocks/GlobalTheta_NoVideo_A.csv,,,,,,,,,0,4,4,4,0,28,28,10,,,,,,,,,-0.3638888888888889,0.2824074074074074,1,0,0,4.2865724000148475,call1,-0.03611111111111111,-0.060648148148148145,1,0,0,5.0868516999762505,colour3,0.36944444444444446,-0.09259259259259259,1,0,0,5.774227400019299,number3,True,True,True,14,4,2019_Nov_14_1001,MA_Theta_Exp,3.0.7,60.681305427465524,
video/Experiment/zh_sp07_Dr_Ro_4_GlobalTheta_NoVideo.avi,globalTheta,noVideo,sp07,Dr,Ro,4,4,5,flow/blocks/GlobalTheta_NoVideo_A.csv,,,,,,,,,0,4,4,4,0,29,29,27,,,,,,,,,-0.3902777777777778,0.33935185185185185,1,0,0,4.373083900019992,call1,-0.0125,0.2810185185185185,1,0,0,4.936619199987035,colour1,0.3416666666666667,-0.24814814814814815,1,0,0,5.699650800030213,number4,False,False,True,14,4,2019_Nov_14_1001,MA_Theta_Exp,3.0.7,60.681305427465524,
video/Experiment/zh_sp07_Dr_We_4_GlobalTheta_NoVideo.avi,globalTheta,noVideo,sp07,Dr,We,4,4,5,flow/blocks/GlobalTheta_NoVideo_A.csv,,,,,,,,,0,4,4,4,0,30,30,31,,,,,,,,,-0.3597222222222222,0.28055555555555556,1,0,0,4.307183799974155,call1,0.027777777777777776,-0.26342592592592595,1,0,0,5.225486300012562,colour4,0.3763888888888889,-0.09305555555555556,1,0,0,5.827669700025581,number3,False,True,False,14,4,2019_Nov_14_1001,MA_Theta_Exp,3.0.7,60.681305427465524,
video/Experiment/zh_sp07_Ad_Gr_2_GlobalTheta_NoVideo.avi,globalTheta,noVideo,sp07,Ad,Gr,2,4,5,flow/blocks/GlobalTheta_NoVideo_A.csv,,,,,,,,,0,4,4,4,0,31,31,5,,,,,,,,,-0.47638888888888886,0.2851851851851852,1,0,0,4.3543105000280775,call1,-0.015277777777777777,0.11712962962962963,1,0,0,4.96002060000319,colour2,0.31805555555555554,0.07546296296296297,1,0,0,5.751300200005062,number2,True,True,True,14,4,2019_Nov_14_1001,MA_Theta_Exp,3.0.7,60.681305427465524,
video/Experiment/zh_sp01_Un_We_1_NVocInAudio_NoVideo.avi,vocoded,noVideo,sp01,Un,We,1,0,2,flow/blocks/NVocInAudio_NoVideo_B.csv,,,,,,,,,,,,,,,,,0,0,0,0,0,0,0,28,-0.3638888888888889,-0.29259259259259257,1,0,0,6.381382899999153,call4,0.0,-0.2884259259259259,1,0,0,7.062582500046119,colour4,0.34305555555555556,0.2777777777777778,1,0,0,7.7990891999797896,number1,True,True,True,14,4,2019_Nov_14_1001,MA_Theta_Exp,3.0.7,60.681305427465524,
video/Experiment/zh_sp07_Un_Gr_1_NVocInAudio_NoVideo.avi,vocoded,noVideo,sp07,Un,Gr,1,0,2,flow/blocks/NVocInAudio_NoVideo_B.csv,,,,,,,,,,,,,,,,,0,0,0,0,0,1,1,20,-0.39861111111111114,-0.31342592592592594,1,0,0,4.530934999987949,call4,-0.016666666666666666,0.07083333333333333,1,0,0,5.254343100008555,colour2,0.4527777777777778,0.30277777777777776,1,0,0,5.867889399989508,number1,True,True,True,14,4,2019_Nov_14_1001,MA_Theta_Exp,3.0.7,60.681305427465524,
video/Experiment/zh_sp07_Un_Ge_1_NVocInAudio_NoVideo.avi,vocoded,noVideo,sp07,Un,Ge,1,0,2,flow/blocks/NVocInAudio_NoVideo_B.csv,,,,,,,,,,,,,,,,,0,0,0,0,0,2,2,16,-0.3625,-0.29814814814814816,1,0,0,5.2796222000033595,call4,0.013888888888888888,0.3388888888888889,1,0,0,5.961884699994698,colour1,0.38472222222222224,0.3087962962962963,1,0,0,6.717864500009455,number1,True,True,True,14,4,2019_Nov_14_1001,MA_Theta_Exp,3.0.7,60.681305427465524,
video/Experiment/zh_sp01_Ti_Gr_3_NVocInAudio_NoVideo.avi,vocoded,noVideo,sp01,Ti,Gr,3,0,2,flow/blocks/NVocInAudio_NoVideo_B.csv,,,,,,,,,,,,,,,,,0,0,0,0,0,3,3,6,-0.3625,-0.10138888888888889,1,0,0,5.246983599965461,call3,0.04722222222222222,0.07777777777777778,1,0,0,5.995474600000307,colour2,0.425,-0.1175925925925926,1,0,0,6.659091099980287,number3,True,True,True,14,4,2019_Nov_14_1001,MA_Theta_Exp,3.0.7,60.681305427465524,
video/Experiment/zh_sp07_Ti_We_3_NVocInAudio_NoVideo.avi,vocoded,noVideo,sp07,Ti,We,3,0,2,flow/blocks/NVocInAudio_NoVideo_B.csv,,,,,,,,,,,,,,,,,0,0,0,0,0,4,4,14,-0.3611111111111111,-0.05648148148148148,1,0,0,4.757812900003046,call3,0.004166666666666667,-0.2773148148148148,1,0,0,5.401879800017923,colour4,0.35694444444444445,-0.09583333333333334,1,0,0,6.036093999980949,number3,True,True,True,14,4,2019_Nov_14_1001,MA_Theta_Exp,3.0.7,60.681305427465524,
video/Experiment/zh_sp01_Ti_Ro_1_NVocInAudio_NoVideo.avi,vocoded,noVideo,sp01,Ti,Ro,1,0,2,flow/blocks/NVocInAudio_NoVideo_B.csv,,,,,,,,,,,,,,,,,0,0,0,0,0,5,5,8,-0.35,-0.09814814814814815,1,0,0,5.056860800017603,call3,0.06527777777777778,-0.07222222222222222,1,0,0,5.594889600004535,colour3,0.35555555555555557,0.31574074074074077,1,0,0,6.323566599981859,number1,True,True,True,14,4,2019_Nov_14_1001,MA_Theta_Exp,3.0.7,60.681305427465524,
video/Experiment/zh_sp01_Un_We_3_NVocInAudio_NoVideo.avi,vocoded,noVideo,sp01,Un,We,3,0,2,flow/blocks/NVocInAudio_NoVideo_B.csv,,,,,,,,,,,,,,,,,0,0,0,0,0,6,6,30,-0.3902777777777778,-0.2972222222222222,1,0,0,5.04545950004831,call4,0.013888888888888888,-0.2791666666666667,1,0,0,5.811552200000733,colour4,0.4597222222222222,-0.08611111111111111,1,0,0,6.531211900000926,number3,True,True,True,14,4,2019_Nov_14_1001,MA_Theta_Exp,3.0.7,60.681305427465524,
video/Experiment/zh_sp07_Ti_Gr_2_NVocInAudio_NoVideo.avi,vocoded,noVideo,sp07,Ti,Gr,2,0,2,flow/blocks/NVocInAudio_NoVideo_B.csv,,,,,,,,,,,,,,,,,0,0,0,0,0,7,7,5,-0.38472222222222224,-0.12777777777777777,1,0,0,4.481487000011839,call3,0.020833333333333332,0.10694444444444444,1,0,0,5.1168703000294045,colour2,0.3263888888888889,0.13333333333333333,1,0,0,5.793342299992219,number2,True,True,True,14,4,2019_Nov_14_1001,MA_Theta_Exp,3.0.7,60.681305427465524,
video/Experiment/zh_sp01_Un_Gr_2_NVocInAudio_NoVideo.avi,vocoded,noVideo,sp01,Un,Gr,2,0,2,flow/blocks/NVocInAudio_NoVideo_B.csv,,,,,,,,,,,,,,,,,0,0,0,0,0,8,8,21,-0.3472222222222222,-0.30925925925925923,1,0,0,5.577436400053557,call4,-0.04861111111111111,0.07777777777777778,1,0,0,6.364932199998293,colour2,0.4097222222222222,0.10601851851851851,1,0,0,6.994718200003263,number2,True,True,True,14,4,2019_Nov_14_1001,MA_Theta_Exp,3.0.7,60.681305427465524,
video/Experiment/zh_sp07_Un_Ro_3_NVocInAudio_NoVideo.avi,vocoded,noVideo,sp07,Un,Ro,3,0,2,flow/blocks/NVocInAudio_NoVideo_B.csv,,,,,,,,,,,,,,,,,0,0,0,0,0,9,9,26,-0.4527777777777778,-0.324537037037037,1,0,0,4.36969040002441,call4,-0.03333333333333333,-0.1111111111111111,1,0,0,5.100952000007965,colour3,0.36944444444444446,-0.10972222222222222,1,0,0,5.9185682000243105,number3,True,True,True,14,4,2019_Nov_14_1001,MA_Theta_Exp,3.0.7,60.681305427465524,
video/Experiment/zh_sp01_Ti_Ro_2_NVocInAudio_NoVideo.avi,vocoded,noVideo,sp01,Ti,Ro,2,0,2,flow/blocks/NVocInAudio_NoVideo_B.csv,,,,,,,,,,,,,,,,,0,0,0,0,0,10,10,9,-0.3625,-0.13472222222222222,1,0,0,5.354014799988363,call3,-0.041666666666666664,-0.09583333333333334,1,0,0,6.337699799973052,colour3,0.38472222222222224,0.07361111111111111,1,0,0,7.024341700016521,number2,True,True,True,14,4,2019_Nov_14_1001,MA_Theta_Exp,3.0.7,60.681305427465524,
video/Experiment/zh_sp01_Ti_Ge_2_NVocInAudio_NoVideo.avi,vocoded,noVideo,sp01,Ti,Ge,2,0,2,flow/blocks/NVocInAudio_NoVideo_B.csv,,,,,,,,,,,,,,,,,0,0,0,0,0,11,11,1,-0.31527777777777777,-0.11481481481481481,1,0,0,5.18653089995496,call3,-0.004166666666666667,0.35138888888888886,1,0,0,5.871131099993363,colour1,0.3347222222222222,0.12129629629629629,1,0,0,6.605236699979287,number2,True,True,True,14,4,2019_Nov_14_1001,MA_Theta_Exp,3.0.7,60.681305427465524,
video/Experiment/zh_sp01_Ti_Gr_4_NVocInAudio_NoVideo.avi,vocoded,noVideo,sp01,Ti,Gr,4,0,2,flow/blocks/NVocInAudio_NoVideo_B.csv,,,,,,,,,,,,,,,,,0,0,0,0,0,12,12,7,-0.39166666666666666,-0.13842592592592592,1,0,0,5.362073199998122,call3,-0.059722222222222225,0.06666666666666667,1,0,0,6.045498999999836,colour2,0.3625,-0.31203703703703706,1,0,0,6.86333600000944,number4,True,True,True,14,4,2019_Nov_14_1001,MA_Theta_Exp,3.0.7,60.681305427465524,
video/Experiment/zh_sp07_Un_Ge_4_NVocInAudio_NoVideo.avi,vocoded,noVideo,sp07,Un,Ge,4,0,2,flow/blocks/NVocInAudio_NoVideo_B.csv,,,,,,,,,,,,,,,,,0,0,0,0,0,13,13,19,-0.38333333333333336,-0.30092592592592593,1,0,0,4.301096600014716,call4,-0.008333333333333333,0.2986111111111111,1,0,0,5.099962900043465,colour1,0.4166666666666667,-0.29814814814814816,1,0,0,5.877365500025917,number4,True,True,True,14,4,2019_Nov_14_1001,MA_Theta_Exp,3.0.7,60.681305427465524,
video/Experiment/zh_sp07_Ti_Gr_1_NVocInAudio_NoVideo.avi,vocoded,noVideo,sp07,Ti,Gr,1,0,2,flow/blocks/NVocInAudio_NoVideo_B.csv,,,,,,,,,,,,,,,,,0,0,0,0,0,14,14,4,-0.3972222222222222,-0.07222222222222222,1,0,0,4.565605700016022,call3,-0.04027777777777778,0.09027777777777778,1,0,0,5.432430099986959,colour2,0.4013888888888889,0.30277777777777776,1,0,0,5.996215199993458,number1,True,True,True,14,4,2019_Nov_14_1001,MA_Theta_Exp,3.0.7,60.681305427465524,
video/Experiment/zh_sp01_Un_Ge_2_NVocInAudio_NoVideo.avi,vocoded,noVideo,sp01,Un,Ge,2,0,2,flow/blocks/NVocInAudio_NoVideo_B.csv,,,,,,,,,,,,,,,,,0,0,0,0,0,15,15,17,-0.3888888888888889,-0.3939814814814815,1,0,0,5.001046999997925,call4,0.05555555555555555,0.32222222222222224,1,0,0,5.763993899978232,colour1,0.4222222222222222,0.09490740740740741,1,0,0,6.430874500016216,number2,True,True,True,14,4,2019_Nov_14_1001,MA_Theta_Exp,3.0.7,60.681305427465524,
video/Experiment/zh_sp01_Ti_Ro_4_NVocInAudio_NoVideo.avi,vocoded,noVideo,sp01,Ti,Ro,4,0,2,flow/blocks/NVocInAudio_NoVideo_B.csv,,,,,,,,,,,,,,,,,0,0,0,0,0,16,16,11,-0.35,-0.09027777777777778,1,0,0,5.067760300007649,call3,0.019444444444444445,-0.07314814814814814,1,0,0,5.653652200009674,colour3,0.44027777777777777,-0.26064814814814813,1,0,0,6.451762699987739,number4,True,True,True,14,4,2019_Nov_14_1001,MA_Theta_Exp,3.0.7,60.681305427465524,
video/Experiment/zh_sp07_Un_Gr_4_NVocInAudio_NoVideo.avi,vocoded,noVideo,sp07,Un,Gr,4,0,2,flow/blocks/NVocInAudio_NoVideo_B.csv,,,,,,,,,,,,,,,,,0,0,0,0,0,17,17,23,-0.3527777777777778,-0.30787037037037035,1,0,0,4.8027366999886,call4,-0.059722222222222225,0.08472222222222223,1,0,0,5.521800299989991,colour2,0.4125,-0.2800925925925926,1,0,0,6.268831100023817,number4,True,True,True,14,4,2019_Nov_14_1001,MA_Theta_Exp,3.0.7,60.681305427465524,
video/Experiment/zh_sp07_Ti_Ge_4_NVocInAudio_NoVideo.avi,vocoded,noVideo,sp07,Ti,Ge,4,0,2,flow/blocks/NVocInAudio_NoVideo_B.csv,,,,,,,,,,,,,,,,,0,0,0,0,0,18,18,3,-0.375,-0.13055555555555556,1,0,0,4.473212699987926,call3,-0.004166666666666667,0.2847222222222222,1,0,0,5.588850700005423,colour1,0.35555555555555557,-0.24953703703703703,1,0,0,6.377956599986646,number4,True,True,True,14,4,2019_Nov_14_1001,MA_Theta_Exp,3.0.7,60.681305427465524,
video/Experiment/zh_sp07_Ti_Ge_3_NVocInAudio_NoVideo.avi,vocoded,noVideo,sp07,Ti,Ge,3,0,2,flow/blocks/NVocInAudio_NoVideo_B.csv,,,,,,,,,,,,,,,,,0,0,0,0,0,19,19,2,-0.38472222222222224,-0.1597222222222222,1,0,0,4.526998499990441,call3,0.022222222222222223,0.24861111111111112,1,0,0,6.645816100004595,colour1,0.3902777777777778,-0.07731481481481481,1,0,0,7.715158600010909,number3,True,True,True,14,4,2019_Nov_14_1001,MA_Theta_Exp,3.0.7,60.681305427465524,
video/Experiment/zh_sp07_Un_We_2_NVocInAudio_NoVideo.avi,vocoded,noVideo,sp07,Un,We,2,0,2,flow/blocks/NVocInAudio_NoVideo_B.csv,,,,,,,,,,,,,,,,,0,0,0,0,0,20,20,29,-0.42916666666666664,-0.34675925925925927,1,0,0,4.8875207999954,call4,-0.004166666666666667,-0.29953703703703705,1,0,0,6.487493599997833,colour4,0.3527777777777778,0.12685185185185185,1,0,0,7.200572800007649,number2,True,True,True,14,4,2019_Nov_14_1001,MA_Theta_Exp,3.0.7,60.681305427465524,
video/Experiment/zh_sp01_Un_Ge_3_NVocInAudio_NoVideo.avi,vocoded,noVideo,sp01,Un,Ge,3,0,2,flow/blocks/NVocInAudio_NoVideo_B.csv,,,,,,,,,,,,,,,,,0,0,0,0,0,21,21,18,-0.3402777777777778,-0.2898148148148148,1,0,0,5.155168899975251,call4,-0.009722222222222222,0.2763888888888889,1,0,0,5.903503000037745,colour1,0.35694444444444445,-0.053703703703703705,1,0,0,6.774310400011018,number3,True,True,True,14,4,2019_Nov_14_1001,MA_Theta_Exp,3.0.7,60.681305427465524,
video/Experiment/zh_sp07_Ti_We_2_NVocInAudio_NoVideo.avi,vocoded,noVideo,sp07,Ti,We,2,0,2,flow/blocks/NVocInAudio_NoVideo_B.csv,,,,,,,,,,,,,,,,,0,0,0,0,0,22,22,13,-0.4166666666666667,-0.16666666666666666,1,0,0,4.584817500028294,call3,0.0125,-0.3814814814814815,1,0,0,5.11848479998298,colour4,0.37222222222222223,0.08333333333333333,1,0,0,6.05547540000407,number2,True,True,True,14,4,2019_Nov_14_1001,MA_Theta_Exp,3.0.7,60.681305427465524,
video/Experiment/zh_sp07_Un_We_4_NVocInAudio_NoVideo.avi,vocoded,noVideo,sp07,Un,We,4,0,2,flow/blocks/NVocInAudio_NoVideo_B.csv,,,,,,,,,,,,,,,,,0,0,0,0,0,23,23,31,-0.3625,-0.30648148148148147,1,0,0,4.505026300030295,call4,-0.020833333333333332,-0.3439814814814815,1,0,0,5.12553169997409,colour4,0.3875,-0.2972222222222222,1,0,0,5.736749900039285,number4,True,True,True,14,4,2019_Nov_14_1001,MA_Theta_Exp,3.0.7,60.681305427465524,
video/Experiment/zh_sp07_Un_Ro_4_NVocInAudio_NoVideo.avi,vocoded,noVideo,sp07,Un,Ro,4,0,2,flow/blocks/NVocInAudio_NoVideo_B.csv,,,,,,,,,,,,,,,,,0,0,0,0,0,24,24,27,-0.4,-0.3263888888888889,1,0,0,4.372564299963415,call4,-0.029166666666666667,-0.10694444444444444,1,0,0,4.99057060002815,colour3,0.37777777777777777,-0.34953703703703703,1,0,0,5.658130700001493,number4,True,True,True,14,4,2019_Nov_14_1001,MA_Theta_Exp,3.0.7,60.681305427465524,
video/Experiment/zh_sp07_Un_Ro_2_NVocInAudio_NoVideo.avi,vocoded,noVideo,sp07,Un,Ro,2,0,2,flow/blocks/NVocInAudio_NoVideo_B.csv,,,,,,,,,,,,,,,,,0,0,0,0,0,25,25,25,-0.36666666666666664,-0.30092592592592593,1,0,0,4.355984800029546,call4,-0.006944444444444444,-0.15555555555555556,1,0,0,4.891886500001419,colour3,0.3625,0.029166666666666667,1,0,0,5.590312899963465,number2,True,True,True,14,4,2019_Nov_14_1001,MA_Theta_Exp,3.0.7,60.681305427465524,
video/Experiment/zh_sp01_Un_Ro_1_NVocInAudio_NoVideo.avi,vocoded,noVideo,sp01,Un,Ro,1,0,2,flow/blocks/NVocInAudio_NoVideo_B.csv,,,,,,,,,,,,,,,,,0,0,0,0,0,26,26,24,-0.3888888888888889,-0.2773148148148148,1,0,0,5.136853699979838,call4,-0.03611111111111111,-0.10972222222222222,1,0,0,5.703101399994921,colour3,0.3458333333333333,0.2833333333333333,1,0,0,6.458540600026026,number1,True,True,True,14,4,2019_Nov_14_1001,MA_Theta_Exp,3.0.7,60.681305427465524,
video/Experiment/zh_sp01_Ti_We_4_NVocInAudio_NoVideo.avi,vocoded,noVideo,sp01,Ti,We,4,0,2,flow/blocks/NVocInAudio_NoVideo_B.csv,,,,,,,,,,,,,,,,,0,0,0,0,0,27,27,15,-0.3611111111111111,-0.15555555555555556,1,0,0,5.200450400006957,call3,-0.03333333333333333,-0.28564814814814815,1,0,0,5.932890399999451,colour4,0.3680555555555556,-0.3277777777777778,1,0,0,6.6528048000182025,number4,True,True,True,14,4,2019_Nov_14_1001,MA_Theta_Exp,3.0.7,60.681305427465524,
video/Experiment/zh_sp01_Ti_Ge_1_NVocInAudio_NoVideo.avi,vocoded,noVideo,sp01,Ti,Ge,1,0,2,flow/blocks/NVocInAudio_NoVideo_B.csv,,,,,,,,,,,,,,,,,0,0,0,0,0,28,28,0,-0.3541666666666667,-0.1375,1,0,0,5.305013599980157,call3,-0.03333333333333333,0.2777777777777778,1,0,0,5.908219000033569,colour1,0.36944444444444446,0.36944444444444446,1,0,0,6.607392799982335,number1,True,True,True,14,4,2019_Nov_14_1001,MA_Theta_Exp,3.0.7,60.681305427465524,
video/Experiment/zh_sp01_Ti_Ro_3_NVocInAudio_NoVideo.avi,vocoded,noVideo,sp01,Ti,Ro,3,0,2,flow/blocks/NVocInAudio_NoVideo_B.csv,,,,,,,,,,,,,,,,,0,0,0,0,0,29,29,10,-0.3638888888888889,-0.09861111111111111,1,0,0,4.984351899998728,call3,-0.02638888888888889,-0.10092592592592593,1,0,0,5.481479100009892,colour3,0.3972222222222222,-0.08333333333333333,1,0,0,6.052776500000618,number3,True,True,True,14,4,2019_Nov_14_1001,MA_Theta_Exp,3.0.7,60.681305427465524,
video/Experiment/zh_sp07_Ti_We_1_NVocInAudio_NoVideo.avi,vocoded,noVideo,sp07,Ti,We,1,0,2,flow/blocks/NVocInAudio_NoVideo_B.csv,,,,,,,,,,,,,,,,,0,0,0,0,0,30,30,12,-0.36944444444444446,-0.1,1,0,0,4.33064999995986,call3,-0.05555555555555555,-0.2898148148148148,1,0,0,4.867127200006507,colour4,0.3902777777777778,0.25555555555555554,1,0,0,5.514140399987809,number1,True,True,True,14,4,2019_Nov_14_1001,MA_Theta_Exp,3.0.7,60.681305427465524,
video/Experiment/zh_sp01_Un_Gr_3_NVocInAudio_NoVideo.avi,vocoded,noVideo,sp01,Un,Gr,3,0,2,flow/blocks/NVocInAudio_NoVideo_B.csv,,,,,,,,,,,,,,,,,0,0,0,0,0,31,31,22,-0.36666666666666664,-0.3384259259259259,1,0,0,5.260770399996545,call4,-0.043055555555555555,0.09583333333333334,1,0,0,5.9233832999598235,colour2,0.3819444444444444,-0.13703703703703704,1,0,0,6.56156220001867,number3,True,True,True,14,4,2019_Nov_14_1001,MA_Theta_Exp,3.0.7,60.681305427465524,
video/Experiment/zh_sp01_Un_Ge_3_NVocInAudio_GlobalThetaInVideo.avi,vocoded,plusVideo,sp01,Un,Ge,3,1,1,flow/blocks/NVocInAudio_GlobalThetaInVideo_B.csv,,,,,,,,,,,,,,,,,0,1,1,1,0,0,0,18,-0.3680555555555556,-0.38333333333333336,1,0,0,5.252001599990763,call4,0.027777777777777776,0.3055555555555556,1,0,0,6.136930799984839,colour1,0.4361111111111111,-0.12314814814814815,1,0,0,6.892712100001518,number3,True,True,True,14,4,2019_Nov_14_1001,MA_Theta_Exp,3.0.7,60.681305427465524,
video/Experiment/zh_sp01_Un_Ro_4_NVocInAudio_GlobalThetaInVideo.avi,vocoded,plusVideo,sp01,Un,Ro,4,1,1,flow/blocks/NVocInAudio_GlobalThetaInVideo_B.csv,,,,,,,,,,,,,,,,,0,1,1,1,0,1,1,27,-0.3875,-0.31203703703703706,1,0,0,5.115631200023927,call4,-0.043055555555555555,-0.11388888888888889,1,0,0,5.798594199994113,colour3,0.3875,-0.35648148148148145,1,0,0,6.521457900002133,number4,True,True,True,14,4,2019_Nov_14_1001,MA_Theta_Exp,3.0.7,60.681305427465524,
video/Experiment/zh_sp01_Un_Ge_4_NVocInAudio_GlobalThetaInVideo.avi,vocoded,plusVideo,sp01,Un,Ge,4,1,1,flow/blocks/NVocInAudio_GlobalThetaInVideo_B.csv,,,,,,,,,,,,,,,,,0,1,1,1,0,2,2,19,-0.4305555555555556,-0.4027777777777778,1,0,0,5.222351000003982,call4,0.03611111111111111,0.2625,1,0,0,6.57436939998297,colour1,0.39305555555555555,-0.24537037037037038,1,0,0,7.376794499985408,number4,True,True,True,14,4,2019_Nov_14_1001,MA_Theta_Exp,3.0.7,60.681305427465524,
video/Experiment/zh_sp01_Un_Ro_2_NVocInAudio_GlobalThetaInVideo.avi,vocoded,plusVideo,sp01,Un,Ro,2,1,1,flow/blocks/NVocInAudio_GlobalThetaInVideo_B.csv,,,,,,,,,,,,,,,,,0,1,1,1,0,3,3,25,-0.375,-0.3472222222222222,1,0,0,5.0321257000323385,call4,0.05138888888888889,-0.10416666666666667,1,0,0,5.633273499959614,colour3,0.38472222222222224,0.0763888888888889,1,0,0,6.362064799992368,number2,True,True,True,14,4,2019_Nov_14_1001,MA_Theta_Exp,3.0.7,60.681305427465524,
video/Experiment/zh_sp01_Un_We_4_NVocInAudio_GlobalThetaInVideo.avi,vocoded,plusVideo,sp01,Un,We,4,1,1,flow/blocks/NVocInAudio_GlobalThetaInVideo_B.csv,,,,,,,,,,,,,,,,,0,1,1,1,0,4,4,31,-0.4597222222222222,-0.337037037037037,1,0,0,5.1374394000158645,call4,-0.05555555555555555,-0.32083333333333336,1,0,0,5.791575099981856,colour4,0.3458333333333333,-0.3037037037037037,1,0,0,6.712273200042546,number4,True,True,True,14,4,2019_Nov_14_1001,MA_Theta_Exp,3.0.7,60.681305427465524,
video/Experiment/zh_sp07_Ti_We_4_NVocInAudio_GlobalThetaInVideo.avi,vocoded,plusVideo,sp07,Ti,We,4,1,1,flow/blocks/NVocInAudio_GlobalThetaInVideo_B.csv,,,,,,,,,,,,,,,,,0,1,1,1,0,5,5,15,-0.3680555555555556,-0.11944444444444445,1,0,0,4.736818899982609,call3,0.015277777777777777,-0.3106481481481482,1,0,0,5.332345000002533,colour4,0.4111111111111111,-0.3300925925925926,1,0,0,5.928720400028396,number4,True,True,True,14,4,2019_Nov_14_1001,MA_Theta_Exp,3.0.7,60.681305427465524,
video/Experiment/zh_sp01_Ti_Ro_4_NVocInAudio_GlobalThetaInVideo.avi,vocoded,plusVideo,sp01,Ti,Ro,4,1,1,flow/blocks/NVocInAudio_GlobalThetaInVideo_B.csv,,,,,,,,,,,,,,,,,0,1,1,1,0,6,6,11,-0.38055555555555554,-0.062037037037037036,1,0,0,5.199167699960526,call3,-0.025,-0.07731481481481481,1,0,0,5.749150899995584,colour3,0.3819444444444444,-0.31203703703703706,1,0,0,6.320388899999671,number4,True,True,True,14,4,2019_Nov_14_1001,MA_Theta_Exp,3.0.7,60.681305427465524,
video/Experiment/zh_sp01_Ti_Ge_1_NVocInAudio_GlobalThetaInVideo.avi,vocoded,plusVideo,sp01,Ti,Ge,1,1,1,flow/blocks/NVocInAudio_GlobalThetaInVideo_B.csv,,,,,,,,,,,,,,,,,0,1,1,1,0,7,7,0,-0.44027777777777777,-0.11388888888888889,1,0,0,5.596896499977447,call3,0.0625,0.32083333333333336,1,0,0,6.381765500002075,colour1,0.41388888888888886,0.3060185185185185,1,0,0,6.951110000023618,number1,True,True,True,14,4,2019_Nov_14_1001,MA_Theta_Exp,3.0.7,60.681305427465524,
video/Experiment/zh_sp07_Ti_Gr_4_NVocInAudio_GlobalThetaInVideo.avi,vocoded,plusVideo,sp07,Ti,Gr,4,1,1,flow/blocks/NVocInAudio_GlobalThetaInVideo_B.csv,,,,,,,,,,,,,,,,,0,1,1,1,0,8,8,7,-0.3819444444444444,-0.14305555555555555,1,0,0,4.93725329998415,call3,-0.019444444444444445,0.08194444444444444,1,0,0,5.600656699971296,colour2,0.3597222222222222,-0.29398148148148145,1,0,0,6.355685900023673,number4,True,True,True,14,4,2019_Nov_14_1001,MA_Theta_Exp,3.0.7,60.681305427465524,
video/Experiment/zh_sp07_Un_Ro_1_NVocInAudio_GlobalThetaInVideo.avi,vocoded,plusVideo,sp07,Un,Ro,1,1,1,flow/blocks/NVocInAudio_GlobalThetaInVideo_B.csv,,,,,,,,,,,,,,,,,0,1,1,1,0,9,9,24,-0.33194444444444443,-0.28703703703703703,1,0,0,4.62326669995673,call4,0.006944444444444444,-0.15,1,0,0,5.238719800021499,colour3,0.4583333333333333,0.2916666666666667,1,0,0,6.385842999967281,number1,True,True,True,14,4,2019_Nov_14_1001,MA_Theta_Exp,3.0.7,60.681305427465524,
video/Experiment/zh_sp07_Un_We_2_NVocInAudio_GlobalThetaInVideo.avi,vocoded,plusVideo,sp07,Un,We,2,1,1,flow/blocks/NVocInAudio_GlobalThetaInVideo_B.csv,,,,,,,,,,,,,,,,,0,1,1,1,0,10,10,29,-0.45694444444444443,-0.29814814814814816,1,0,0,4.436932199983858,call4,0.001388888888888889,-0.32175925925925924,1,0,0,5.0717733999481425,colour4,0.40555555555555556,0.06805555555555555,1,0,0,5.722683100029826,number2,True,True,True,14,4,2019_Nov_14_1001,MA_Theta_Exp,3.0.7,60.681305427465524,
video/Experiment/zh_sp07_Ti_Ge_4_NVocInAudio_GlobalThetaInVideo.avi,vocoded,plusVideo,sp07,Ti,Ge,4,1,1,flow/blocks/NVocInAudio_GlobalThetaInVideo_B.csv,,,,,,,,,,,,,,,,,0,1,1,1,0,11,11,3,-0.3972222222222222,-0.09537037037037037,1,0,0,4.5204236000427045,call3,-0.05138888888888889,0.29583333333333334,1,0,0,5.155781999987084,colour1,0.35,-0.2412037037037037,1,0,0,6.024547899956815,number4,True,True,True,14,4,2019_Nov_14_1001,MA_Theta_Exp,3.0.7,60.681305427465524,
video/Experiment/zh_sp01_Ti_Ge_2_NVocInAudio_GlobalThetaInVideo.avi,vocoded,plusVideo,sp01,Ti,Ge,2,1,1,flow/blocks/NVocInAudio_GlobalThetaInVideo_B.csv,,,,,,,,,,,,,,,,,0,1,1,1,0,12,12,1,-0.36666666666666664,-0.15555555555555556,1,0,0,5.238049199979287,call3,-0.027777777777777776,0.26805555555555555,1,0,0,6.040370300004724,colour1,0.36944444444444446,0.09212962962962963,1,0,0,6.721613099973183,number2,True,True,True,14,4,2019_Nov_14_1001,MA_Theta_Exp,3.0.7,60.681305427465524,
video/Experiment/zh_sp07_Ti_Ro_2_NVocInAudio_GlobalThetaInVideo.avi,vocoded,plusVideo,sp07,Ti,Ro,2,1,1,flow/blocks/NVocInAudio_GlobalThetaInVideo_B.csv,,,,,,,,,,,,,,,,,0,1,1,1,0,13,13,9,-0.3597222222222222,-0.1412037037037037,1,0,0,4.443321199971251,call3,-0.05694444444444444,-0.08703703703703704,1,0,0,5.341049200040288,colour3,0.39444444444444443,0.10138888888888889,1,0,0,6.012163900013547,number2,True,True,True,14,4,2019_Nov_14_1001,MA_Theta_Exp,3.0.7,60.681305427465524,
