videoFile,condition,video,speaker,callSign,colour,number,seq,id,block,exp.thisRepN,exp.thisTrialN,exp.thisN,exp.thisIndex,training.thisRepN,training.thisTrialN,training.thisN,training.thisIndex,firstHalf.thisRepN,firstHalf.thisTrialN,firstHalf.thisN,firstHalf.thisIndex,blocksA.thisRepN,blocksA.thisTrialN,blocksA.thisN,blocksA.thisIndex,secondHalf.thisRepN,secondHalf.thisTrialN,secondHalf.thisN,secondHalf.thisIndex,blocksB.thisRepN,blocksB.thisTrialN,blocksB.thisN,blocksB.thisIndex,mouseClickOnCall.x,mouseClickOnCall.y,mouseClickOnCall.leftButton,mouseClickOnCall.midButton,mouseClickOnCall.rightButton,mouseClickOnCall.time,mouseClickOnCall.clicked_name,mouseClickOnColour.x,mouseClickOnColour.y,mouseClickOnColour.leftButton,mouseClickOnColour.midButton,mouseClickOnColour.rightButton,mouseClickOnColour.time,mouseClickOnColour.clicked_name,mouseClickOnNumber.x,mouseClickOnNumber.y,mouseClickOnNumber.leftButton,mouseClickOnNumber.midButton,mouseClickOnNumber.rightButton,mouseClickOnNumber.time,mouseClickOnNumber.clicked_name,callSignCorrect,colourCorrect,numberCorrect,participant,order,date,expName,psychopyVersion,frameRate,
video/Training/zh_sp01_Ad_We_4_NVocInAudio_NoVideo.avi,vocoded,noVideo,sp01,Ad,We,4,,,,,,,,0,0,0,0,,,,,,,,,,,,,,,,,-0.3888888888888889,0.275,1,0,0,5.67145470000105,call1,0.029166666666666667,-0.3023148148148148,1,0,0,6.974399300001096,colour4,0.4777777777777778,-0.3277777777777778,1,0,0,7.457090400042944,number4,True,True,True,16,1,2019_Nov_14_1202,MA_Theta_Exp,3.0.7,59.98397227229475,
video/Training/zh_sp07_Ad_Ge_3_NVocInAudio_NoVideo.avi,vocoded,noVideo,sp07,Ad,Ge,3,,,,,,,,0,1,1,1,,,,,,,,,,,,,,,,,-0.41805555555555557,0.08657407407407407,1,0,0,4.735101199999917,call2,0.05555555555555555,0.30972222222222223,1,0,0,5.869337000011001,colour1,0.4027777777777778,-0.3453703703703704,1,0,0,10.938595300016459,number4,False,True,False,16,1,2019_Nov_14_1202,MA_Theta_Exp,3.0.7,59.98397227229475,
video/Training/zh_sp01_Dr_Ro_3_NVocInAudio_GlobalThetaInVideo.avi,vocoded,plusVideo,sp01,Dr,Ro,3,,,,,,,,0,2,2,2,,,,,,,,,,,,,,,,,-0.3763888888888889,0.07824074074074074,1,0,0,5.220272999955341,call2,0.059722222222222225,-0.1125,1,0,0,5.950408400036395,colour3,0.4083333333333333,-0.09722222222222222,1,0,0,6.487191099964548,number3,True,True,True,16,1,2019_Nov_14_1202,MA_Theta_Exp,3.0.7,59.98397227229475,
video/Training/zh_sp07_Dr_Gr_4_NVocInAudio_GlobalThetaInVideo.avi,vocoded,plusVideo,sp07,Dr,Gr,4,,,,,,,,0,3,3,3,,,,,,,,,,,,,,,,,,,,,,,,,,,,,,,,,,,,,,NO_ANSW,NO_ANSW,NO_ANSW,16,1,2019_Nov_14_1202,MA_Theta_Exp,3.0.7,59.98397227229475,
video/Training/zh_sp01_Ti_Gr_2_NoThetaInAudio_NoVideo.avi,noTheta,noVideo,sp01,Ti,Gr,2,,,,,,,,0,4,4,4,,,,,,,,,,,,,,,,,-0.3861111111111111,0.25416666666666665,1,0,0,11.875872200005688,call1,,,,,,,,,,,,,,,False,NO_ANSW,NO_ANSW,16,1,2019_Nov_14_1202,MA_Theta_Exp,3.0.7,59.98397227229475,
video/Training/zh_sp07_Ti_Ro_1_NoThetaInAudio_NoVideo.avi,noTheta,noVideo,sp07,Ti,Ro,1,,,,,,,,0,5,5,5,,,,,,,,,,,,,,,,,-0.4166666666666667,0.10462962962962963,1,0,0,5.720569099998102,call2,0.034722222222222224,0.2722222222222222,1,0,0,7.665188199956901,colour1,0.3972222222222222,0.2986111111111111,1,0,0,9.46399780001957,number1,False,False,True,16,1,2019_Nov_14_1202,MA_Theta_Exp,3.0.7,59.98397227229475,
video/Training/zh_sp01_Un_Ge_1_NoThetaInAudio_GlobalThetaInVideo.avi,noTheta,plusVideo,sp01,Un,Ge,1,,,,,,,,0,6,6,6,,,,,,,,,,,,,,,,,-0.3597222222222222,-0.05787037037037037,1,0,0,8.630584999977145,call3,-0.022222222222222223,0.29305555555555557,1,0,0,9.997164200001862,colour1,0.3958333333333333,0.12685185185185185,1,0,0,10.578392800001893,number2,False,True,False,16,1,2019_Nov_14_1202,MA_Theta_Exp,3.0.7,59.98397227229475,
video/Training/zh_sp07_Un_We_2_NoThetaInAudio_GlobalThetaInVideo.avi,noTheta,plusVideo,sp07,Un,We,2,,,,,,,,0,7,7,7,,,,,,,,,,,,,,,,,-0.3597222222222222,-0.14583333333333334,1,0,0,6.856437400041614,call3,0.05416666666666667,0.06111111111111111,1,0,0,8.299799799977336,colour2,0.35,0.29305555555555557,1,0,0,8.959043999959249,number1,False,False,False,16,1,2019_Nov_14_1202,MA_Theta_Exp,3.0.7,59.98397227229475,
video/Training/zh_sp01_Ad_Ge_1_GlobalTheta_NoVideo.avi,globalTheta,noVideo,sp01,Ad,Ge,1,,,,,,,,0,8,8,8,,,,,,,,,,,,,,,,,-0.425,0.2972222222222222,1,0,0,8.609743800014257,call1,0.015277777777777777,0.05462962962962963,1,0,0,11.005727000010666,colour2,0.375,0.3111111111111111,1,0,0,11.573523200000636,number1,True,False,True,16,1,2019_Nov_14_1202,MA_Theta_Exp,3.0.7,59.98397227229475,
video/Training/zh_sp07_Ad_Ro_3_GlobalTheta_NoVideo.avi,globalTheta,noVideo,sp07,Ad,Ro,3,,,,,,,,0,9,9,9,,,,,,,,,,,,,,,,,-0.38472222222222224,-0.29814814814814816,1,0,0,8.528505900001619,call4,-0.05,-0.32083333333333336,1,0,0,9.330728199973237,colour4,0.375,-0.17731481481481481,1,0,0,11.38937479996821,number3,False,False,True,16,1,2019_Nov_14_1202,MA_Theta_Exp,3.0.7,59.98397227229475,
video/Experiment/zh_sp01_Dr_Gr_4_NVocInAudio_NoVideo.avi,vocoded,noVideo,sp01,Dr,Gr,4,0,2,flow/blocks/NVocInAudio_NoVideo_A.csv,,,,,,,,,0,0,0,0,0,0,0,23,,,,,,,,,-0.4388888888888889,0.08101851851851852,1,0,0,5.521885199996177,call2,-0.009722222222222222,0.07685185185185185,1,0,0,6.1933806000160985,colour2,0.43472222222222223,-0.34953703703703703,1,0,0,6.8050425999681465,number4,True,True,True,16,1,2019_Nov_14_1202,MA_Theta_Exp,3.0.7,59.98397227229475,
video/Experiment/zh_sp07_Dr_Ge_2_NVocInAudio_NoVideo.avi,vocoded,noVideo,sp07,Dr,Ge,2,0,2,flow/blocks/NVocInAudio_NoVideo_A.csv,,,,,,,,,0,0,0,0,0,1,1,17,,,,,,,,,-0.39166666666666666,0.12638888888888888,1,0,0,5.233720699965488,call2,-0.020833333333333332,0.3277777777777778,1,0,0,6.20566430001054,colour1,0.35555555555555557,0.12638888888888888,1,0,0,6.794653799966909,number2,True,True,True,16,1,2019_Nov_14_1202,MA_Theta_Exp,3.0.7,59.98397227229475,
video/Experiment/zh_sp01_Ad_We_2_NVocInAudio_NoVideo.avi,vocoded,noVideo,sp01,Ad,We,2,0,2,flow/blocks/NVocInAudio_NoVideo_A.csv,,,,,,,,,0,0,0,0,0,2,2,13,,,,,,,,,-0.3611111111111111,0.2796296296296296,1,0,0,5.624940599955153,call1,0.006944444444444444,-0.3523148148148148,1,0,0,6.692472800030373,colour4,0.3486111111111111,0.05138888888888889,1,0,0,7.4781362999929115,number2,True,True,True,16,1,2019_Nov_14_1202,MA_Theta_Exp,3.0.7,59.98397227229475,
video/Experiment/zh_sp07_Ad_Ge_4_NVocInAudio_NoVideo.avi,vocoded,noVideo,sp07,Ad,Ge,4,0,2,flow/blocks/NVocInAudio_NoVideo_A.csv,,,,,,,,,0,0,0,0,0,3,3,3,,,,,,,,,-0.35555555555555557,0.2865740740740741,1,0,0,5.016276300011668,call1,-0.05694444444444444,0.2763888888888889,1,0,0,5.5665390999638475,colour1,0.3763888888888889,-0.3023148148148148,1,0,0,6.3315039000008255,number4,True,True,True,16,1,2019_Nov_14_1202,MA_Theta_Exp,3.0.7,59.98397227229475,
video/Experiment/zh_sp01_Dr_Ro_3_NVocInAudio_NoVideo.avi,vocoded,noVideo,sp01,Dr,Ro,3,0,2,flow/blocks/NVocInAudio_NoVideo_A.csv,,,,,,,,,0,0,0,0,0,4,4,26,,,,,,,,,-0.37916666666666665,-0.05648148148148148,1,0,0,9.215921299997717,call3,0.0,0.30277777777777776,1,0,0,10.564108100021258,colour1,0.32083333333333336,-0.0763888888888889,1,0,0,11.315098899998702,number3,False,False,True,16,1,2019_Nov_14_1202,MA_Theta_Exp,3.0.7,59.98397227229475,
video/Experiment/zh_sp01_Dr_We_4_NVocInAudio_NoVideo.avi,vocoded,noVideo,sp01,Dr,We,4,0,2,flow/blocks/NVocInAudio_NoVideo_A.csv,,,,,,,,,0,0,0,0,0,5,5,31,,,,,,,,,-0.4041666666666667,0.10833333333333334,1,0,0,5.453316099999938,call2,0.008333333333333333,-0.3439814814814815,1,0,0,6.322234500024933,colour4,0.3388888888888889,-0.2898148148148148,1,0,0,6.923858000023756,number4,True,True,True,16,1,2019_Nov_14_1202,MA_Theta_Exp,3.0.7,59.98397227229475,
video/Experiment/zh_sp07_Ad_Ro_2_NVocInAudio_NoVideo.avi,vocoded,noVideo,sp07,Ad,Ro,2,0,2,flow/blocks/NVocInAudio_NoVideo_A.csv,,,,,,,,,0,0,0,0,0,6,6,9,,,,,,,,,-0.35138888888888886,-0.24675925925925926,1,0,0,7.457654299971182,call4,-0.011111111111111112,0.3111111111111111,1,0,0,8.858698100026231,colour1,0.3236111111111111,0.0699074074074074,1,0,0,9.423007600009441,number2,False,False,True,16,1,2019_Nov_14_1202,MA_Theta_Exp,3.0.7,59.98397227229475,
video/Experiment/zh_sp07_Ad_Ro_4_NVocInAudio_NoVideo.avi,vocoded,noVideo,sp07,Ad,Ro,4,0,2,flow/blocks/NVocInAudio_NoVideo_A.csv,,,,,,,,,0,0,0,0,0,7,7,11,,,,,,,,,-0.3597222222222222,0.2726851851851852,1,0,0,4.929421700013336,call1,0.02638888888888889,-0.09814814814814815,1,0,0,6.609352900006343,colour3,0.3638888888888889,-0.3287037037037037,1,0,0,7.263766699994449,number4,True,True,True,16,1,2019_Nov_14_1202,MA_Theta_Exp,3.0.7,59.98397227229475,
video/Experiment/zh_sp07_Ad_We_1_NVocInAudio_NoVideo.avi,vocoded,noVideo,sp07,Ad,We,1,0,2,flow/blocks/NVocInAudio_NoVideo_A.csv,,,,,,,,,0,0,0,0,0,8,8,12,,,,,,,,,-0.35138888888888886,0.3236111111111111,1,0,0,4.666413200029638,call1,0.005555555555555556,-0.32037037037037036,1,0,0,5.375511399994139,colour4,0.39444444444444443,0.27685185185185185,1,0,0,6.1890247000264935,number1,True,True,True,16,1,2019_Nov_14_1202,MA_Theta_Exp,3.0.7,59.98397227229475,
video/Experiment/zh_sp01_Ad_We_4_NVocInAudio_NoVideo.avi,vocoded,noVideo,sp01,Ad,We,4,0,2,flow/blocks/NVocInAudio_NoVideo_A.csv,,,,,,,,,0,0,0,0,0,9,9,15,,,,,,,,,-0.4166666666666667,0.3087962962962963,1,0,0,4.996725800039712,call1,0.09027777777777778,-0.3287037037037037,1,0,0,5.718032500008121,colour4,0.4027777777777778,-0.3106481481481482,1,0,0,6.794807000027504,number4,True,True,True,16,1,2019_Nov_14_1202,MA_Theta_Exp,3.0.7,59.98397227229475,
video/Experiment/zh_sp01_Ad_We_3_NVocInAudio_NoVideo.avi,vocoded,noVideo,sp01,Ad,We,3,0,2,flow/blocks/NVocInAudio_NoVideo_A.csv,,,,,,,,,0,0,0,0,0,10,10,14,,,,,,,,,-0.3875,0.2601851851851852,1,0,0,5.402422400016803,call1,0.05694444444444444,-0.337037037037037,1,0,0,6.16907949995948,colour4,0.4263888888888889,-0.1125,1,0,0,6.702311000030022,number3,True,True,True,16,1,2019_Nov_14_1202,MA_Theta_Exp,3.0.7,59.98397227229475,
video/Experiment/zh_sp07_Dr_Gr_1_NVocInAudio_NoVideo.avi,vocoded,noVideo,sp07,Dr,Gr,1,0,2,flow/blocks/NVocInAudio_NoVideo_A.csv,,,,,,,,,0,0,0,0,0,11,11,20,,,,,,,,,-0.3763888888888889,0.08888888888888889,1,0,0,4.951308200019412,call2,-0.044444444444444446,0.08101851851851852,1,0,0,5.5345068000024185,colour2,0.4625,0.3472222222222222,1,0,0,6.297382200020365,number1,True,True,True,16,1,2019_Nov_14_1202,MA_Theta_Exp,3.0.7,59.98397227229475,
video/Experiment/zh_sp01_Dr_Ro_1_NVocInAudio_NoVideo.avi,vocoded,noVideo,sp01,Dr,Ro,1,0,2,flow/blocks/NVocInAudio_NoVideo_A.csv,,,,,,,,,0,0,0,0,0,12,12,24,,,,,,,,,-0.44027777777777777,0.09212962962962963,1,0,0,5.231002599990461,call2,-0.015277777777777777,-0.11898148148148148,1,0,0,5.878372200008016,colour3,0.39166666666666666,0.3055555555555556,1,0,0,6.531759299978148,number1,True,True,True,16,1,2019_Nov_14_1202,MA_Theta_Exp,3.0.7,59.98397227229475,
video/Experiment/zh_sp07_Ad_Ge_1_NVocInAudio_NoVideo.avi,vocoded,noVideo,sp07,Ad,Ge,1,0,2,flow/blocks/NVocInAudio_NoVideo_A.csv,,,,,,,,,0,0,0,0,0,13,13,0,,,,,,,,,-0.3597222222222222,0.3490740740740741,1,0,0,4.937374200031627,call1,-0.022222222222222223,0.300462962962963,1,0,0,5.889021000009961,colour1,0.4041666666666667,0.28379629629629627,1,0,0,6.472756400005892,number1,True,True,True,16,1,2019_Nov_14_1202,MA_Theta_Exp,3.0.7,59.98397227229475,
video/Experiment/zh_sp07_Dr_We_1_NVocInAudio_NoVideo.avi,vocoded,noVideo,sp07,Dr,We,1,0,2,flow/blocks/NVocInAudio_NoVideo_A.csv,,,,,,,,,0,0,0,0,0,14,14,28,,,,,,,,,-0.35555555555555557,0.10324074074074074,1,0,0,4.46759590000147,call2,0.05416666666666667,-0.33287037037037037,1,0,0,5.118204900005367,colour4,0.38333333333333336,0.3435185185185185,1,0,0,5.854428399994504,number1,True,True,True,16,1,2019_Nov_14_1202,MA_Theta_Exp,3.0.7,59.98397227229475,
video/Experiment/zh_sp01_Dr_Ro_4_NVocInAudio_NoVideo.avi,vocoded,noVideo,sp01,Dr,Ro,4,0,2,flow/blocks/NVocInAudio_NoVideo_A.csv,,,,,,,,,0,0,0,0,0,15,15,27,,,,,,,,,-0.40555555555555556,0.08472222222222223,1,0,0,5.111304400023073,call2,-0.04861111111111111,-0.1439814814814815,1,0,0,5.979297499987297,colour3,0.4263888888888889,-0.3578703703703704,1,0,0,6.513162899995223,number4,True,True,True,16,1,2019_Nov_14_1202,MA_Theta_Exp,3.0.7,59.98397227229475,
video/Experiment/zh_sp07_Dr_Ge_3_NVocInAudio_NoVideo.avi,vocoded,noVideo,sp07,Dr,Ge,3,0,2,flow/blocks/NVocInAudio_NoVideo_A.csv,,,,,,,,,0,0,0,0,0,16,16,18,,,,,,,,,-0.3486111111111111,0.09074074074074075,1,0,0,4.64119989995379,call2,-0.03333333333333333,0.28888888888888886,1,0,0,5.154833999986295,colour1,0.4083333333333333,-0.1425925925925926,1,0,0,5.704796099977102,number3,True,True,True,16,1,2019_Nov_14_1202,MA_Theta_Exp,3.0.7,59.98397227229475,
video/Experiment/zh_sp01_Ad_Ro_3_NVocInAudio_NoVideo.avi,vocoded,noVideo,sp01,Ad,Ro,3,0,2,flow/blocks/NVocInAudio_NoVideo_A.csv,,,,,,,,,0,0,0,0,0,17,17,10,,,,,,,,,-0.41388888888888886,0.27685185185185185,1,0,0,4.902928700030316,call1,0.019444444444444445,-0.15231481481481482,1,0,0,5.752021099964622,colour3,0.35,-0.12916666666666668,1,0,0,6.22138190001715,number3,True,True,True,16,1,2019_Nov_14_1202,MA_Theta_Exp,3.0.7,59.98397227229475,
video/Experiment/zh_sp01_Ad_Ge_2_NVocInAudio_NoVideo.avi,vocoded,noVideo,sp01,Ad,Ge,2,0,2,flow/blocks/NVocInAudio_NoVideo_A.csv,,,,,,,,,0,0,0,0,0,18,18,1,,,,,,,,,-0.3958333333333333,0.29583333333333334,1,0,0,5.415324600005988,call1,-0.002777777777777778,0.29212962962962963,1,0,0,6.046137499972247,colour1,0.41388888888888886,0.11666666666666667,1,0,0,7.028004800027702,number2,True,True,True,16,1,2019_Nov_14_1202,MA_Theta_Exp,3.0.7,59.98397227229475,
video/Experiment/zh_sp07_Dr_Ge_4_NVocInAudio_NoVideo.avi,vocoded,noVideo,sp07,Dr,Ge,4,0,2,flow/blocks/NVocInAudio_NoVideo_A.csv,,,,,,,,,0,0,0,0,0,19,19,19,,,,,,,,,-0.4222222222222222,0.11296296296296296,1,0,0,4.493364699999802,call2,-0.020833333333333332,0.26666666666666666,1,0,0,5.023877699975856,colour1,0.43472222222222223,-0.36342592592592593,1,0,0,5.678323800035287,number4,True,True,True,16,1,2019_Nov_14_1202,MA_Theta_Exp,3.0.7,59.98397227229475,
video/Experiment/zh_sp01_Ad_Gr_3_NVocInAudio_NoVideo.avi,vocoded,noVideo,sp01,Ad,Gr,3,0,2,flow/blocks/NVocInAudio_NoVideo_A.csv,,,,,,,,,0,0,0,0,0,20,20,6,,,,,,,,,-0.3638888888888889,0.2949074074074074,1,0,0,5.0647526000393555,call1,0.020833333333333332,0.020833333333333332,1,0,0,5.653167199983727,colour2,0.41805555555555557,-0.055092592592592596,1,0,0,6.23640749999322,number3,True,True,True,16,1,2019_Nov_14_1202,MA_Theta_Exp,3.0.7,59.98397227229475,
video/Experiment/zh_sp01_Dr_Ge_1_NVocInAudio_NoVideo.avi,vocoded,noVideo,sp01,Dr,Ge,1,0,2,flow/blocks/NVocInAudio_NoVideo_A.csv,,,,,,,,,0,0,0,0,0,21,21,16,,,,,,,,,-0.42083333333333334,0.08101851851851852,1,0,0,5.0139777000295,call2,-0.008333333333333333,0.3351851851851852,1,0,0,5.628968300006818,colour1,0.43194444444444446,0.2671296296296296,1,0,0,6.123134099994786,number1,True,True,True,16,1,2019_Nov_14_1202,MA_Theta_Exp,3.0.7,59.98397227229475,
video/Experiment/zh_sp01_Ad_Gr_2_NVocInAudio_NoVideo.avi,vocoded,noVideo,sp01,Ad,Gr,2,0,2,flow/blocks/NVocInAudio_NoVideo_A.csv,,,,,,,,,0,0,0,0,0,22,22,5,,,,,,,,,-0.3680555555555556,0.2671296296296296,1,0,0,5.352415899978951,call1,-0.029166666666666667,0.11574074074074074,1,0,0,6.00812740001129,colour2,0.44027777777777777,0.10740740740740741,1,0,0,6.706679099996109,number2,True,True,True,16,1,2019_Nov_14_1202,MA_Theta_Exp,3.0.7,59.98397227229475,
video/Experiment/zh_sp07_Ad_Gr_1_NVocInAudio_NoVideo.avi,vocoded,noVideo,sp07,Ad,Gr,1,0,2,flow/blocks/NVocInAudio_NoVideo_A.csv,,,,,,,,,0,0,0,0,0,23,23,4,,,,,,,,,-0.4,0.275,1,0,0,4.878725099959411,call1,-0.016666666666666666,0.11666666666666667,1,0,0,5.396707699983381,colour2,0.3611111111111111,0.2902777777777778,1,0,0,5.865352900000289,number1,True,True,True,16,1,2019_Nov_14_1202,MA_Theta_Exp,3.0.7,59.98397227229475,
video/Experiment/zh_sp07_Dr_Gr_3_NVocInAudio_NoVideo.avi,vocoded,noVideo,sp07,Dr,Gr,3,0,2,flow/blocks/NVocInAudio_NoVideo_A.csv,,,,,,,,,0,0,0,0,0,24,24,22,,,,,,,,,-0.39305555555555555,0.07361111111111111,1,0,0,5.217799699981697,call2,-0.009722222222222222,0.03888888888888889,1,0,0,7.285652399994433,colour2,0.44166666666666665,-0.1037037037037037,1,0,0,7.854220300039742,number3,True,True,True,16,1,2019_Nov_14_1202,MA_Theta_Exp,3.0.7,59.98397227229475,
video/Experiment/zh_sp07_Dr_We_2_NVocInAudio_NoVideo.avi,vocoded,noVideo,sp07,Dr,We,2,0,2,flow/blocks/NVocInAudio_NoVideo_A.csv,,,,,,,,,0,0,0,0,0,25,25,29,,,,,,,,,-0.4152777777777778,0.11296296296296296,1,0,0,4.611676200001966,call2,0.027777777777777776,-0.30925925925925923,1,0,0,5.7463701000087894,colour4,0.3527777777777778,0.04861111111111111,1,0,0,6.393579699972179,number2,True,True,True,16,1,2019_Nov_14_1202,MA_Theta_Exp,3.0.7,59.98397227229475,
video/Experiment/zh_sp01_Dr_We_3_NVocInAudio_NoVideo.avi,vocoded,noVideo,sp01,Dr,We,3,0,2,flow/blocks/NVocInAudio_NoVideo_A.csv,,,,,,,,,0,0,0,0,0,26,26,30,,,,,,,,,-0.3402777777777778,0.11388888888888889,1,0,0,5.015645399980713,call2,0.004166666666666667,-0.32175925925925924,1,0,0,5.704820599989034,colour4,0.4041666666666667,-0.20787037037037037,1,0,0,6.238734600017779,number3,True,True,True,16,1,2019_Nov_14_1202,MA_Theta_Exp,3.0.7,59.98397227229475,
video/Experiment/zh_sp07_Ad_Ro_1_NVocInAudio_NoVideo.avi,vocoded,noVideo,sp07,Ad,Ro,1,0,2,flow/blocks/NVocInAudio_NoVideo_A.csv,,,,,,,,,0,0,0,0,0,27,27,8,,,,,,,,,-0.35138888888888886,0.30185185185185187,1,0,0,4.249117799976375,call1,0.0625,-0.12314814814814815,1,0,0,4.781010899983812,colour3,0.4125,0.31666666666666665,1,0,0,5.302557700022589,number1,True,True,True,16,1,2019_Nov_14_1202,MA_Theta_Exp,3.0.7,59.98397227229475,
video/Experiment/zh_sp07_Dr_Gr_2_NVocInAudio_NoVideo.avi,vocoded,noVideo,sp07,Dr,Gr,2,0,2,flow/blocks/NVocInAudio_NoVideo_A.csv,,,,,,,,,0,0,0,0,0,28,28,21,,,,,,,,,-0.4083333333333333,0.05462962962962963,1,0,0,4.49014760000864,call2,-0.005555555555555556,0.08101851851851852,1,0,0,4.990835800010245,colour2,0.4,0.07962962962962963,1,0,0,5.439262499974575,number2,True,True,True,16,1,2019_Nov_14_1202,MA_Theta_Exp,3.0.7,59.98397227229475,
video/Experiment/zh_sp07_Dr_Ro_2_NVocInAudio_NoVideo.avi,vocoded,noVideo,sp07,Dr,Ro,2,0,2,flow/blocks/NVocInAudio_NoVideo_A.csv,,,,,,,,,0,0,0,0,0,29,29,25,,,,,,,,,-0.4,0.0875,1,0,0,4.656802300014533,call2,0.04722222222222222,0.13796296296296295,1,0,0,5.740557899989653,colour2,0.32916666666666666,0.07962962962962963,1,0,0,6.227891299990006,number2,True,False,True,16,1,2019_Nov_14_1202,MA_Theta_Exp,3.0.7,59.98397227229475,
video/Experiment/zh_sp01_Ad_Gr_4_NVocInAudio_NoVideo.avi,vocoded,noVideo,sp01,Ad,Gr,4,0,2,flow/blocks/NVocInAudio_NoVideo_A.csv,,,,,,,,,0,0,0,0,0,30,30,7,,,,,,,,,-0.3888888888888889,0.3087962962962963,1,0,0,5.308714999991935,call1,-0.08055555555555556,0.11574074074074074,1,0,0,5.8600885000196286,colour2,0.44166666666666665,-0.3037037037037037,1,0,0,6.508963999978732,number4,True,True,True,16,1,2019_Nov_14_1202,MA_Theta_Exp,3.0.7,59.98397227229475,
video/Experiment/zh_sp01_Ad_Ge_3_NVocInAudio_NoVideo.avi,vocoded,noVideo,sp01,Ad,Ge,3,0,2,flow/blocks/NVocInAudio_NoVideo_A.csv,,,,,,,,,0,0,0,0,0,31,31,2,,,,,,,,,-0.3861111111111111,0.3074074074074074,1,0,0,4.716039200022351,call1,0.018055555555555554,0.2972222222222222,1,0,0,5.136596199998166,colour1,0.3888888888888889,-0.0787037037037037,1,0,0,5.6828780000214465,number3,True,True,True,16,1,2019_Nov_14_1202,MA_Theta_Exp,3.0.7,59.98397227229475,
video/Experiment/zh_sp01_Dr_Ge_3_NoThetaInAudio_GlobalThetaInVideo.avi,noTheta,plusVideo,sp01,Dr,Ge,3,1,3,flow/blocks/NoThetaInAudio_GlobalThetaInVideo_A.csv,,,,,,,,,0,1,1,1,0,0,0,18,,,,,,,,,-0.3861111111111111,0.2833333333333333,1,0,0,6.2649209999945015,call1,-0.016666666666666666,0.2625,1,0,0,7.384646099992096,colour1,0.39861111111111114,-0.1175925925925926,1,0,0,7.966409300046507,number3,False,True,True,16,1,2019_Nov_14_1202,MA_Theta_Exp,3.0.7,59.98397227229475,
video/Experiment/zh_sp07_Ad_Gr_4_NoThetaInAudio_GlobalThetaInVideo.avi,noTheta,plusVideo,sp07,Ad,Gr,4,1,3,flow/blocks/NoThetaInAudio_GlobalThetaInVideo_A.csv,,,,,,,,,0,1,1,1,0,1,1,7,,,,,,,,,-0.3638888888888889,0.10972222222222222,1,0,0,5.477080999989994,call2,0.002777777777777778,0.09907407407407408,1,0,0,6.057845700008329,colour2,0.4222222222222222,-0.30787037037037035,1,0,0,6.990761799970642,number4,False,True,True,16,1,2019_Nov_14_1202,MA_Theta_Exp,3.0.7,59.98397227229475,
video/Experiment/zh_sp01_Dr_Gr_2_NoThetaInAudio_GlobalThetaInVideo.avi,noTheta,plusVideo,sp01,Dr,Gr,2,1,3,flow/blocks/NoThetaInAudio_GlobalThetaInVideo_A.csv,,,,,,,,,0,1,1,1,0,2,2,21,,,,,,,,,-0.36527777777777776,0.25416666666666665,1,0,0,5.262357099971268,call1,0.027777777777777776,0.03657407407407407,1,0,0,5.728852600033861,colour2,0.41944444444444445,0.10277777777777777,1,0,0,6.509154499974102,number2,False,True,True,16,1,2019_Nov_14_1202,MA_Theta_Exp,3.0.7,59.98397227229475,
video/Experiment/zh_sp07_Dr_We_1_NoThetaInAudio_GlobalThetaInVideo.avi,noTheta,plusVideo,sp07,Dr,We,1,1,3,flow/blocks/NoThetaInAudio_GlobalThetaInVideo_A.csv,,,,,,,,,0,1,1,1,0,3,3,28,,,,,,,,,-0.42083333333333334,0.25,1,0,0,7.5133270000224,call1,0.044444444444444446,0.06944444444444445,1,0,0,8.813447900000028,colour2,0.4027777777777778,0.2708333333333333,1,0,0,9.382094700005837,number1,False,False,True,16,1,2019_Nov_14_1202,MA_Theta_Exp,3.0.7,59.98397227229475,
video/Experiment/zh_sp07_Ad_Ge_2_NoThetaInAudio_GlobalThetaInVideo.avi,noTheta,plusVideo,sp07,Ad,Ge,2,1,3,flow/blocks/NoThetaInAudio_GlobalThetaInVideo_A.csv,,,,,,,,,0,1,1,1,0,4,4,1,,,,,,,,,-0.37916666666666665,0.13796296296296295,1,0,0,6.4329052999964915,call2,0.0125,0.12083333333333333,1,0,0,7.581616900046356,colour2,0.43194444444444446,0.26805555555555555,1,0,0,8.26438509998843,number1,False,False,False,16,1,2019_Nov_14_1202,MA_Theta_Exp,3.0.7,59.98397227229475,
video/Experiment/zh_sp07_Ad_Ro_1_NoThetaInAudio_GlobalThetaInVideo.avi,noTheta,plusVideo,sp07,Ad,Ro,1,1,3,flow/blocks/NoThetaInAudio_GlobalThetaInVideo_A.csv,,,,,,,,,0,1,1,1,0,5,5,8,,,,,,,,,-0.3458333333333333,0.2810185185185185,1,0,0,4.65259509999305,call1,-0.016666666666666666,-0.3523148148148148,1,0,0,5.585813499987125,colour4,0.3888888888888889,0.275,1,0,0,6.246427299978677,number1,True,False,True,16,1,2019_Nov_14_1202,MA_Theta_Exp,3.0.7,59.98397227229475,
video/Experiment/zh_sp01_Dr_Ge_4_NoThetaInAudio_GlobalThetaInVideo.avi,noTheta,plusVideo,sp01,Dr,Ge,4,1,3,flow/blocks/NoThetaInAudio_GlobalThetaInVideo_A.csv,,,,,,,,,0,1,1,1,0,6,6,19,,,,,,,,,-0.42777777777777776,0.25555555555555554,1,0,0,7.698794599971734,call1,-0.0375,0.2916666666666667,1,0,0,8.180954000039492,colour1,0.41388888888888886,-0.30648148148148147,1,0,0,8.94632480002474,number4,False,True,True,16,1,2019_Nov_14_1202,MA_Theta_Exp,3.0.7,59.98397227229475,
video/Experiment/zh_sp01_Dr_We_3_NoThetaInAudio_GlobalThetaInVideo.avi,noTheta,plusVideo,sp01,Dr,We,3,1,3,flow/blocks/NoThetaInAudio_GlobalThetaInVideo_A.csv,,,,,,,,,0,1,1,1,0,7,7,30,,,,,,,,,-0.4152777777777778,0.05462962962962963,1,0,0,5.494712500018068,call2,0.05694444444444444,0.3111111111111111,1,0,0,7.2439478999585845,colour1,0.3902777777777778,-0.04537037037037037,1,0,0,7.815497900010087,number3,True,False,True,16,1,2019_Nov_14_1202,MA_Theta_Exp,3.0.7,59.98397227229475,
video/Experiment/zh_sp01_Ad_Ge_3_NoThetaInAudio_GlobalThetaInVideo.avi,noTheta,plusVideo,sp01,Ad,Ge,3,1,3,flow/blocks/NoThetaInAudio_GlobalThetaInVideo_A.csv,,,,,,,,,0,1,1,1,0,8,8,2,,,,,,,,,-0.44305555555555554,0.2810185185185185,1,0,0,5.364462699973956,call1,-0.043055555555555555,0.2763888888888889,1,0,0,5.800122799992096,colour1,0.43194444444444446,-0.1287037037037037,1,0,0,6.362402500002645,number3,True,True,True,16,1,2019_Nov_14_1202,MA_Theta_Exp,3.0.7,59.98397227229475,
video/Experiment/zh_sp07_Dr_Ro_3_NoThetaInAudio_GlobalThetaInVideo.avi,noTheta,plusVideo,sp07,Dr,Ro,3,1,3,flow/blocks/NoThetaInAudio_GlobalThetaInVideo_A.csv,,,,,,,,,0,1,1,1,0,9,9,26,,,,,,,,,-0.39444444444444443,0.26666666666666666,1,0,0,5.201170100015588,call1,0.0625,0.08657407407407407,1,0,0,7.350213000026997,colour2,0.37083333333333335,-0.3148148148148148,1,0,0,7.918198800005484,number4,False,False,False,16,1,2019_Nov_14_1202,MA_Theta_Exp,3.0.7,59.98397227229475,
video/Experiment/zh_sp07_Dr_Ge_1_NoThetaInAudio_GlobalThetaInVideo.avi,noTheta,plusVideo,sp07,Dr,Ge,1,1,3,flow/blocks/NoThetaInAudio_GlobalThetaInVideo_A.csv,,,,,,,,,0,1,1,1,0,10,10,16,,,,,,,,,-0.3763888888888889,0.2847222222222222,1,0,0,4.818989499995951,call1,-0.058333333333333334,0.11296296296296296,1,0,0,5.472284899966326,colour2,0.4388888888888889,0.35138888888888886,1,0,0,5.952287999971304,number1,False,False,True,16,1,2019_Nov_14_1202,MA_Theta_Exp,3.0.7,59.98397227229475,
video/Experiment/zh_sp01_Dr_Gr_3_NoThetaInAudio_GlobalThetaInVideo.avi,noTheta,plusVideo,sp01,Dr,Gr,3,1,3,flow/blocks/NoThetaInAudio_GlobalThetaInVideo_A.csv,,,,,,,,,0,1,1,1,0,11,11,22,,,,,,,,,-0.3819444444444444,0.08518518518518518,1,0,0,6.661697899980936,call2,0.009722222222222222,0.27361111111111114,1,0,0,8.48057220003102,colour1,0.40555555555555556,-0.060648148148148145,1,0,0,9.292792799999006,number3,True,False,True,16,1,2019_Nov_14_1202,MA_Theta_Exp,3.0.7,59.98397227229475,
video/Experiment/zh_sp07_Ad_We_3_NoThetaInAudio_GlobalThetaInVideo.avi,noTheta,plusVideo,sp07,Ad,We,3,1,3,flow/blocks/NoThetaInAudio_GlobalThetaInVideo_A.csv,,,,,,,,,0,1,1,1,0,12,12,14,,,,,,,,,-0.40694444444444444,0.2916666666666667,1,0,0,4.479568700015079,call1,0.002777777777777778,-0.2916666666666667,1,0,0,5.894793599960394,colour4,0.39444444444444443,-0.034722222222222224,1,0,0,6.424853100033943,number3,True,True,True,16,1,2019_Nov_14_1202,MA_Theta_Exp,3.0.7,59.98397227229475,
video/Experiment/zh_sp01_Dr_Ge_2_NoThetaInAudio_GlobalThetaInVideo.avi,noTheta,plusVideo,sp01,Dr,Ge,2,1,3,flow/blocks/NoThetaInAudio_GlobalThetaInVideo_A.csv,,,,,,,,,0,1,1,1,0,13,13,17,,,,,,,,,-0.4166666666666667,0.25,1,0,0,5.974529099999927,call1,0.04583333333333333,-0.07453703703703704,1,0,0,6.813264700002037,colour3,0.40555555555555556,0.04722222222222222,1,0,0,7.976327300013509,number2,False,False,True,16,1,2019_Nov_14_1202,MA_Theta_Exp,3.0.7,59.98397227229475,
video/Experiment/zh_sp01_Ad_Gr_3_NoThetaInAudio_GlobalThetaInVideo.avi,noTheta,plusVideo,sp01,Ad,Gr,3,1,3,flow/blocks/NoThetaInAudio_GlobalThetaInVideo_A.csv,,,,,,,,,0,1,1,1,0,14,14,6,,,,,,,,,-0.3680555555555556,0.26805555555555555,1,0,0,5.218172299966682,call1,0.030555555555555555,0.08194444444444444,1,0,0,6.181404100032523,colour2,0.42777777777777776,-0.09675925925925925,1,0,0,6.71759989997372,number3,True,True,True,16,1,2019_Nov_14_1202,MA_Theta_Exp,3.0.7,59.98397227229475,
video/Experiment/zh_sp07_Dr_We_2_NoThetaInAudio_GlobalThetaInVideo.avi,noTheta,plusVideo,sp07,Dr,We,2,1,3,flow/blocks/NoThetaInAudio_GlobalThetaInVideo_A.csv,,,,,,,,,0,1,1,1,0,15,15,29,,,,,,,,,-0.36527777777777776,0.12222222222222222,1,0,0,7.394910000031814,call2,0.0375,0.24166666666666667,1,0,0,9.622992699965835,colour1,0.4444444444444444,-0.03564814814814815,1,0,0,10.560094000014942,number3,True,False,False,16,1,2019_Nov_14_1202,MA_Theta_Exp,3.0.7,59.98397227229475,
video/Experiment/zh_sp07_Dr_Gr_1_NoThetaInAudio_GlobalThetaInVideo.avi,noTheta,plusVideo,sp07,Dr,Gr,1,1,3,flow/blocks/NoThetaInAudio_GlobalThetaInVideo_A.csv,,,,,,,,,0,1,1,1,0,16,16,20,,,,,,,,,-0.36666666666666664,0.10277777777777777,1,0,0,5.396093400020618,call2,-0.05555555555555555,0.0824074074074074,1,0,0,6.808464399946388,colour2,0.3236111111111111,0.2513888888888889,1,0,0,7.347745000035502,number1,True,True,True,16,1,2019_Nov_14_1202,MA_Theta_Exp,3.0.7,59.98397227229475,
video/Experiment/zh_sp01_Dr_We_4_NoThetaInAudio_GlobalThetaInVideo.avi,noTheta,plusVideo,sp01,Dr,We,4,1,3,flow/blocks/NoThetaInAudio_GlobalThetaInVideo_A.csv,,,,,,,,,0,1,1,1,0,17,17,31,,,,,,,,,-0.39166666666666666,0.12546296296296297,1,0,0,5.855911700055003,call2,0.005555555555555556,0.06527777777777778,1,0,0,7.806317600014154,colour2,0.35694444444444445,-0.2898148148148148,1,0,0,8.455496499955188,number4,True,False,True,16,1,2019_Nov_14_1202,MA_Theta_Exp,3.0.7,59.98397227229475,
video/Experiment/zh_sp01_Ad_Ro_3_NoThetaInAudio_GlobalThetaInVideo.avi,noTheta,plusVideo,sp01,Ad,Ro,3,1,3,flow/blocks/NoThetaInAudio_GlobalThetaInVideo_A.csv,,,,,,,,,0,1,1,1,0,18,18,10,,,,,,,,,-0.4111111111111111,0.28888888888888886,1,0,0,5.713823400030378,call1,-0.043055555555555555,-0.13703703703703704,1,0,0,6.2807080000056885,colour3,0.31527777777777777,-0.13055555555555556,1,0,0,6.7129226999823,number3,True,True,True,16,1,2019_Nov_14_1202,MA_Theta_Exp,3.0.7,59.98397227229475,
video/Experiment/zh_sp01_Dr_Ro_2_NoThetaInAudio_GlobalThetaInVideo.avi,noTheta,plusVideo,sp01,Dr,Ro,2,1,3,flow/blocks/NoThetaInAudio_GlobalThetaInVideo_A.csv,,,,,,,,,0,1,1,1,0,19,19,25,,,,,,,,,-0.39305555555555555,0.08333333333333333,1,0,0,5.146866000024602,call2,-0.03333333333333333,-0.13564814814814816,1,0,0,5.671232799999416,colour3,0.4305555555555556,0.1361111111111111,1,0,0,6.102698400034569,number2,True,True,True,16,1,2019_Nov_14_1202,MA_Theta_Exp,3.0.7,59.98397227229475,
video/Experiment/zh_sp07_Ad_We_2_NoThetaInAudio_GlobalThetaInVideo.avi,noTheta,plusVideo,sp07,Ad,We,2,1,3,flow/blocks/NoThetaInAudio_GlobalThetaInVideo_A.csv,,,,,,,,,0,1,1,1,0,20,20,13,,,,,,,,,-0.3958333333333333,0.31666666666666665,1,0,0,4.6874865999561734,call1,0.044444444444444446,-0.3148148148148148,1,0,0,5.848590700014029,colour4,0.37222222222222223,0.058333333333333334,1,0,0,6.3349673000047915,number2,True,True,True,16,1,2019_Nov_14_1202,MA_Theta_Exp,3.0.7,59.98397227229475,
video/Experiment/zh_sp01_Ad_Ge_4_NoThetaInAudio_GlobalThetaInVideo.avi,noTheta,plusVideo,sp01,Ad,Ge,4,1,3,flow/blocks/NoThetaInAudio_GlobalThetaInVideo_A.csv,,,,,,,,,0,1,1,1,0,21,21,3,,,,,,,,,-0.37083333333333335,0.3375,1,0,0,5.062901399971452,call1,-0.001388888888888889,-0.30787037037037035,1,0,0,8.339084100036416,colour4,0.39444444444444443,-0.10092592592592593,1,0,0,9.367681199975777,number3,True,False,False,16,1,2019_Nov_14_1202,MA_Theta_Exp,3.0.7,59.98397227229475,
video/Experiment/zh_sp07_Dr_Ro_4_NoThetaInAudio_GlobalThetaInVideo.avi,noTheta,plusVideo,sp07,Dr,Ro,4,1,3,flow/blocks/NoThetaInAudio_GlobalThetaInVideo_A.csv,,,,,,,,,0,1,1,1,0,22,22,27,,,,,,,,,-0.4486111111111111,0.30185185185185187,1,0,0,5.060979900008533,call1,0.002777777777777778,0.07777777777777778,1,0,0,5.760705399967264,colour2,0.4597222222222222,-0.324537037037037,1,0,0,6.2933663000003435,number4,False,False,True,16,1,2019_Nov_14_1202,MA_Theta_Exp,3.0.7,59.98397227229475,
video/Experiment/zh_sp01_Ad_Ro_2_NoThetaInAudio_GlobalThetaInVideo.avi,noTheta,plusVideo,sp01,Ad,Ro,2,1,3,flow/blocks/NoThetaInAudio_GlobalThetaInVideo_A.csv,,,,,,,,,0,1,1,1,0,23,23,9,,,,,,,,,-0.3958333333333333,0.28194444444444444,1,0,0,5.052136400016025,call1,0.02638888888888889,-0.1300925925925926,1,0,0,5.571439099963754,colour3,0.3972222222222222,0.06435185185185185,1,0,0,6.035937800013926,number2,True,True,True,16,1,2019_Nov_14_1202,MA_Theta_Exp,3.0.7,59.98397227229475,
video/Experiment/zh_sp07_Ad_We_4_NoThetaInAudio_GlobalThetaInVideo.avi,noTheta,plusVideo,sp07,Ad,We,4,1,3,flow/blocks/NoThetaInAudio_GlobalThetaInVideo_A.csv,,,,,,,,,0,1,1,1,0,24,24,15,,,,,,,,,-0.37916666666666665,0.12685185185185185,1,0,0,5.235173500026576,call2,0.06388888888888888,-0.06759259259259259,1,0,0,6.787257199990563,colour3,0.38333333333333336,-0.3425925925925926,1,0,0,7.251289100036956,number4,False,False,True,16,1,2019_Nov_14_1202,MA_Theta_Exp,3.0.7,59.98397227229475,
video/Experiment/zh_sp01_Ad_Gr_2_NoThetaInAudio_GlobalThetaInVideo.avi,noTheta,plusVideo,sp01,Ad,Gr,2,1,3,flow/blocks/NoThetaInAudio_GlobalThetaInVideo_A.csv,,,,,,,,,0,1,1,1,0,25,25,5,,,,,,,,,-0.41805555555555557,0.26944444444444443,1,0,0,5.222014400002081,call1,0.0125,0.04212962962962963,1,0,0,5.7387307999888435,colour2,0.35833333333333334,0.0875,1,0,0,6.13766539999051,number2,True,True,True,16,1,2019_Nov_14_1202,MA_Theta_Exp,3.0.7,59.98397227229475,
video/Experiment/zh_sp01_Ad_Ro_4_NoThetaInAudio_GlobalThetaInVideo.avi,noTheta,plusVideo,sp01,Ad,Ro,4,1,3,flow/blocks/NoThetaInAudio_GlobalThetaInVideo_A.csv,,,,,,,,,0,1,1,1,0,26,26,11,,,,,,,,,-0.4638888888888889,0.2824074074074074,1,0,0,5.1739300999906845,call1,-0.0125,-0.10231481481481482,1,0,0,5.887656699982472,colour3,0.43472222222222223,-0.2875,1,0,0,6.534985200036317,number4,True,True,True,16,1,2019_Nov_14_1202,MA_Theta_Exp,3.0.7,59.98397227229475,
video/Experiment/zh_sp07_Dr_Gr_4_NoThetaInAudio_GlobalThetaInVideo.avi,noTheta,plusVideo,sp07,Dr,Gr,4,1,3,flow/blocks/NoThetaInAudio_GlobalThetaInVideo_A.csv,,,,,,,,,0,1,1,1,0,27,27,23,,,,,,,,,-0.425,0.0837962962962963,1,0,0,4.545319799974095,call2,-0.0125,0.06666666666666667,1,0,0,5.034033100004308,colour2,0.36666666666666664,-0.3106481481481482,1,0,0,5.529017699998803,number4,True,True,True,16,1,2019_Nov_14_1202,MA_Theta_Exp,3.0.7,59.98397227229475,
video/Experiment/zh_sp07_Dr_Ro_1_NoThetaInAudio_GlobalThetaInVideo.avi,noTheta,plusVideo,sp07,Dr,Ro,1,1,3,flow/blocks/NoThetaInAudio_GlobalThetaInVideo_A.csv,,,,,,,,,0,1,1,1,0,28,28,24,,,,,,,,,-0.4388888888888889,0.30416666666666664,1,0,0,5.049267199996393,call1,-0.10555555555555556,0.12685185185185185,1,0,0,5.468110700021498,colour2,0.3972222222222222,0.2916666666666667,1,0,0,6.332196400035173,number1,False,False,True,16,1,2019_Nov_14_1202,MA_Theta_Exp,3.0.7,59.98397227229475,
video/Experiment/zh_sp01_Ad_Gr_1_NoThetaInAudio_GlobalThetaInVideo.avi,noTheta,plusVideo,sp01,Ad,Gr,1,1,3,flow/blocks/NoThetaInAudio_GlobalThetaInVideo_A.csv,,,,,,,,,0,1,1,1,0,29,29,4,,,,,,,,,-0.4263888888888889,0.29583333333333334,1,0,0,5.201423299964517,call1,-0.030555555555555555,0.07268518518518519,1,0,0,5.688411100010853,colour2,0.39166666666666666,0.275,1,0,0,6.083994899992831,number1,True,True,True,16,1,2019_Nov_14_1202,MA_Theta_Exp,3.0.7,59.98397227229475,
video/Experiment/zh_sp07_Ad_We_1_NoThetaInAudio_GlobalThetaInVideo.avi,noTheta,plusVideo,sp07,Ad,We,1,1,3,flow/blocks/NoThetaInAudio_GlobalThetaInVideo_A.csv,,,,,,,,,0,1,1,1,0,30,30,12,,,,,,,,,-0.36527777777777776,0.10046296296296296,1,0,0,4.81694069999503,call2,-0.008333333333333333,0.08935185185185185,1,0,0,5.21639930002857,colour2,0.43472222222222223,0.30416666666666664,1,0,0,5.950275200011674,number1,False,False,True,16,1,2019_Nov_14_1202,MA_Theta_Exp,3.0.7,59.98397227229475,
video/Experiment/zh_sp07_Ad_Ge_1_NoThetaInAudio_GlobalThetaInVideo.avi,noTheta,plusVideo,sp07,Ad,Ge,1,1,3,flow/blocks/NoThetaInAudio_GlobalThetaInVideo_A.csv,,,,,,,,,0,1,1,1,0,31,31,0,,,,,,,,,-0.45,0.25555555555555554,1,0,0,4.536912499985192,call1,0.008333333333333333,-0.09814814814814815,1,0,0,5.158692199969664,colour3,0.37916666666666665,0.325,1,0,0,5.674960300035309,number1,True,False,True,16,1,2019_Nov_14_1202,MA_Theta_Exp,3.0.7,59.98397227229475,
video/Experiment/zh_sp01_Ad_Gr_1_GlobalTheta_NoVideo.avi,globalTheta,noVideo,sp01,Ad,Gr,1,2,5,flow/blocks/GlobalTheta_NoVideo_A.csv,,,,,,,,,0,2,2,2,0,0,0,4,,,,,,,,,-0.3763888888888889,0.3226851851851852,1,0,0,5.172610500012524,call1,0.018055555555555554,0.0824074074074074,1,0,0,6.355105400027242,colour2,0.4111111111111111,0.29305555555555557,1,0,0,6.792862400005106,number1,True,True,True,16,1,2019_Nov_14_1202,MA_Theta_Exp,3.0.7,59.98397227229475,
video/Experiment/zh_sp07_Dr_We_3_GlobalTheta_NoVideo.avi,globalTheta,noVideo,sp07,Dr,We,3,2,5,flow/blocks/GlobalTheta_NoVideo_A.csv,,,,,,,,,0,2,2,2,0,1,1,30,,,,,,,,,-0.3402777777777778,0.05138888888888889,1,0,0,6.4072741999989375,call2,0.001388888888888889,-0.3523148148148148,1,0,0,7.0431759000057355,colour4,0.47638888888888886,-0.3125,1,0,0,7.521443600009661,number4,True,True,False,16,1,2019_Nov_14_1202,MA_Theta_Exp,3.0.7,59.98397227229475,
video/Experiment/zh_sp07_Ad_Gr_2_GlobalTheta_NoVideo.avi,globalTheta,noVideo,sp07,Ad,Gr,2,2,5,flow/blocks/GlobalTheta_NoVideo_A.csv,,,,,,,,,0,2,2,2,0,2,2,5,,,,,,,,,-0.36666666666666664,0.25416666666666665,1,0,0,5.076762799988501,call1,-0.05416666666666667,0.09907407407407408,1,0,0,5.494715900043957,colour2,0.41388888888888886,0.10416666666666667,1,0,0,5.910141300002579,number2,True,True,True,16,1,2019_Nov_14_1202,MA_Theta_Exp,3.0.7,59.98397227229475,
video/Experiment/zh_sp01_Ad_Ro_4_GlobalTheta_NoVideo.avi,globalTheta,noVideo,sp01,Ad,Ro,4,2,5,flow/blocks/GlobalTheta_NoVideo_A.csv,,,,,,,,,0,2,2,2,0,3,3,11,,,,,,,,,-0.3736111111111111,0.28194444444444444,1,0,0,5.185934700013604,call1,0.027777777777777776,0.09074074074074075,1,0,0,6.807836300053168,colour2,0.4388888888888889,-0.3023148148148148,1,0,0,7.47951540001668,number4,True,False,True,16,1,2019_Nov_14_1202,MA_Theta_Exp,3.0.7,59.98397227229475,
video/Experiment/zh_sp07_Dr_Ge_2_GlobalTheta_NoVideo.avi,globalTheta,noVideo,sp07,Dr,Ge,2,2,5,flow/blocks/GlobalTheta_NoVideo_A.csv,,,,,,,,,0,2,2,2,0,4,4,17,,,,,,,,,-0.37777777777777777,0.2462962962962963,1,0,0,5.440940200001933,call1,0.027777777777777776,0.10277777777777777,1,0,0,6.845353999990039,colour2,0.34305555555555556,0.2708333333333333,1,0,0,7.267825599992648,number1,False,False,False,16,1,2019_Nov_14_1202,MA_Theta_Exp,3.0.7,59.98397227229475,
video/Experiment/zh_sp07_Dr_Ge_4_GlobalTheta_NoVideo.avi,globalTheta,noVideo,sp07,Dr,Ge,4,2,5,flow/blocks/GlobalTheta_NoVideo_A.csv,,,,,,,,,0,2,2,2,0,5,5,19,,,,,,,,,-0.4597222222222222,0.11805555555555555,1,0,0,4.619878900004551,call2,-0.011111111111111112,-0.09537037037037037,1,0,0,5.23659869999392,colour3,0.3736111111111111,-0.32731481481481484,1,0,0,5.9535875000292435,number4,True,False,True,16,1,2019_Nov_14_1202,MA_Theta_Exp,3.0.7,59.98397227229475,
video/Experiment/zh_sp01_Ad_We_3_GlobalTheta_NoVideo.avi,globalTheta,noVideo,sp01,Ad,We,3,2,5,flow/blocks/GlobalTheta_NoVideo_A.csv,,,,,,,,,0,2,2,2,0,6,6,14,,,,,,,,,-0.4097222222222222,0.30833333333333335,1,0,0,6.225959500006866,call1,0.029166666666666667,0.06666666666666667,1,0,0,7.51067210000474,colour2,0.39166666666666666,-0.06898148148148148,1,0,0,7.9747109999880195,number3,True,False,True,16,1,2019_Nov_14_1202,MA_Theta_Exp,3.0.7,59.98397227229475,
video/Experiment/zh_sp01_Dr_Ro_2_GlobalTheta_NoVideo.avi,globalTheta,noVideo,sp01,Dr,Ro,2,2,5,flow/blocks/GlobalTheta_NoVideo_A.csv,,,,,,,,,0,2,2,2,0,7,7,25,,,,,,,,,-0.3458333333333333,0.13935185185185187,1,0,0,5.0458163999719545,call2,0.0375,0.12777777777777777,1,0,0,6.40563380002277,colour2,0.4,0.13657407407407407,1,0,0,6.796651599986944,number2,True,False,True,16,1,2019_Nov_14_1202,MA_Theta_Exp,3.0.7,59.98397227229475,
video/Experiment/zh_sp01_Dr_Ro_3_GlobalTheta_NoVideo.avi,globalTheta,noVideo,sp01,Dr,Ro,3,2,5,flow/blocks/GlobalTheta_NoVideo_A.csv,,,,,,,,,0,2,2,2,0,8,8,26,,,,,,,,,-0.45,0.29768518518518516,1,0,0,6.339270800002851,call1,0.029166666666666667,0.2625,1,0,0,7.410154099983629,colour1,0.44166666666666665,-0.09675925925925925,1,0,0,8.04214930004673,number3,False,False,True,16,1,2019_Nov_14_1202,MA_Theta_Exp,3.0.7,59.98397227229475,
video/Experiment/zh_sp01_Ad_Ge_3_GlobalTheta_NoVideo.avi,globalTheta,noVideo,sp01,Ad,Ge,3,2,5,flow/blocks/GlobalTheta_NoVideo_A.csv,,,,,,,,,0,2,2,2,0,9,9,2,,,,,,,,,-0.4236111111111111,0.30972222222222223,1,0,0,5.644530599995051,call1,0.020833333333333332,-0.30925925925925923,1,0,0,6.493367200018838,colour4,0.3861111111111111,-0.09722222222222222,1,0,0,6.99391389999073,number3,True,False,True,16,1,2019_Nov_14_1202,MA_Theta_Exp,3.0.7,59.98397227229475,
video/Experiment/zh_sp07_Ad_Ro_1_GlobalTheta_NoVideo.avi,globalTheta,noVideo,sp07,Ad,Ro,1,2,5,flow/blocks/GlobalTheta_NoVideo_A.csv,,,,,,,,,0,2,2,2,0,10,10,8,,,,,,,,,-0.3541666666666667,0.05462962962962963,1,0,0,5.0062952999724075,call2,0.043055555555555555,0.28055555555555556,1,0,0,6.658888700010721,colour1,0.4125,0.2726851851851852,1,0,0,7.02254009997705,number1,False,False,True,16,1,2019_Nov_14_1202,MA_Theta_Exp,3.0.7,59.98397227229475,
video/Experiment/zh_sp07_Ad_Ro_2_GlobalTheta_NoVideo.avi,globalTheta,noVideo,sp07,Ad,Ro,2,2,5,flow/blocks/GlobalTheta_NoVideo_A.csv,,,,,,,,,0,2,2,2,0,11,11,9,,,,,,,,,-0.4083333333333333,0.059722222222222225,1,0,0,5.254262699978426,call2,-0.05138888888888889,0.07361111111111111,1,0,0,5.698520199977793,colour2,0.42777777777777776,0.3055555555555556,1,0,0,6.584790499997325,number1,False,False,False,16,1,2019_Nov_14_1202,MA_Theta_Exp,3.0.7,59.98397227229475,
video/Experiment/zh_sp01_Dr_Gr_1_GlobalTheta_NoVideo.avi,globalTheta,noVideo,sp01,Dr,Gr,1,2,5,flow/blocks/GlobalTheta_NoVideo_A.csv,,,,,,,,,0,2,2,2,0,12,12,20,,,,,,,,,-0.37083333333333335,0.10462962962962963,1,0,0,5.372908199962694,call2,0.09027777777777778,0.08796296296296297,1,0,0,6.039552000002004,colour2,0.36527777777777776,0.30833333333333335,1,0,0,7.244153900013771,number1,True,True,True,16,1,2019_Nov_14_1202,MA_Theta_Exp,3.0.7,59.98397227229475,
video/Experiment/zh_sp01_Dr_Gr_3_GlobalTheta_NoVideo.avi,globalTheta,noVideo,sp01,Dr,Gr,3,2,5,flow/blocks/GlobalTheta_NoVideo_A.csv,,,,,,,,,0,2,2,2,0,13,13,22,,,,,,,,,-0.35833333333333334,0.31157407407407406,1,0,0,5.182314099976793,call1,0.020833333333333332,0.06388888888888888,1,0,0,6.510928500036243,colour2,0.4013888888888889,-0.038425925925925926,1,0,0,7.412014600005932,number3,False,True,True,16,1,2019_Nov_14_1202,MA_Theta_Exp,3.0.7,59.98397227229475,
video/Experiment/zh_sp07_Dr_Ge_1_GlobalTheta_NoVideo.avi,globalTheta,noVideo,sp07,Dr,Ge,1,2,5,flow/blocks/GlobalTheta_NoVideo_A.csv,,,,,,,,,0,2,2,2,0,14,14,16,,,,,,,,,-0.37083333333333335,0.27361111111111114,1,0,0,4.597580700006802,call1,0.0125,0.1486111111111111,1,0,0,5.225670799962245,colour2,0.41944444444444445,0.3125,1,0,0,5.630468800023664,number1,False,False,True,16,1,2019_Nov_14_1202,MA_Theta_Exp,3.0.7,59.98397227229475,
video/Experiment/zh_sp07_Ad_Gr_3_GlobalTheta_NoVideo.avi,globalTheta,noVideo,sp07,Ad,Gr,3,2,5,flow/blocks/GlobalTheta_NoVideo_A.csv,,,,,,,,,0,2,2,2,0,15,15,6,,,,,,,,,-0.39166666666666666,0.09351851851851851,1,0,0,4.936118400015403,call2,-0.016666666666666666,0.10462962962962963,1,0,0,5.472626800008584,colour2,0.44166666666666665,-0.14953703703703702,1,0,0,6.068956500035711,number3,False,True,True,16,1,2019_Nov_14_1202,MA_Theta_Exp,3.0.7,59.98397227229475,
video/Experiment/zh_sp01_Dr_Ro_1_GlobalTheta_NoVideo.avi,globalTheta,noVideo,sp01,Dr,Ro,1,2,5,flow/blocks/GlobalTheta_NoVideo_A.csv,,,,,,,,,0,2,2,2,0,16,16,24,,,,,,,,,-0.36527777777777776,0.2638888888888889,1,0,0,5.261182099988218,call1,0.041666666666666664,-0.08703703703703704,1,0,0,5.994288600049913,colour3,0.37083333333333335,0.28888888888888886,1,0,0,6.621755200030748,number1,False,True,True,16,1,2019_Nov_14_1202,MA_Theta_Exp,3.0.7,59.98397227229475,
video/Experiment/zh_sp01_Ad_Ge_1_GlobalTheta_NoVideo.avi,globalTheta,noVideo,sp01,Ad,Ge,1,2,5,flow/blocks/GlobalTheta_NoVideo_A.csv,,,,,,,,,0,2,2,2,0,17,17,0,,,,,,,,,-0.4083333333333333,0.2824074074074074,1,0,0,5.184084000007715,call1,0.06666666666666667,0.14444444444444443,1,0,0,5.780740799964406,colour2,0.43194444444444446,0.31296296296296294,1,0,0,6.263923200021964,number1,True,False,True,16,1,2019_Nov_14_1202,MA_Theta_Exp,3.0.7,59.98397227229475,
video/Experiment/zh_sp01_Dr_We_1_GlobalTheta_NoVideo.avi,globalTheta,noVideo,sp01,Dr,We,1,2,5,flow/blocks/GlobalTheta_NoVideo_A.csv,,,,,,,,,0,2,2,2,0,18,18,28,,,,,,,,,-0.3611111111111111,0.3111111111111111,1,0,0,5.116915500024334,call1,-0.020833333333333332,0.09907407407407408,1,0,0,5.588019999966491,colour2,0.3625,0.2601851851851852,1,0,0,5.965780400030781,number1,False,False,True,16,1,2019_Nov_14_1202,MA_Theta_Exp,3.0.7,59.98397227229475,
video/Experiment/zh_sp01_Dr_We_2_GlobalTheta_NoVideo.avi,globalTheta,noVideo,sp01,Dr,We,2,2,5,flow/blocks/GlobalTheta_NoVideo_A.csv,,,,,,,,,0,2,2,2,0,19,19,29,,,,,,,,,-0.4166666666666667,0.11712962962962963,1,0,0,5.550945800030604,call2,0.029166666666666667,-0.07175925925925926,1,0,0,6.1842422999907285,colour3,0.41388888888888886,-0.09259259259259259,1,0,0,6.959525699960068,number3,True,False,False,16,1,2019_Nov_14_1202,MA_Theta_Exp,3.0.7,59.98397227229475,
video/Experiment/zh_sp07_Ad_Ge_4_GlobalTheta_NoVideo.avi,globalTheta,noVideo,sp07,Ad,Ge,4,2,5,flow/blocks/GlobalTheta_NoVideo_A.csv,,,,,,,,,0,2,2,2,0,20,20,3,,,,,,,,,-0.4361111111111111,0.2574074074074074,1,0,0,4.42756569996709,call1,0.06527777777777778,0.09166666666666666,1,0,0,5.277243000047747,colour2,0.42916666666666664,-0.3175925925925926,1,0,0,5.867201499990188,number4,True,False,True,16,1,2019_Nov_14_1202,MA_Theta_Exp,3.0.7,59.98397227229475,
video/Experiment/zh_sp01_Ad_Ge_2_GlobalTheta_NoVideo.avi,globalTheta,noVideo,sp01,Ad,Ge,2,2,5,flow/blocks/GlobalTheta_NoVideo_A.csv,,,,,,,,,0,2,2,2,0,21,21,1,,,,,,,,,-0.46111111111111114,0.25462962962962965,1,0,0,4.9902243000105955,call1,-0.07916666666666666,0.23935185185185184,1,0,0,5.3949666999978945,colour1,0.4083333333333333,-0.1537037037037037,1,0,0,5.924415900022723,number3,True,True,False,16,1,2019_Nov_14_1202,MA_Theta_Exp,3.0.7,59.98397227229475,
video/Experiment/zh_sp01_Ad_We_2_GlobalTheta_NoVideo.avi,globalTheta,noVideo,sp01,Ad,We,2,2,5,flow/blocks/GlobalTheta_NoVideo_A.csv,,,,,,,,,0,2,2,2,0,22,22,13,,,,,,,,,-0.4097222222222222,0.09212962962962963,1,0,0,5.181693800026551,call2,-0.04861111111111111,0.2652777777777778,1,0,0,5.894004100002348,colour1,0.3611111111111111,-0.1287037037037037,1,0,0,6.459987200039905,number3,False,False,False,16,1,2019_Nov_14_1202,MA_Theta_Exp,3.0.7,59.98397227229475,
video/Experiment/zh_sp01_Dr_Ge_3_GlobalTheta_NoVideo.avi,globalTheta,noVideo,sp01,Dr,Ge,3,2,5,flow/blocks/GlobalTheta_NoVideo_A.csv,,,,,,,,,0,2,2,2,0,23,23,18,,,,,,,,,-0.3958333333333333,0.11296296296296296,1,0,0,4.973679799993988,call2,0.07777777777777778,-0.09259259259259259,1,0,0,5.485300899948925,colour3,0.46944444444444444,-0.11342592592592593,1,0,0,5.868547899997793,number3,True,False,True,16,1,2019_Nov_14_1202,MA_Theta_Exp,3.0.7,59.98397227229475,
video/Experiment/zh_sp07_Ad_Ro_3_GlobalTheta_NoVideo.avi,globalTheta,noVideo,sp07,Ad,Ro,3,2,5,flow/blocks/GlobalTheta_NoVideo_A.csv,,,,,,,,,0,2,2,2,0,24,24,10,,,,,,,,,-0.34305555555555556,0.2726851851851852,1,0,0,4.215440100000706,call1,0.04722222222222222,-0.10092592592592593,1,0,0,5.415739500022028,colour3,0.44027777777777777,-0.2611111111111111,1,0,0,6.049452500010375,number4,True,True,False,16,1,2019_Nov_14_1202,MA_Theta_Exp,3.0.7,59.98397227229475,
video/Experiment/zh_sp07_Ad_We_1_GlobalTheta_NoVideo.avi,globalTheta,noVideo,sp07,Ad,We,1,2,5,flow/blocks/GlobalTheta_NoVideo_A.csv,,,,,,,,,0,2,2,2,0,25,25,12,,,,,,,,,-0.4152777777777778,0.13935185185185187,1,0,0,4.601506999984849,call2,-0.025,-0.1398148148148148,1,0,0,5.352825899957679,colour3,0.3763888888888889,0.2708333333333333,1,0,0,5.948340500006452,number1,False,False,True,16,1,2019_Nov_14_1202,MA_Theta_Exp,3.0.7,59.98397227229475,
video/Experiment/zh_sp01_Dr_Gr_2_GlobalTheta_NoVideo.avi,globalTheta,noVideo,sp01,Dr,Gr,2,2,5,flow/blocks/GlobalTheta_NoVideo_A.csv,,,,,,,,,0,2,2,2,0,26,26,21,,,,,,,,,-0.3888888888888889,0.09583333333333334,1,0,0,5.800783499958925,call2,-0.03333333333333333,0.09490740740740741,1,0,0,6.506237299996428,colour2,0.39861111111111114,0.06435185185185185,1,0,0,6.969368599995505,number2,True,True,True,16,1,2019_Nov_14_1202,MA_Theta_Exp,3.0.7,59.98397227229475,
video/Experiment/zh_sp07_Ad_We_4_GlobalTheta_NoVideo.avi,globalTheta,noVideo,sp07,Ad,We,4,2,5,flow/blocks/GlobalTheta_NoVideo_A.csv,,,,,,,,,0,2,2,2,0,27,27,15,,,,,,,,,-0.3763888888888889,0.30416666666666664,1,0,0,4.658209800021723,call1,-0.0375,-0.14953703703703702,1,0,0,5.3391836999799125,colour3,0.44166666666666665,0.09212962962962963,1,0,0,6.006563000031747,number2,True,False,False,16,1,2019_Nov_14_1202,MA_Theta_Exp,3.0.7,59.98397227229475,
video/Experiment/zh_sp07_Dr_Gr_4_GlobalTheta_NoVideo.avi,globalTheta,noVideo,sp07,Dr,Gr,4,2,5,flow/blocks/GlobalTheta_NoVideo_A.csv,,,,,,,,,0,2,2,2,0,28,28,23,,,,,,,,,-0.41805555555555557,0.2833333333333333,1,0,0,5.316094600013457,call1,0.05138888888888889,0.07962962962962963,1,0,0,5.794953700038604,colour2,0.3875,0.26805555555555555,1,0,0,6.227520500018727,number1,False,True,False,16,1,2019_Nov_14_1202,MA_Theta_Exp,3.0.7,59.98397227229475,
video/Experiment/zh_sp07_Dr_We_4_GlobalTheta_NoVideo.avi,globalTheta,noVideo,sp07,Dr,We,4,2,5,flow/blocks/GlobalTheta_NoVideo_A.csv,,,,,,,,,0,2,2,2,0,29,29,31,,,,,,,,,-0.37777777777777777,0.09768518518518518,1,0,0,4.470250699960161,call2,-0.027777777777777776,-0.08703703703703704,1,0,0,4.98749750002753,colour3,0.3875,-0.06666666666666667,1,0,0,5.368268399965018,number3,True,False,False,16,1,2019_Nov_14_1202,MA_Theta_Exp,3.0.7,59.98397227229475,
video/Experiment/zh_sp07_Dr_Ro_4_GlobalTheta_NoVideo.avi,globalTheta,noVideo,sp07,Dr,Ro,4,2,5,flow/blocks/GlobalTheta_NoVideo_A.csv,,,,,,,,,0,2,2,2,0,30,30,27,,,,,,,,,-0.4375,0.2824074074074074,1,0,0,4.346060600015335,call1,0.025,0.04351851851851852,1,0,0,4.965558499970939,colour2,0.4083333333333333,-0.324537037037037,1,0,0,5.447487999976147,number4,False,False,True,16,1,2019_Nov_14_1202,MA_Theta_Exp,3.0.7,59.98397227229475,
video/Experiment/zh_sp07_Ad_Gr_4_GlobalTheta_NoVideo.avi,globalTheta,noVideo,sp07,Ad,Gr,4,2,5,flow/blocks/GlobalTheta_NoVideo_A.csv,,,,,,,,,0,2,2,2,0,31,31,7,,,,,,,,,-0.4111111111111111,0.29444444444444445,1,0,0,4.190240699972492,call1,0.019444444444444445,-0.27175925925925926,1,0,0,4.9041656000190414,colour4,-0.013888888888888888,0.2861111111111111,1,0,0,6.313377499987837,number4,True,False,True,16,1,2019_Nov_14_1202,MA_Theta_Exp,3.0.7,59.98397227229475,
video/Experiment/zh_sp07_Dr_Gr_3_NVocInAudio_GlobalThetaInVideo.avi,vocoded,plusVideo,sp07,Dr,Gr,3,3,1,flow/blocks/NVocInAudio_GlobalThetaInVideo_A.csv,,,,,,,,,0,3,3,3,0,0,0,22,,,,,,,,,-0.3888888888888889,0.12685185185185185,1,0,0,5.347073599987198,call2,0.011111111111111112,0.09351851851851851,1,0,0,6.096148000040557,colour2,0.4097222222222222,-0.13472222222222222,1,0,0,6.55204209999647,number3,True,True,True,16,1,2019_Nov_14_1202,MA_Theta_Exp,3.0.7,59.98397227229475,
video/Experiment/zh_sp01_Ad_We_3_NVocInAudio_GlobalThetaInVideo.avi,vocoded,plusVideo,sp01,Ad,We,3,3,1,flow/blocks/NVocInAudio_GlobalThetaInVideo_A.csv,,,,,,,,,0,3,3,3,0,1,1,14,,,,,,,,,-0.4513888888888889,0.29305555555555557,1,0,0,5.181929600017611,call1,0.001388888888888889,-0.3662037037037037,1,0,0,5.794828700018115,colour4,0.4041666666666667,-0.13194444444444445,1,0,0,6.213102899957448,number3,True,True,True,16,1,2019_Nov_14_1202,MA_Theta_Exp,3.0.7,59.98397227229475,
video/Experiment/zh_sp07_Ad_Gr_3_NVocInAudio_GlobalThetaInVideo.avi,vocoded,plusVideo,sp07,Ad,Gr,3,3,1,flow/blocks/NVocInAudio_GlobalThetaInVideo_A.csv,,,,,,,,,0,3,3,3,0,2,2,6,,,,,,,,,-0.3958333333333333,0.25324074074074077,1,0,0,4.703152899979614,call1,-0.030555555555555555,0.05462962962962963,1,0,0,5.13664169999538,colour2,0.4027777777777778,-0.06111111111111111,1,0,0,5.74163820000831,number3,True,True,True,16,1,2019_Nov_14_1202,MA_Theta_Exp,3.0.7,59.98397227229475,
video/Experiment/zh_sp01_Ad_We_2_NVocInAudio_GlobalThetaInVideo.avi,vocoded,plusVideo,sp01,Ad,We,2,3,1,flow/blocks/NVocInAudio_GlobalThetaInVideo_A.csv,,,,,,,,,0,3,3,3,0,3,3,13,,,,,,,,,-0.43333333333333335,0.2712962962962963,1,0,0,4.912357399996836,call1,-0.027777777777777776,-0.36203703703703705,1,0,0,5.5085659000324085,colour4,0.4638888888888889,0.11527777777777778,1,0,0,6.029563699965365,number2,True,True,True,16,1,2019_Nov_14_1202,MA_Theta_Exp,3.0.7,59.98397227229475,
video/Experiment/zh_sp01_Dr_Gr_4_NVocInAudio_GlobalThetaInVideo.avi,vocoded,plusVideo,sp01,Dr,Gr,4,3,1,flow/blocks/NVocInAudio_GlobalThetaInVideo_A.csv,,,,,,,,,0,3,3,3,0,4,4,23,,,,,,,,,-0.41944444444444445,0.04351851851851852,1,0,0,5.2049630000256,call2,-0.013888888888888888,0.04351851851851852,1,0,0,5.591379399993457,colour2,0.38333333333333336,-0.31342592592592594,1,0,0,6.04201400000602,number4,True,True,True,16,1,2019_Nov_14_1202,MA_Theta_Exp,3.0.7,59.98397227229475,
video/Experiment/zh_sp01_Ad_Gr_4_NVocInAudio_GlobalThetaInVideo.avi,vocoded,plusVideo,sp01,Ad,Gr,4,3,1,flow/blocks/NVocInAudio_GlobalThetaInVideo_A.csv,,,,,,,,,0,3,3,3,0,5,5,7,,,,,,,,,-0.44027777777777777,0.28379629629629627,1,0,0,5.138977399969008,call1,-0.07777777777777778,0.0699074074074074,1,0,0,5.524073200009298,colour2,0.4791666666666667,-0.31342592592592594,1,0,0,6.239550500002224,number4,True,True,True,16,1,2019_Nov_14_1202,MA_Theta_Exp,3.0.7,59.98397227229475,
video/Experiment/zh_sp01_Ad_Gr_2_NVocInAudio_GlobalThetaInVideo.avi,vocoded,plusVideo,sp01,Ad,Gr,2,3,1,flow/blocks/NVocInAudio_GlobalThetaInVideo_A.csv,,,,,,,,,0,3,3,3,0,6,6,5,,,,,,,,,-0.39861111111111114,0.325,1,0,0,5.161283900029957,call1,-0.020833333333333332,0.08518518518518518,1,0,0,5.558378999994602,colour2,0.4263888888888889,0.1,1,0,0,6.178161999967415,number2,True,True,True,16,1,2019_Nov_14_1202,MA_Theta_Exp,3.0.7,59.98397227229475,
video/Experiment/zh_sp07_Dr_Ro_4_NVocInAudio_GlobalThetaInVideo.avi,vocoded,plusVideo,sp07,Dr,Ro,4,3,1,flow/blocks/NVocInAudio_GlobalThetaInVideo_A.csv,,,,,,,,,0,3,3,3,0,7,7,27,,,,,,,,,-0.35694444444444445,0.13935185185185187,1,0,0,4.560906500031706,call2,-0.075,-0.06759259259259259,1,0,0,4.909258799976669,colour3,0.38472222222222224,-0.30787037037037035,1,0,0,5.877646000008099,number4,True,True,True,16,1,2019_Nov_14_1202,MA_Theta_Exp,3.0.7,59.98397227229475,
video/Experiment/zh_sp07_Dr_We_1_NVocInAudio_GlobalThetaInVideo.avi,vocoded,plusVideo,sp07,Dr,We,1,3,1,flow/blocks/NVocInAudio_GlobalThetaInVideo_A.csv,,,,,,,,,0,3,3,3,0,8,8,28,,,,,,,,,-0.3902777777777778,0.08101851851851852,1,0,0,4.5353169000009075,call2,0.0125,-0.37175925925925923,1,0,0,5.206069500010926,colour4,0.3763888888888889,0.2986111111111111,1,0,0,6.300197199976537,number1,True,True,True,16,1,2019_Nov_14_1202,MA_Theta_Exp,3.0.7,59.98397227229475,
video/Experiment/zh_sp01_Dr_We_4_NVocInAudio_GlobalThetaInVideo.avi,vocoded,plusVideo,sp01,Dr,We,4,3,1,flow/blocks/NVocInAudio_GlobalThetaInVideo_A.csv,,,,,,,,,0,3,3,3,0,9,9,31,,,,,,,,,-0.4236111111111111,0.1,1,0,0,5.121975300018676,call2,0.04722222222222222,-0.4064814814814815,1,0,0,5.6588945999974385,colour4,0.4027777777777778,-0.38333333333333336,1,0,0,6.824433900008444,number4,True,True,True,16,1,2019_Nov_14_1202,MA_Theta_Exp,3.0.7,59.98397227229475,
video/Experiment/zh_sp01_Ad_Ge_2_NVocInAudio_GlobalThetaInVideo.avi,vocoded,plusVideo,sp01,Ad,Ge,2,3,1,flow/blocks/NVocInAudio_GlobalThetaInVideo_A.csv,,,,,,,,,0,3,3,3,0,10,10,1,,,,,,,,,-0.3472222222222222,0.287962962962963,1,0,0,4.968637099955231,call1,0.016666666666666666,0.3,1,0,0,5.940660500025842,colour1,0.41944444444444445,0.05,1,0,0,6.60440519999247,number2,True,True,True,16,1,2019_Nov_14_1202,MA_Theta_Exp,3.0.7,59.98397227229475,
video/Experiment/zh_sp07_Dr_We_3_NVocInAudio_GlobalThetaInVideo.avi,vocoded,plusVideo,sp07,Dr,We,3,3,1,flow/blocks/NVocInAudio_GlobalThetaInVideo_A.csv,,,,,,,,,0,3,3,3,0,11,11,30,,,,,,,,,-0.3680555555555556,0.0587962962962963,1,0,0,4.334779099968728,call2,0.008333333333333333,-0.37037037037037035,1,0,0,4.862454999994952,colour4,0.4111111111111111,-0.14537037037037037,1,0,0,5.549514600017574,number3,True,True,True,16,1,2019_Nov_14_1202,MA_Theta_Exp,3.0.7,59.98397227229475,
video/Experiment/zh_sp01_Dr_Gr_2_NVocInAudio_GlobalThetaInVideo.avi,vocoded,plusVideo,sp01,Dr,Gr,2,3,1,flow/blocks/NVocInAudio_GlobalThetaInVideo_A.csv,,,,,,,,,0,3,3,3,0,12,12,21,,,,,,,,,-0.40555555555555556,0.10277777777777777,1,0,0,5.437944700010121,call2,-0.015277777777777777,0.2638888888888889,1,0,0,7.991492800007109,colour1,0.4375,0.09490740740740741,1,0,0,8.497025699994992,number2,True,False,True,16,1,2019_Nov_14_1202,MA_Theta_Exp,3.0.7,59.98397227229475,
video/Experiment/zh_sp01_Dr_Ge_2_NVocInAudio_GlobalThetaInVideo.avi,vocoded,plusVideo,sp01,Dr,Ge,2,3,1,flow/blocks/NVocInAudio_GlobalThetaInVideo_A.csv,,,,,,,,,0,3,3,3,0,13,13,17,,,,,,,,,-0.4,0.0763888888888889,1,0,0,5.193235800019465,call2,-0.02361111111111111,0.31805555555555554,1,0,0,5.661909999966156,colour1,0.42083333333333334,0.047685185185185185,1,0,0,6.172195399994962,number2,True,True,True,16,1,2019_Nov_14_1202,MA_Theta_Exp,3.0.7,59.98397227229475,
video/Experiment/zh_sp07_Ad_Gr_1_NVocInAudio_GlobalThetaInVideo.avi,vocoded,plusVideo,sp07,Ad,Gr,1,3,1,flow/blocks/NVocInAudio_GlobalThetaInVideo_A.csv,,,,,,,,,0,3,3,3,0,14,14,4,,,,,,,,,-0.4152777777777778,0.30324074074074076,1,0,0,4.662813699978869,call1,0.02638888888888889,0.08657407407407407,1,0,0,5.2286879000021145,colour2,0.4152777777777778,0.2777777777777778,1,0,0,5.827180500025861,number1,True,True,True,16,1,2019_Nov_14_1202,MA_Theta_Exp,3.0.7,59.98397227229475,
video/Experiment/zh_sp01_Ad_Ge_4_NVocInAudio_GlobalThetaInVideo.avi,vocoded,plusVideo,sp01,Ad,Ge,4,3,1,flow/blocks/NVocInAudio_GlobalThetaInVideo_A.csv,,,,,,,,,0,3,3,3,0,15,15,3,,,,,,,,,-0.3236111111111111,0.2652777777777778,1,0,0,4.917079000035301,call1,-0.03194444444444444,0.26805555555555555,1,0,0,5.322273899975698,colour1,0.44722222222222224,-0.27870370370370373,1,0,0,6.03628270002082,number4,True,True,True,16,1,2019_Nov_14_1202,MA_Theta_Exp,3.0.7,59.98397227229475,
video/Experiment/zh_sp07_Dr_Ro_1_NVocInAudio_GlobalThetaInVideo.avi,vocoded,plusVideo,sp07,Dr,Ro,1,3,1,flow/blocks/NVocInAudio_GlobalThetaInVideo_A.csv,,,,,,,,,0,3,3,3,0,16,16,24,,,,,,,,,-0.4097222222222222,0.0837962962962963,1,0,0,4.681251999980304,call2,0.059722222222222225,-0.1398148148148148,1,0,0,5.375447200029157,colour3,0.3875,0.3111111111111111,1,0,0,5.96091709996108,number1,True,True,True,16,1,2019_Nov_14_1202,MA_Theta_Exp,3.0.7,59.98397227229475,
video/Experiment/zh_sp01_Dr_Ge_1_NVocInAudio_GlobalThetaInVideo.avi,vocoded,plusVideo,sp01,Dr,Ge,1,3,1,flow/blocks/NVocInAudio_GlobalThetaInVideo_A.csv,,,,,,,,,0,3,3,3,0,17,17,16,,,,,,,,,-0.38055555555555554,0.09907407407407408,1,0,0,5.053394999995362,call2,-0.022222222222222223,0.29305555555555557,1,0,0,5.718424300022889,colour1,0.41805555555555557,0.3,1,0,0,6.420568000001367,number1,True,True,True,16,1,2019_Nov_14_1202,MA_Theta_Exp,3.0.7,59.98397227229475,
video/Experiment/zh_sp01_Dr_Ro_2_NVocInAudio_GlobalThetaInVideo.avi,vocoded,plusVideo,sp01,Dr,Ro,2,3,1,flow/blocks/NVocInAudio_GlobalThetaInVideo_A.csv,,,,,,,,,0,3,3,3,0,18,18,25,,,,,,,,,-0.4444444444444444,0.08472222222222223,1,0,0,5.193791900004726,call2,-0.059722222222222225,-0.09027777777777778,1,0,0,5.6615229999879375,colour3,0.41805555555555557,0.09722222222222222,1,0,0,6.084609499957878,number2,True,True,True,16,1,2019_Nov_14_1202,MA_Theta_Exp,3.0.7,59.98397227229475,
video/Experiment/zh_sp07_Ad_Ro_2_NVocInAudio_GlobalThetaInVideo.avi,vocoded,plusVideo,sp07,Ad,Ro,2,3,1,flow/blocks/NVocInAudio_GlobalThetaInVideo_A.csv,,,,,,,,,0,3,3,3,0,19,19,9,,,,,,,,,-0.4152777777777778,0.3,1,0,0,5.074073199997656,call1,0.013888888888888888,-0.15925925925925927,1,0,0,5.5689038000418805,colour3,0.46111111111111114,0.1,1,0,0,6.006329399999231,number2,True,True,True,16,1,2019_Nov_14_1202,MA_Theta_Exp,3.0.7,59.98397227229475,
video/Experiment/zh_sp01_Dr_Gr_1_NVocInAudio_GlobalThetaInVideo.avi,vocoded,plusVideo,sp01,Dr,Gr,1,3,1,flow/blocks/NVocInAudio_GlobalThetaInVideo_A.csv,,,,,,,,,0,3,3,3,0,20,20,20,,,,,,,,,-0.4027777777777778,0.06435185185185185,1,0,0,5.191347700019833,call2,-0.009722222222222222,0.05138888888888889,1,0,0,5.638445199991111,colour2,0.3388888888888889,0.2875,1,0,0,6.059639599989168,number1,True,True,True,16,1,2019_Nov_14_1202,MA_Theta_Exp,3.0.7,59.98397227229475,
video/Experiment/zh_sp07_Ad_Ge_1_NVocInAudio_GlobalThetaInVideo.avi,vocoded,plusVideo,sp07,Ad,Ge,1,3,1,flow/blocks/NVocInAudio_GlobalThetaInVideo_A.csv,,,,,,,,,0,3,3,3,0,21,21,0,,,,,,,,,-0.42083333333333334,0.30462962962962964,1,0,0,4.712441899988335,call1,-0.0375,0.2935185185185185,1,0,0,5.122687500028405,colour1,0.39166666666666666,0.30972222222222223,1,0,0,5.529242600023281,number1,True,True,True,16,1,2019_Nov_14_1202,MA_Theta_Exp,3.0.7,59.98397227229475,
video/Experiment/zh_sp01_Dr_We_2_NVocInAudio_GlobalThetaInVideo.avi,vocoded,plusVideo,sp01,Dr,We,2,3,1,flow/blocks/NVocInAudio_GlobalThetaInVideo_A.csv,,,,,,,,,0,3,3,3,0,22,22,29,,,,,,,,,-0.39166666666666666,0.10138888888888889,1,0,0,5.432282400026452,call2,0.002777777777777778,-0.3675925925925926,1,0,0,6.033942400012165,colour4,0.39166666666666666,0.059722222222222225,1,0,0,6.61755439999979,number2,True,True,True,16,1,2019_Nov_14_1202,MA_Theta_Exp,3.0.7,59.98397227229475,
video/Experiment/zh_sp07_Ad_We_1_NVocInAudio_GlobalThetaInVideo.avi,vocoded,plusVideo,sp07,Ad,We,1,3,1,flow/blocks/NVocInAudio_GlobalThetaInVideo_A.csv,,,,,,,,,0,3,3,3,0,23,23,12,,,,,,,,,-0.4486111111111111,0.2916666666666667,1,0,0,4.449288499949034,call1,-0.011111111111111112,-0.30925925925925923,1,0,0,5.164147100003902,colour4,0.3888888888888889,0.2763888888888889,1,0,0,5.81152759998804,number1,True,True,True,16,1,2019_Nov_14_1202,MA_Theta_Exp,3.0.7,59.98397227229475,
video/Experiment/zh_sp07_Ad_Ge_3_NVocInAudio_GlobalThetaInVideo.avi,vocoded,plusVideo,sp07,Ad,Ge,3,3,1,flow/blocks/NVocInAudio_GlobalThetaInVideo_A.csv,,,,,,,,,0,3,3,3,0,24,24,2,,,,,,,,,-0.3958333333333333,0.29768518518518516,1,0,0,4.3444551000138745,call1,-0.005555555555555556,0.24074074074074073,1,0,0,4.763789400050882,colour1,0.4083333333333333,-0.17453703703703705,1,0,0,5.329836399992928,number3,True,True,True,16,1,2019_Nov_14_1202,MA_Theta_Exp,3.0.7,59.98397227229475,
video/Experiment/zh_sp07_Dr_Ge_4_NVocInAudio_GlobalThetaInVideo.avi,vocoded,plusVideo,sp07,Dr,Ge,4,3,1,flow/blocks/NVocInAudio_GlobalThetaInVideo_A.csv,,,,,,,,,0,3,3,3,0,25,25,19,,,,,,,,,-0.35555555555555557,0.09907407407407408,1,0,0,4.729594200034626,call2,-0.016666666666666666,0.3125,1,0,0,5.29863249999471,colour1,0.4444444444444444,-0.3425925925925926,1,0,0,5.915183999983128,number4,True,True,True,16,1,2019_Nov_14_1202,MA_Theta_Exp,3.0.7,59.98397227229475,
video/Experiment/zh_sp07_Ad_Ro_1_NVocInAudio_GlobalThetaInVideo.avi,vocoded,plusVideo,sp07,Ad,Ro,1,3,1,flow/blocks/NVocInAudio_GlobalThetaInVideo_A.csv,,,,,,,,,0,3,3,3,0,26,26,8,,,,,,,,,-0.45694444444444443,0.30416666666666664,1,0,0,4.302871499967296,call1,0.011111111111111112,-0.12175925925925926,1,0,0,8.019379500008654,colour3,0.3972222222222222,0.3055555555555556,1,0,0,8.785791300004348,number1,True,True,True,16,1,2019_Nov_14_1202,MA_Theta_Exp,3.0.7,59.98397227229475,
video/Experiment/zh_sp01_Dr_Ro_3_NVocInAudio_GlobalThetaInVideo.avi,vocoded,plusVideo,sp01,Dr,Ro,3,3,1,flow/blocks/NVocInAudio_GlobalThetaInVideo_A.csv,,,,,,,,,0,3,3,3,0,27,27,26,,,,,,,,,-0.39861111111111114,0.10046296296296296,1,0,0,5.158130900003016,call2,0.03194444444444444,-0.15694444444444444,1,0,0,5.588797500007786,colour3,0.38472222222222224,-0.12453703703703704,1,0,0,6.228317900036927,number3,True,True,True,16,1,2019_Nov_14_1202,MA_Theta_Exp,3.0.7,59.98397227229475,
video/Experiment/zh_sp01_Ad_We_4_NVocInAudio_GlobalThetaInVideo.avi,vocoded,plusVideo,sp01,Ad,We,4,3,1,flow/blocks/NVocInAudio_GlobalThetaInVideo_A.csv,,,,,,,,,0,3,3,3,0,28,28,15,,,,,,,,,-0.325,0.2777777777777778,1,0,0,4.929409299977124,call1,0.044444444444444446,-0.29814814814814816,1,0,0,5.480675099999644,colour4,0.4722222222222222,-0.3592592592592593,1,0,0,5.845408799999859,number4,True,True,True,16,1,2019_Nov_14_1202,MA_Theta_Exp,3.0.7,59.98397227229475,
video/Experiment/zh_sp07_Dr_Ge_3_NVocInAudio_GlobalThetaInVideo.avi,vocoded,plusVideo,sp07,Dr,Ge,3,3,1,flow/blocks/NVocInAudio_GlobalThetaInVideo_A.csv,,,,,,,,,0,3,3,3,0,29,29,18,,,,,,,,,-0.45555555555555555,0.03657407407407407,1,0,0,4.516126499976963,call2,-0.034722222222222224,0.2740740740740741,1,0,0,5.431302200013306,colour1,0.3902777777777778,-0.15231481481481482,1,0,0,5.985268199990969,number3,True,True,True,16,1,2019_Nov_14_1202,MA_Theta_Exp,3.0.7,59.98397227229475,
video/Experiment/zh_sp07_Ad_Ro_3_NVocInAudio_GlobalThetaInVideo.avi,vocoded,plusVideo,sp07,Ad,Ro,3,3,1,flow/blocks/NVocInAudio_GlobalThetaInVideo_A.csv,,,,,,,,,0,3,3,3,0,30,30,10,,,,,,,,,-0.35694444444444445,0.05185185185185185,1,0,0,4.490343000041321,call2,-0.0125,-0.16898148148148148,1,0,0,4.883917999977712,colour3,0.42777777777777776,-0.1388888888888889,1,0,0,5.469961999973748,number3,False,True,True,16,1,2019_Nov_14_1202,MA_Theta_Exp,3.0.7,59.98397227229475,
video/Experiment/zh_sp07_Ad_Ro_4_NVocInAudio_GlobalThetaInVideo.avi,vocoded,plusVideo,sp07,Ad,Ro,4,3,1,flow/blocks/NVocInAudio_GlobalThetaInVideo_A.csv,,,,,,,,,0,3,3,3,0,31,31,11,,,,,,,,,-0.4166666666666667,0.29444444444444445,1,0,0,4.7079686999786645,call1,-0.020833333333333332,-0.10092592592592593,1,0,0,5.320677399984561,colour3,0.41805555555555557,-0.3523148148148148,1,0,0,5.74106590001611,number4,True,True,True,16,1,2019_Nov_14_1202,MA_Theta_Exp,3.0.7,59.98397227229475,
video/Experiment/zh_sp07_Dr_Ge_2_NoThetaInAudio_NoVideo.avi,noTheta,noVideo,sp07,Dr,Ge,2,4,4,flow/blocks/NoThetaInAudio_NoVideo_A.csv,,,,,,,,,0,4,4,4,0,0,0,17,,,,,,,,,-0.3638888888888889,0.3101851851851852,1,0,0,5.16574640001636,call1,0.03611111111111111,-0.10231481481481482,1,0,0,6.548726700013503,colour3,0.42083333333333334,0.30416666666666664,1,0,0,7.096201599983033,number1,False,False,False,16,1,2019_Nov_14_1202,MA_Theta_Exp,3.0.7,59.98397227229475,
video/Experiment/zh_sp07_Ad_Ge_4_NoThetaInAudio_NoVideo.avi,noTheta,noVideo,sp07,Ad,Ge,4,4,4,flow/blocks/NoThetaInAudio_NoVideo_A.csv,,,,,,,,,0,4,4,4,0,1,1,3,,,,,,,,,-0.3486111111111111,0.2763888888888889,1,0,0,4.634728799981531,call1,-0.016666666666666666,0.26805555555555555,1,0,0,5.0656270000035875,colour1,0.42777777777777776,-0.3314814814814815,1,0,0,5.788161200005561,number4,True,True,True,16,1,2019_Nov_14_1202,MA_Theta_Exp,3.0.7,59.98397227229475,
video/Experiment/zh_sp01_Dr_Ro_2_NoThetaInAudio_NoVideo.avi,noTheta,noVideo,sp01,Dr,Ro,2,4,4,flow/blocks/NoThetaInAudio_NoVideo_A.csv,,,,,,,,,0,4,4,4,0,2,2,25,,,,,,,,,-0.39305555555555555,0.30694444444444446,1,0,0,5.336983999994118,call1,0.0625,0.0625,1,0,0,6.25341170001775,colour2,0.40694444444444444,0.03518518518518519,1,0,0,6.740892500034533,number2,False,False,True,16,1,2019_Nov_14_1202,MA_Theta_Exp,3.0.7,59.98397227229475,
video/Experiment/zh_sp01_Dr_We_1_NoThetaInAudio_NoVideo.avi,noTheta,noVideo,sp01,Dr,We,1,4,4,flow/blocks/NoThetaInAudio_NoVideo_A.csv,,,,,,,,,0,4,4,4,0,3,3,28,,,,,,,,,-0.42777777777777776,0.30185185185185187,1,0,0,5.423704000015277,call1,0.019444444444444445,0.26851851851851855,1,0,0,7.260224599973299,colour1,0.3763888888888889,0.26944444444444443,1,0,0,7.677401099994313,number1,False,False,True,16,1,2019_Nov_14_1202,MA_Theta_Exp,3.0.7,59.98397227229475,
video/Experiment/zh_sp07_Dr_Gr_2_NoThetaInAudio_NoVideo.avi,noTheta,noVideo,sp07,Dr,Gr,2,4,4,flow/blocks/NoThetaInAudio_NoVideo_A.csv,,,,,,,,,0,4,4,4,0,4,4,21,,,,,,,,,-0.3625,0.059722222222222225,1,0,0,4.691482900001574,call2,-0.09166666666666666,0.056018518518518516,1,0,0,5.107167099951766,colour2,0.3972222222222222,0.06296296296296296,1,0,0,6.024789299990516,number2,True,True,True,16,1,2019_Nov_14_1202,MA_Theta_Exp,3.0.7,59.98397227229475,
video/Experiment/zh_sp07_Dr_Gr_3_NoThetaInAudio_NoVideo.avi,noTheta,noVideo,sp07,Dr,Gr,3,4,4,flow/blocks/NoThetaInAudio_NoVideo_A.csv,,,,,,,,,0,4,4,4,0,5,5,22,,,,,,,,,-0.3194444444444444,0.3125,1,0,0,4.875475999957416,call1,0.03333333333333333,-0.07916666666666666,1,0,0,5.764282100019045,colour3,0.3625,-0.09675925925925925,1,0,0,6.191937499970663,number3,False,False,True,16,1,2019_Nov_14_1202,MA_Theta_Exp,3.0.7,59.98397227229475,
video/Experiment/zh_sp01_Ad_We_3_NoThetaInAudio_NoVideo.avi,noTheta,noVideo,sp01,Ad,We,3,4,4,flow/blocks/NoThetaInAudio_NoVideo_A.csv,,,,,,,,,0,4,4,4,0,6,6,14,,,,,,,,,-0.4638888888888889,0.07824074074074074,1,0,0,5.162497800018173,call2,-0.027777777777777776,-0.3148148148148148,1,0,0,5.912155600031838,colour4,0.49722222222222223,-0.16064814814814815,1,0,0,6.4253630000166595,number3,False,True,True,16,1,2019_Nov_14_1202,MA_Theta_Exp,3.0.7,59.98397227229475,
video/Experiment/zh_sp07_Ad_Ge_2_NoThetaInAudio_NoVideo.avi,noTheta,noVideo,sp07,Ad,Ge,2,4,4,flow/blocks/NoThetaInAudio_NoVideo_A.csv,,,,,,,,,0,4,4,4,0,7,7,1,,,,,,,,,-0.3597222222222222,0.2833333333333333,1,0,0,4.29711009998573,call1,-0.009722222222222222,-0.3189814814814815,1,0,0,4.946723399974871,colour4,0.45555555555555555,0.0824074074074074,1,0,0,5.43014770001173,number2,True,False,True,16,1,2019_Nov_14_1202,MA_Theta_Exp,3.0.7,59.98397227229475,
video/Experiment/zh_sp07_Ad_Gr_4_NoThetaInAudio_NoVideo.avi,noTheta,noVideo,sp07,Ad,Gr,4,4,4,flow/blocks/NoThetaInAudio_NoVideo_A.csv,,,,,,,,,0,4,4,4,0,8,8,7,,,,,,,,,-0.3333333333333333,0.0962962962962963,1,0,0,4.494674300018232,call2,0.002777777777777778,0.06435185185185185,1,0,0,4.865187800023705,colour2,0.5527777777777778,-0.27037037037037037,1,0,0,5.39884829998482,number4,False,True,True,16,1,2019_Nov_14_1202,MA_Theta_Exp,3.0.7,59.98397227229475,
video/Experiment/zh_sp07_Ad_Ro_1_NoThetaInAudio_NoVideo.avi,noTheta,noVideo,sp07,Ad,Ro,1,4,4,flow/blocks/NoThetaInAudio_NoVideo_A.csv,,,,,,,,,0,4,4,4,0,9,9,8,,,,,,,,,-0.36666666666666664,0.2708333333333333,1,0,0,4.632448200020008,call1,-0.005555555555555556,-0.15925925925925927,1,0,0,5.3686911999830045,colour3,0.37222222222222223,0.2972222222222222,1,0,0,5.995883899973705,number1,True,True,True,16,1,2019_Nov_14_1202,MA_Theta_Exp,3.0.7,59.98397227229475,
video/Experiment/zh_sp01_Ad_Ge_3_NoThetaInAudio_NoVideo.avi,noTheta,noVideo,sp01,Ad,Ge,3,4,4,flow/blocks/NoThetaInAudio_NoVideo_A.csv,,,,,,,,,0,4,4,4,0,10,10,2,,,,,,,,,-0.46805555555555556,0.26296296296296295,1,0,0,4.825698199972976,call1,-0.0125,0.004629629629629629,1,0,0,5.255791699979454,colour2,0.4,-0.1300925925925926,1,0,0,6.104245099995751,number3,True,False,True,16,1,2019_Nov_14_1202,MA_Theta_Exp,3.0.7,59.98397227229475,
video/Experiment/zh_sp07_Dr_Ge_1_NoThetaInAudio_NoVideo.avi,noTheta,noVideo,sp07,Dr,Ge,1,4,4,flow/blocks/NoThetaInAudio_NoVideo_A.csv,,,,,,,,,0,4,4,4,0,11,11,16,,,,,,,,,-0.45694444444444443,0.2791666666666667,1,0,0,4.419267200049944,call1,-0.06111111111111111,0.24212962962962964,1,0,0,4.851712099974975,colour1,0.3597222222222222,0.2611111111111111,1,0,0,5.3382673999876715,number1,False,True,True,16,1,2019_Nov_14_1202,MA_Theta_Exp,3.0.7,59.98397227229475,
video/Experiment/zh_sp07_Ad_Ro_2_NoThetaInAudio_NoVideo.avi,noTheta,noVideo,sp07,Ad,Ro,2,4,4,flow/blocks/NoThetaInAudio_NoVideo_A.csv,,,,,,,,,0,4,4,4,0,12,12,9,,,,,,,,,-0.4027777777777778,0.3277777777777778,1,0,0,4.360382899991237,call1,-0.018055555555555554,-0.10648148148148148,1,0,0,4.958959399955347,colour3,0.3458333333333333,0.12638888888888888,1,0,0,5.462588599999435,number2,True,True,True,16,1,2019_Nov_14_1202,MA_Theta_Exp,3.0.7,59.98397227229475,
video/Experiment/zh_sp07_Ad_Gr_1_NoThetaInAudio_NoVideo.avi,noTheta,noVideo,sp07,Ad,Gr,1,4,4,flow/blocks/NoThetaInAudio_NoVideo_A.csv,,,,,,,,,0,4,4,4,0,13,13,4,,,,,,,,,-0.3472222222222222,0.2569444444444444,1,0,0,6.790865299990401,call1,0.016666666666666666,0.06527777777777778,1,0,0,7.689764100010507,colour2,0.3375,0.2861111111111111,1,0,0,8.258970099966973,number1,True,True,True,16,1,2019_Nov_14_1202,MA_Theta_Exp,3.0.7,59.98397227229475,
video/Experiment/zh_sp01_Dr_Ge_3_NoThetaInAudio_NoVideo.avi,noTheta,noVideo,sp01,Dr,Ge,3,4,4,flow/blocks/NoThetaInAudio_NoVideo_A.csv,,,,,,,,,0,4,4,4,0,14,14,18,,,,,,,,,-0.44305555555555554,0.10601851851851851,1,0,0,5.323906100005843,call2,0.05277777777777778,-0.11203703703703703,1,0,0,7.190044899994973,colour3,0.4583333333333333,-0.1037037037037037,1,0,0,7.675439099955838,number3,True,False,True,16,1,2019_Nov_14_1202,MA_Theta_Exp,3.0.7,59.98397227229475,
video/Experiment/zh_sp01_Dr_Ro_3_NoThetaInAudio_NoVideo.avi,noTheta,noVideo,sp01,Dr,Ro,3,4,4,flow/blocks/NoThetaInAudio_NoVideo_A.csv,,,,,,,,,0,4,4,4,0,15,15,26,,,,,,,,,-0.3486111111111111,0.11805555555555555,1,0,0,4.939944399986416,call2,0.034722222222222224,0.2777777777777778,1,0,0,6.442796099989209,colour1,0.4125,-0.04583333333333333,1,0,0,6.972695800010115,number3,True,False,True,16,1,2019_Nov_14_1202,MA_Theta_Exp,3.0.7,59.98397227229475,
video/Experiment/zh_sp01_Dr_We_2_NoThetaInAudio_NoVideo.avi,noTheta,noVideo,sp01,Dr,We,2,4,4,flow/blocks/NoThetaInAudio_NoVideo_A.csv,,,,,,,,,0,4,4,4,0,16,16,29,,,,,,,,,-0.42083333333333334,0.08657407407407407,1,0,0,5.210459600028116,call2,0.03333333333333333,-0.31666666666666665,1,0,0,5.975922199955676,colour4,0.40694444444444444,0.07222222222222222,1,0,0,6.543914399982896,number2,True,True,True,16,1,2019_Nov_14_1202,MA_Theta_Exp,3.0.7,59.98397227229475,
video/Experiment/zh_sp07_Dr_We_4_NoThetaInAudio_NoVideo.avi,noTheta,noVideo,sp07,Dr,We,4,4,4,flow/blocks/NoThetaInAudio_NoVideo_A.csv,,,,,,,,,0,4,4,4,0,17,17,31,,,,,,,,,-0.41388888888888886,0.05462962962962963,1,0,0,4.683714799990412,call2,0.07083333333333333,-0.33425925925925926,1,0,0,5.273391299997456,colour4,0.3888888888888889,-0.30416666666666664,1,0,0,5.652036800049245,number4,True,True,True,16,1,2019_Nov_14_1202,MA_Theta_Exp,3.0.7,59.98397227229475,
video/Experiment/zh_sp01_Ad_Ro_4_NoThetaInAudio_NoVideo.avi,noTheta,noVideo,sp01,Ad,Ro,4,4,4,flow/blocks/NoThetaInAudio_NoVideo_A.csv,,,,,,,,,0,4,4,4,0,18,18,11,,,,,,,,,-0.38472222222222224,0.2708333333333333,1,0,0,5.444630599988159,call1,-0.02638888888888889,-0.1439814814814815,1,0,0,6.046666199981701,colour3,0.425,-0.35694444444444445,1,0,0,6.5611156999948435,number4,True,True,True,16,1,2019_Nov_14_1202,MA_Theta_Exp,3.0.7,59.98397227229475,
video/Experiment/zh_sp01_Dr_Ro_4_NoThetaInAudio_NoVideo.avi,noTheta,noVideo,sp01,Dr,Ro,4,4,4,flow/blocks/NoThetaInAudio_NoVideo_A.csv,,,,,,,,,0,4,4,4,0,19,19,27,,,,,,,,,-0.2513888888888889,0.07824074074074074,1,0,0,4.964029800030403,call2,-0.0125,-0.17731481481481481,1,0,0,5.751678299973719,colour3,0.41944444444444445,-0.3675925925925926,1,0,0,6.152365799993277,number4,True,True,True,16,1,2019_Nov_14_1202,MA_Theta_Exp,3.0.7,59.98397227229475,
video/Experiment/zh_sp07_Dr_Gr_1_NoThetaInAudio_NoVideo.avi,noTheta,noVideo,sp07,Dr,Gr,1,4,4,flow/blocks/NoThetaInAudio_NoVideo_A.csv,,,,,,,,,0,4,4,4,0,20,20,20,,,,,,,,,-0.3541666666666667,0.30277777777777776,1,0,0,4.35767640004633,call1,-0.04027777777777778,0.14722222222222223,1,0,0,4.804503399995156,colour2,0.3472222222222222,0.3111111111111111,1,0,0,5.469219599966891,number1,False,True,True,16,1,2019_Nov_14_1202,MA_Theta_Exp,3.0.7,59.98397227229475,
video/Experiment/zh_sp01_Dr_Gr_4_NoThetaInAudio_NoVideo.avi,noTheta,noVideo,sp01,Dr,Gr,4,4,4,flow/blocks/NoThetaInAudio_NoVideo_A.csv,,,,,,,,,0,4,4,4,0,21,21,23,,,,,,,,,-0.41388888888888886,0.06944444444444445,1,0,0,5.239088399976026,call2,-0.034722222222222224,0.10694444444444444,1,0,0,5.656647700001486,colour2,0.4513888888888889,-0.36203703703703705,1,0,0,6.243810800020583,number4,True,True,True,16,1,2019_Nov_14_1202,MA_Theta_Exp,3.0.7,59.98397227229475,
video/Experiment/zh_sp01_Ad_Ro_3_NoThetaInAudio_NoVideo.avi,noTheta,noVideo,sp01,Ad,Ro,3,4,4,flow/blocks/NoThetaInAudio_NoVideo_A.csv,,,,,,,,,0,4,4,4,0,22,22,10,,,,,,,,,-0.43194444444444446,0.3680555555555556,1,0,0,5.525447299994994,call1,-0.006944444444444444,-0.10092592592592593,1,0,0,6.095163900055923,colour3,0.4013888888888889,-0.3106481481481482,1,0,0,6.611305100028403,number4,True,True,False,16,1,2019_Nov_14_1202,MA_Theta_Exp,3.0.7,59.98397227229475,
video/Experiment/zh_sp07_Dr_Ro_1_NoThetaInAudio_NoVideo.avi,noTheta,noVideo,sp07,Dr,Ro,1,4,4,flow/blocks/NoThetaInAudio_NoVideo_A.csv,,,,,,,,,0,4,4,4,0,23,23,24,,,,,,,,,-0.39166666666666666,0.12129629629629629,1,0,0,4.636613600014243,call2,0.019444444444444445,-0.13194444444444445,1,0,0,5.636337400006596,colour3,0.35694444444444445,0.300462962962963,1,0,0,6.2203979000332765,number1,True,True,True,16,1,2019_Nov_14_1202,MA_Theta_Exp,3.0.7,59.98397227229475,
video/Experiment/zh_sp07_Dr_Ge_4_NoThetaInAudio_NoVideo.avi,noTheta,noVideo,sp07,Dr,Ge,4,4,4,flow/blocks/NoThetaInAudio_NoVideo_A.csv,,,,,,,,,0,4,4,4,0,24,24,19,,,,,,,,,-0.35,0.3236111111111111,1,0,0,4.606687600025907,call1,0.022222222222222223,0.14305555555555555,1,0,0,5.489785099984147,colour2,0.3875,-0.29398148148148145,1,0,0,6.612875899998471,number4,False,False,True,16,1,2019_Nov_14_1202,MA_Theta_Exp,3.0.7,59.98397227229475,
video/Experiment/zh_sp07_Ad_Ge_1_NoThetaInAudio_NoVideo.avi,noTheta,noVideo,sp07,Ad,Ge,1,4,4,flow/blocks/NoThetaInAudio_NoVideo_A.csv,,,,,,,,,0,4,4,4,0,25,25,0,,,,,,,,,-0.3875,0.2574074074074074,1,0,0,4.5144017999991775,call1,0.04722222222222222,-0.1597222222222222,1,0,0,5.199419699958526,colour3,0.3763888888888889,0.2101851851851852,1,0,0,5.771498200017959,number1,True,False,True,16,1,2019_Nov_14_1202,MA_Theta_Exp,3.0.7,59.98397227229475,
video/Experiment/zh_sp07_Ad_Gr_2_NoThetaInAudio_NoVideo.avi,noTheta,noVideo,sp07,Ad,Gr,2,4,4,flow/blocks/NoThetaInAudio_NoVideo_A.csv,,,,,,,,,0,4,4,4,0,26,26,5,,,,,,,,,-0.33055555555555555,0.27824074074074073,1,0,0,4.459692100004759,call1,0.001388888888888889,0.044444444444444446,1,0,0,5.095927499991376,colour2,0.4083333333333333,0.3013888888888889,1,0,0,5.607940000016242,number1,True,True,False,16,1,2019_Nov_14_1202,MA_Theta_Exp,3.0.7,59.98397227229475,
video/Experiment/zh_sp01_Ad_We_1_NoThetaInAudio_NoVideo.avi,noTheta,noVideo,sp01,Ad,We,1,4,4,flow/blocks/NoThetaInAudio_NoVideo_A.csv,,,,,,,,,0,4,4,4,0,27,27,12,,,,,,,,,-0.36666666666666664,0.30972222222222223,1,0,0,4.998635300027672,call1,0.016666666666666666,-0.27175925925925926,1,0,0,5.602346499974374,colour4,0.3388888888888889,0.30694444444444446,1,0,0,6.263345899991691,number1,True,True,True,16,1,2019_Nov_14_1202,MA_Theta_Exp,3.0.7,59.98397227229475,
video/Experiment/zh_sp01_Ad_We_4_NoThetaInAudio_NoVideo.avi,noTheta,noVideo,sp01,Ad,We,4,4,4,flow/blocks/NoThetaInAudio_NoVideo_A.csv,,,,,,,,,0,4,4,4,0,28,28,15,,,,,,,,,-0.4,0.3625,1,0,0,4.918823100044392,call1,-0.009722222222222222,-0.33287037037037037,1,0,0,5.565736400021706,colour4,0.36944444444444446,-0.3189814814814815,1,0,0,5.967928799975198,number4,True,True,True,16,1,2019_Nov_14_1202,MA_Theta_Exp,3.0.7,59.98397227229475,
video/Experiment/zh_sp01_Ad_We_2_NoThetaInAudio_NoVideo.avi,noTheta,noVideo,sp01,Ad,We,2,4,4,flow/blocks/NoThetaInAudio_NoVideo_A.csv,,,,,,,,,0,4,4,4,0,29,29,13,,,,,,,,,-0.4305555555555556,0.30833333333333335,1,0,0,5.142070000001695,call1,0.009722222222222222,-0.32037037037037036,1,0,0,5.779011700011324,colour4,0.4111111111111111,0.044444444444444446,1,0,0,6.343838999979198,number2,True,True,True,16,1,2019_Nov_14_1202,MA_Theta_Exp,3.0.7,59.98397227229475,
video/Experiment/zh_sp01_Ad_Gr_3_NoThetaInAudio_NoVideo.avi,noTheta,noVideo,sp01,Ad,Gr,3,4,4,flow/blocks/NoThetaInAudio_NoVideo_A.csv,,,,,,,,,0,4,4,4,0,30,30,6,,,,,,,,,-0.31666666666666665,0.2916666666666667,1,0,0,5.022189699986484,call1,-0.07222222222222222,0.050462962962962966,1,0,0,5.523565199982841,colour2,0.4027777777777778,-0.16342592592592592,1,0,0,6.024673200037796,number3,True,True,True,16,1,2019_Nov_14_1202,MA_Theta_Exp,3.0.7,59.98397227229475,
video/Experiment/zh_sp01_Dr_We_3_NoThetaInAudio_NoVideo.avi,noTheta,noVideo,sp01,Dr,We,3,4,4,flow/blocks/NoThetaInAudio_NoVideo_A.csv,,,,,,,,,0,4,4,4,0,31,31,30,,,,,,,,,-0.4222222222222222,0.11527777777777778,1,0,0,4.846375499968417,call2,0.004166666666666667,-0.28425925925925927,1,0,0,5.416009299980942,colour4,0.4027777777777778,-0.07916666666666666,1,0,0,5.880231200018898,number3,True,True,True,16,1,2019_Nov_14_1202,MA_Theta_Exp,3.0.7,59.98397227229475,
video/Experiment/zh_sp01_Ti_We_2_NVocInAudio_GlobalThetaInVideo.avi,vocoded,plusVideo,sp01,Ti,We,2,0,1,flow/blocks/NVocInAudio_GlobalThetaInVideo_B.csv,,,,,,,,,,,,,,,,,0,0,0,0,0,0,0,13,-0.4634259259259259,-0.0625,1,0,0,5.47681730001932,call3,0.040740740740740744,-0.34953703703703703,1,0,0,6.27112719998695,colour4,0.4060185185185185,0.06296296296296296,1,0,0,9.186051300028339,number2,True,True,True,16,1,2019_Nov_14_1202,MA_Theta_Exp,3.0.7,59.98397227229475,
video/Experiment/zh_sp07_Un_Ge_1_NVocInAudio_GlobalThetaInVideo.avi,vocoded,plusVideo,sp07,Un,Ge,1,0,1,flow/blocks/NVocInAudio_GlobalThetaInVideo_B.csv,,,,,,,,,,,,,,,,,0,0,0,0,0,1,1,16,-0.3731481481481482,-0.30925925925925923,1,0,0,4.51517019997118,call4,-0.017592592592592594,0.3138888888888889,1,0,0,5.802888400037773,colour1,0.3365740740740741,0.3074074074074074,1,0,0,6.203312800033018,number1,True,True,True,16,1,2019_Nov_14_1202,MA_Theta_Exp,3.0.7,59.98397227229475,
video/Experiment/zh_sp01_Un_Ro_3_NVocInAudio_GlobalThetaInVideo.avi,vocoded,plusVideo,sp01,Un,Ro,3,0,1,flow/blocks/NVocInAudio_GlobalThetaInVideo_B.csv,,,,,,,,,,,,,,,,,0,0,0,0,0,2,2,26,-0.4162037037037037,-0.2662037037037037,1,0,0,5.4585358000476845,call4,0.02962962962962963,0.2791666666666667,1,0,0,6.5782072999863885,colour1,0.44074074074074077,-0.1412037037037037,1,0,0,7.190938999992795,number3,True,False,True,16,1,2019_Nov_14_1202,MA_Theta_Exp,3.0.7,59.98397227229475,
video/Experiment/zh_sp07_Ti_Gr_3_NVocInAudio_GlobalThetaInVideo.avi,vocoded,plusVideo,sp07,Ti,Gr,3,0,1,flow/blocks/NVocInAudio_GlobalThetaInVideo_B.csv,,,,,,,,,,,,,,,,,0,0,0,0,0,3,3,6,-0.399537037037037,-0.1537037037037037,1,0,0,5.059971500013489,call3,-0.003703703703703704,0.07083333333333333,1,0,0,5.565997400030028,colour2,0.4046296296296296,-0.1259259259259259,1,0,0,6.012336199986748,number3,True,True,True,16,1,2019_Nov_14_1202,MA_Theta_Exp,3.0.7,59.98397227229475,
video/Experiment/zh_sp07_Ti_We_3_NVocInAudio_GlobalThetaInVideo.avi,vocoded,plusVideo,sp07,Ti,We,3,0,1,flow/blocks/NVocInAudio_GlobalThetaInVideo_B.csv,,,,,,,,,,,,,,,,,0,0,0,0,0,4,4,14,-0.36898148148148147,-0.12037037037037036,1,0,0,6.5798463999526575,call3,0.008796296296296297,0.08472222222222223,1,0,0,7.579758299980313,colour2,0.36018518518518516,-0.2916666666666667,1,0,0,8.914429099997506,number4,True,False,False,16,1,2019_Nov_14_1202,MA_Theta_Exp,3.0.7,59.98397227229475,
video/Experiment/zh_sp07_Un_Gr_3_NVocInAudio_GlobalThetaInVideo.avi,vocoded,plusVideo,sp07,Un,Gr,3,0,1,flow/blocks/NVocInAudio_GlobalThetaInVideo_B.csv,,,,,,,,,,,,,,,,,0,0,0,0,0,5,5,22,-0.4875,-0.36064814814814816,1,0,0,4.712497600005008,call4,-0.03194444444444444,0.08796296296296297,1,0,0,5.880609200045001,colour2,0.3819444444444444,-0.1398148148148148,1,0,0,6.311666900001001,number3,True,True,True,16,1,2019_Nov_14_1202,MA_Theta_Exp,3.0.7,59.98397227229475,
video/Experiment/zh_sp07_Ti_Ro_2_NVocInAudio_GlobalThetaInVideo.avi,vocoded,plusVideo,sp07,Ti,Ro,2,0,1,flow/blocks/NVocInAudio_GlobalThetaInVideo_B.csv,,,,,,,,,,,,,,,,,0,0,0,0,0,6,6,9,-0.38055555555555554,-0.08981481481481482,1,0,0,4.590213900024537,call3,-0.05277777777777778,0.06296296296296296,1,0,0,7.059353899967391,colour2,0.3875,0.06574074074074074,1,0,0,7.849225500016473,number2,True,False,True,16,1,2019_Nov_14_1202,MA_Theta_Exp,3.0.7,59.98397227229475,
video/Experiment/zh_sp01_Un_Ge_3_NVocInAudio_GlobalThetaInVideo.avi,vocoded,plusVideo,sp01,Un,Ge,3,0,1,flow/blocks/NVocInAudio_GlobalThetaInVideo_B.csv,,,,,,,,,,,,,,,,,0,0,0,0,0,7,7,18,-0.4930555555555556,-0.32916666666666666,1,0,0,5.316918099997565,call4,-0.06805555555555555,0.12361111111111112,1,0,0,6.334584700001869,colour2,-0.12777777777777777,0.3236111111111111,1,0,0,7.471124899981078,number3,True,False,True,16,1,2019_Nov_14_1202,MA_Theta_Exp,3.0.7,59.98397227229475,
video/Experiment/zh_sp01_Un_Gr_1_NVocInAudio_GlobalThetaInVideo.avi,vocoded,plusVideo,sp01,Un,Gr,1,0,1,flow/blocks/NVocInAudio_GlobalThetaInVideo_B.csv,,,,,,,,,,,,,,,,,0,0,0,0,0,8,8,20,-0.3875,-0.2773148148148148,1,0,0,5.382587400032207,call4,0.025,0.09166666666666666,1,0,0,6.049394599976949,colour2,0.4,0.3736111111111111,1,0,0,6.4776257000048645,number1,True,True,True,16,1,2019_Nov_14_1202,MA_Theta_Exp,3.0.7,59.98397227229475,
video/Experiment/zh_sp07_Ti_We_1_NVocInAudio_GlobalThetaInVideo.avi,vocoded,plusVideo,sp07,Ti,We,1,0,1,flow/blocks/NVocInAudio_GlobalThetaInVideo_B.csv,,,,,,,,,,,,,,,,,0,0,0,0,0,9,9,12,-0.3958333333333333,-0.13333333333333333,1,0,0,4.710980000032578,call3,0.10555555555555556,-0.3912037037037037,1,0,0,5.180370699963532,colour4,0.4111111111111111,0.28055555555555556,1,0,0,6.256835800013505,number1,True,True,True,16,1,2019_Nov_14_1202,MA_Theta_Exp,3.0.7,59.98397227229475,
video/Experiment/zh_sp01_Ti_Ro_3_NVocInAudio_GlobalThetaInVideo.avi,vocoded,plusVideo,sp01,Ti,Ro,3,0,1,flow/blocks/NVocInAudio_GlobalThetaInVideo_B.csv,,,,,,,,,,,,,,,,,0,0,0,0,0,10,10,10,-0.4152777777777778,-0.09398148148148149,1,0,0,4.8055029999814,call3,-0.005555555555555556,-0.12037037037037036,1,0,0,5.288699400029145,colour3,0.4486111111111111,-0.13287037037037036,1,0,0,6.520108399970923,number3,True,True,True,16,1,2019_Nov_14_1202,MA_Theta_Exp,3.0.7,59.98397227229475,
video/Experiment/zh_sp01_Un_Ro_4_NVocInAudio_GlobalThetaInVideo.avi,vocoded,plusVideo,sp01,Un,Ro,4,0,1,flow/blocks/NVocInAudio_GlobalThetaInVideo_B.csv,,,,,,,,,,,,,,,,,0,0,0,0,0,11,11,27,-0.3736111111111111,-0.3148148148148148,1,0,0,5.16567610000493,call4,0.03888888888888889,-0.18425925925925926,1,0,0,6.013107799983118,colour3,0.41944444444444445,-0.31342592592592594,1,0,0,6.56409270002041,number4,True,True,True,16,1,2019_Nov_14_1202,MA_Theta_Exp,3.0.7,59.98397227229475,
video/Experiment/zh_sp01_Un_We_1_NVocInAudio_GlobalThetaInVideo.avi,vocoded,plusVideo,sp01,Un,We,1,0,1,flow/blocks/NVocInAudio_GlobalThetaInVideo_B.csv,,,,,,,,,,,,,,,,,0,0,0,0,0,12,12,28,-0.40555555555555556,-0.3314814814814815,1,0,0,5.2899843999766745,call4,-0.04027777777777778,-0.33564814814814814,1,0,0,5.715113799960818,colour4,0.46111111111111114,0.35138888888888886,1,0,0,6.839550000033341,number1,True,True,True,16,1,2019_Nov_14_1202,MA_Theta_Exp,3.0.7,59.98397227229475,
video/Experiment/zh_sp07_Ti_Ge_3_NVocInAudio_GlobalThetaInVideo.avi,vocoded,plusVideo,sp07,Ti,Ge,3,0,1,flow/blocks/NVocInAudio_GlobalThetaInVideo_B.csv,,,,,,,,,,,,,,,,,0,0,0,0,0,13,13,2,-0.3763888888888889,-0.15416666666666667,1,0,0,4.663159999996424,call3,0.0625,0.30416666666666664,1,0,0,5.479912099952344,colour1,0.3333333333333333,-0.14027777777777778,1,0,0,6.444468800036702,number3,True,True,True,16,1,2019_Nov_14_1202,MA_Theta_Exp,3.0.7,59.98397227229475,
video/Experiment/zh_sp01_Ti_Ro_4_NVocInAudio_GlobalThetaInVideo.avi,vocoded,plusVideo,sp01,Ti,Ro,4,0,1,flow/blocks/NVocInAudio_GlobalThetaInVideo_B.csv,,,,,,,,,,,,,,,,,0,0,0,0,0,14,14,11,-0.4222222222222222,-0.11898148148148148,1,0,0,5.26973800000269,call3,0.04583333333333333,-0.06898148148148148,1,0,0,7.665587899973616,colour3,0.35555555555555557,-0.3509259259259259,1,0,0,8.21713499998441,number4,True,True,True,16,1,2019_Nov_14_1202,MA_Theta_Exp,3.0.7,59.98397227229475,
video/Experiment/zh_sp01_Un_Ro_2_NVocInAudio_GlobalThetaInVideo.avi,vocoded,plusVideo,sp01,Un,Ro,2,0,1,flow/blocks/NVocInAudio_GlobalThetaInVideo_B.csv,,,,,,,,,,,,,,,,,0,0,0,0,0,15,15,25,-0.375,-0.36342592592592593,1,0,0,5.374202399980277,call4,0.12638888888888888,-0.08888888888888889,1,0,0,5.842255200026557,colour3,0.4597222222222222,0.12129629629629629,1,0,0,6.671294100000523,number2,True,True,True,16,1,2019_Nov_14_1202,MA_Theta_Exp,3.0.7,59.98397227229475,
video/Experiment/zh_sp01_Un_We_3_NVocInAudio_GlobalThetaInVideo.avi,vocoded,plusVideo,sp01,Un,We,3,0,1,flow/blocks/NVocInAudio_GlobalThetaInVideo_B.csv,,,,,,,,,,,,,,,,,0,0,0,0,0,16,16,30,-0.39444444444444443,-0.35,1,0,0,5.218369200010784,call4,0.009722222222222222,-0.30787037037037035,1,0,0,5.914365600037854,colour4,0.45555555555555555,-0.11388888888888889,1,0,0,6.3813694000127725,number3,True,True,True,16,1,2019_Nov_14_1202,MA_Theta_Exp,3.0.7,59.98397227229475,
video/Experiment/zh_sp07_Un_We_2_NVocInAudio_GlobalThetaInVideo.avi,vocoded,plusVideo,sp07,Un,We,2,0,1,flow/blocks/NVocInAudio_GlobalThetaInVideo_B.csv,,,,,,,,,,,,,,,,,0,0,0,0,0,17,17,29,-0.39444444444444443,-0.2967592592592593,1,0,0,4.367467099975329,call4,-0.04722222222222222,-0.31203703703703706,1,0,0,4.7738612000248395,colour4,0.3861111111111111,-0.003703703703703704,1,0,0,5.305179399962071,number2,True,True,True,16,1,2019_Nov_14_1202,MA_Theta_Exp,3.0.7,59.98397227229475,
video/Experiment/zh_sp07_Un_Gr_4_NVocInAudio_GlobalThetaInVideo.avi,vocoded,plusVideo,sp07,Un,Gr,4,0,1,flow/blocks/NVocInAudio_GlobalThetaInVideo_B.csv,,,,,,,,,,,,,,,,,0,0,0,0,0,18,18,23,-0.41805555555555557,-0.3388888888888889,1,0,0,4.36563140002545,call4,0.019444444444444445,0.11388888888888889,1,0,0,4.832771299988963,colour2,0.3888888888888889,-0.32592592592592595,1,0,0,5.329556800017599,number4,True,True,True,16,1,2019_Nov_14_1202,MA_Theta_Exp,3.0.7,59.98397227229475,
video/Experiment/zh_sp01_Ti_Ge_2_NVocInAudio_GlobalThetaInVideo.avi,vocoded,plusVideo,sp01,Ti,Ge,2,0,1,flow/blocks/NVocInAudio_GlobalThetaInVideo_B.csv,,,,,,,,,,,,,,,,,0,0,0,0,0,19,19,1,-0.44027777777777777,-0.12222222222222222,1,0,0,5.094930000021122,call3,0.05694444444444444,0.32546296296296295,1,0,0,5.979032699950039,colour1,0.3861111111111111,0.0712962962962963,1,0,0,6.533969100040849,number2,True,True,True,16,1,2019_Nov_14_1202,MA_Theta_Exp,3.0.7,59.98397227229475,
video/Experiment/zh_sp07_Un_Ge_2_NVocInAudio_GlobalThetaInVideo.avi,vocoded,plusVideo,sp07,Un,Ge,2,0,1,flow/blocks/NVocInAudio_GlobalThetaInVideo_B.csv,,,,,,,,,,,,,,,,,0,0,0,0,0,20,20,17,-0.3625,-0.31203703703703706,1,0,0,4.9979438000009395,call4,0.016666666666666666,0.2847222222222222,1,0,0,5.8809895000304095,colour1,0.4111111111111111,0.05185185185185185,1,0,0,6.495535699999891,number2,True,True,True,16,1,2019_Nov_14_1202,MA_Theta_Exp,3.0.7,59.98397227229475,
video/Experiment/zh_sp07_Ti_Ge_4_NVocInAudio_GlobalThetaInVideo.avi,vocoded,plusVideo,sp07,Ti,Ge,4,0,1,flow/blocks/NVocInAudio_GlobalThetaInVideo_B.csv,,,,,,,,,,,,,,,,,0,0,0,0,0,21,21,3,-0.45555555555555555,-0.11898148148148148,1,0,0,4.43446680001216,call3,0.009722222222222222,0.30416666666666664,1,0,0,4.9787702999892645,colour1,0.4041666666666667,-0.324537037037037,1,0,0,5.567303899966646,number4,True,True,True,16,1,2019_Nov_14_1202,MA_Theta_Exp,3.0.7,59.98397227229475,
video/Experiment/zh_sp07_Ti_Gr_4_NVocInAudio_GlobalThetaInVideo.avi,vocoded,plusVideo,sp07,Ti,Gr,4,0,1,flow/blocks/NVocInAudio_GlobalThetaInVideo_B.csv,,,,,,,,,,,,,,,,,0,0,0,0,0,22,22,7,-0.4222222222222222,-0.10787037037037037,1,0,0,4.728552499960642,call3,-0.020833333333333332,0.06388888888888888,1,0,0,5.131584000017028,colour2,0.42777777777777776,-0.3592592592592593,1,0,0,5.67792190000182,number4,True,True,True,16,1,2019_Nov_14_1202,MA_Theta_Exp,3.0.7,59.98397227229475,
video/Experiment/zh_sp01_Un_Ge_4_NVocInAudio_GlobalThetaInVideo.avi,vocoded,plusVideo,sp01,Un,Ge,4,0,1,flow/blocks/NVocInAudio_GlobalThetaInVideo_B.csv,,,,,,,,,,,,,,,,,0,0,0,0,0,23,23,19,-0.4847222222222222,-0.3453703703703704,1,0,0,5.275140200043097,call4,-0.013888888888888888,0.3,1,0,0,6.076401799975429,colour1,0.4166666666666667,-0.3287037037037037,1,0,0,6.68203679996077,number4,True,True,True,16,1,2019_Nov_14_1202,MA_Theta_Exp,3.0.7,59.98397227229475,
video/Experiment/zh_sp07_Ti_Gr_2_NVocInAudio_GlobalThetaInVideo.avi,vocoded,plusVideo,sp07,Ti,Gr,2,0,1,flow/blocks/NVocInAudio_GlobalThetaInVideo_B.csv,,,,,,,,,,,,,,,,,0,0,0,0,0,24,24,5,-0.37222222222222223,-0.06898148148148148,1,0,0,4.563417900004424,call3,0.001388888888888889,0.09444444444444444,1,0,0,4.965667100041173,colour2,0.4263888888888889,0.11990740740740741,1,0,0,5.331928100029472,number2,True,True,True,16,1,2019_Nov_14_1202,MA_Theta_Exp,3.0.7,59.98397227229475,
video/Experiment/zh_sp07_Ti_We_4_NVocInAudio_GlobalThetaInVideo.avi,vocoded,plusVideo,sp07,Ti,We,4,0,1,flow/blocks/NVocInAudio_GlobalThetaInVideo_B.csv,,,,,,,,,,,,,,,,,0,0,0,0,0,25,25,15,-0.4361111111111111,-0.13564814814814816,1,0,0,4.76903049997054,call3,-0.05,-0.3939814814814815,1,0,0,5.2188753000227734,colour4,0.4166666666666667,-0.31527777777777777,1,0,0,5.7347558999899775,number4,True,True,True,16,1,2019_Nov_14_1202,MA_Theta_Exp,3.0.7,59.98397227229475,
video/Experiment/zh_sp01_Ti_Ro_1_NVocInAudio_GlobalThetaInVideo.avi,vocoded,plusVideo,sp01,Ti,Ro,1,0,1,flow/blocks/NVocInAudio_GlobalThetaInVideo_B.csv,,,,,,,,,,,,,,,,,0,0,0,0,0,26,26,8,-0.4166666666666667,-0.11944444444444445,1,0,0,5.427211200003512,call3,0.03194444444444444,-0.08287037037037037,1,0,0,5.914937399968039,colour3,0.3541666666666667,0.3282407407407407,1,0,0,6.526487399998587,number1,True,True,True,16,1,2019_Nov_14_1202,MA_Theta_Exp,3.0.7,59.98397227229475,
video/Experiment/zh_sp07_Un_Gr_2_NVocInAudio_GlobalThetaInVideo.avi,vocoded,plusVideo,sp07,Un,Gr,2,0,1,flow/blocks/NVocInAudio_GlobalThetaInVideo_B.csv,,,,,,,,,,,,,,,,,0,0,0,0,0,27,27,21,-0.41388888888888886,-0.2912037037037037,1,0,0,4.73190600000089,call4,0.018055555555555554,0.10833333333333334,1,0,0,5.851000599970575,colour2,0.3888888888888889,0.049074074074074076,1,0,0,6.481452400039416,number2,True,True,True,16,1,2019_Nov_14_1202,MA_Theta_Exp,3.0.7,59.98397227229475,
video/Experiment/zh_sp07_Un_Ro_1_NVocInAudio_GlobalThetaInVideo.avi,vocoded,plusVideo,sp07,Un,Ro,1,0,1,flow/blocks/NVocInAudio_GlobalThetaInVideo_B.csv,,,,,,,,,,,,,,,,,0,0,0,0,0,28,28,24,-0.3736111111111111,-0.28564814814814815,1,0,0,4.512076599989086,call4,-0.019444444444444445,-0.1,1,0,0,4.925944299960975,colour3,0.38472222222222224,0.3138888888888889,1,0,0,5.407610800000839,number1,True,True,True,16,1,2019_Nov_14_1202,MA_Theta_Exp,3.0.7,59.98397227229475,
video/Experiment/zh_sp01_Ti_Ge_1_NVocInAudio_GlobalThetaInVideo.avi,vocoded,plusVideo,sp01,Ti,Ge,1,0,1,flow/blocks/NVocInAudio_GlobalThetaInVideo_B.csv,,,,,,,,,,,,,,,,,0,0,0,0,0,29,29,0,-0.4375,-0.11203703703703703,1,0,0,5.562543299980462,call3,-0.0375,0.2638888888888889,1,0,0,6.075452400022186,colour1,0.39444444444444443,0.26435185185185184,1,0,0,6.625349399982952,number1,True,True,True,16,1,2019_Nov_14_1202,MA_Theta_Exp,3.0.7,59.98397227229475,
video/Experiment/zh_sp01_Ti_Gr_1_NVocInAudio_GlobalThetaInVideo.avi,vocoded,plusVideo,sp01,Ti,Gr,1,0,1,flow/blocks/NVocInAudio_GlobalThetaInVideo_B.csv,,,,,,,,,,,,,,,,,0,0,0,0,0,30,30,4,-0.3819444444444444,-0.11666666666666667,1,0,0,4.988507699978072,call3,-0.05138888888888889,0.10555555555555556,1,0,0,5.3802876000409015,colour2,0.47638888888888886,0.32222222222222224,1,0,0,5.828175799979363,number1,True,True,True,16,1,2019_Nov_14_1202,MA_Theta_Exp,3.0.7,59.98397227229475,
video/Experiment/zh_sp01_Un_We_4_NVocInAudio_GlobalThetaInVideo.avi,vocoded,plusVideo,sp01,Un,We,4,0,1,flow/blocks/NVocInAudio_GlobalThetaInVideo_B.csv,,,,,,,,,,,,,,,,,0,0,0,0,0,31,31,31,-0.31666666666666665,-0.2708333333333333,1,0,0,4.817853699962143,call4,-0.015277777777777777,-0.2953703703703704,1,0,0,5.278453700011596,colour4,0.4444444444444444,-0.29953703703703705,1,0,0,5.727164899988566,number4,True,True,True,16,1,2019_Nov_14_1202,MA_Theta_Exp,3.0.7,59.98397227229475,
video/Experiment/zh_sp07_Un_Ge_4_NoThetaInAudio_NoVideo.avi,noTheta,noVideo,sp07,Un,Ge,4,1,4,flow/blocks/NoThetaInAudio_NoVideo_B.csv,,,,,,,,,,,,,,,,,0,1,1,1,0,0,0,19,-0.3472222222222222,-0.11203703703703703,1,0,0,5.359889200015459,call3,0.004166666666666667,-0.017592592592592594,1,0,0,6.47963419998996,colour3,0.39166666666666666,-0.11342592592592593,1,0,0,7.129276199964806,number3,False,False,False,16,1,2019_Nov_14_1202,MA_Theta_Exp,3.0.7,59.98397227229475,
video/Experiment/zh_sp01_Ti_Ge_4_NoThetaInAudio_NoVideo.avi,noTheta,noVideo,sp01,Ti,Ge,4,1,4,flow/blocks/NoThetaInAudio_NoVideo_B.csv,,,,,,,,,,,,,,,,,0,1,1,1,0,1,1,3,-0.42083333333333334,-0.09722222222222222,1,0,0,5.010522199969273,call3,0.013888888888888888,0.2652777777777778,1,0,0,5.542982900049537,colour1,0.4125,-0.3037037037037037,1,0,0,6.149382499977946,number4,True,True,True,16,1,2019_Nov_14_1202,MA_Theta_Exp,3.0.7,59.98397227229475,
video/Experiment/zh_sp01_Ti_Ge_2_NoThetaInAudio_NoVideo.avi,noTheta,noVideo,sp01,Ti,Ge,2,1,4,flow/blocks/NoThetaInAudio_NoVideo_B.csv,,,,,,,,,,,,,,,,,0,1,1,1,0,2,2,1,-0.5263888888888889,-0.3314814814814815,1,0,0,5.298289099999238,call4,0.06944444444444445,0.26944444444444443,1,0,0,7.414491000003181,colour1,0.3625,0.012962962962962963,1,0,0,7.917796600027941,number2,False,True,True,16,1,2019_Nov_14_1202,MA_Theta_Exp,3.0.7,59.98397227229475,
video/Experiment/zh_sp01_Un_Ro_2_NoThetaInAudio_NoVideo.avi,noTheta,noVideo,sp01,Un,Ro,2,1,4,flow/blocks/NoThetaInAudio_NoVideo_B.csv,,,,,,,,,,,,,,,,,0,1,1,1,0,3,3,25,-0.3333333333333333,-0.2759259259259259,1,0,0,5.520781000028364,call4,-0.043055555555555555,0.3194444444444444,1,0,0,6.251297099981457,colour1,0.3736111111111111,0.09027777777777778,1,0,0,6.787441799999215,number2,True,False,True,16,1,2019_Nov_14_1202,MA_Theta_Exp,3.0.7,59.98397227229475,
video/Experiment/zh_sp01_Ti_Ro_4_NoThetaInAudio_NoVideo.avi,noTheta,noVideo,sp01,Ti,Ro,4,1,4,flow/blocks/NoThetaInAudio_NoVideo_B.csv,,,,,,,,,,,,,,,,,0,1,1,1,0,4,4,11,-0.3763888888888889,-0.2898148148148148,1,0,0,4.962617799988948,call4,-0.008333333333333333,-0.10555555555555556,1,0,0,5.378955600026529,colour3,0.45555555555555555,-0.35648148148148145,1,0,0,6.142859100014903,number4,False,True,True,16,1,2019_Nov_14_1202,MA_Theta_Exp,3.0.7,59.98397227229475,
video/Experiment/zh_sp07_Un_Gr_2_NoThetaInAudio_NoVideo.avi,noTheta,noVideo,sp07,Un,Gr,2,1,4,flow/blocks/NoThetaInAudio_NoVideo_B.csv,,,,,,,,,,,,,,,,,0,1,1,1,0,5,5,21,-0.3638888888888889,-0.36064814814814816,1,0,0,5.270367100019939,call4,-0.020833333333333332,-0.3763888888888889,1,0,0,5.822816199972294,colour4,0.3736111111111111,0.2625,1,0,0,6.5050503999809735,number1,True,False,False,16,1,2019_Nov_14_1202,MA_Theta_Exp,3.0.7,59.98397227229475,
video/Experiment/zh_sp01_Ti_We_3_NoThetaInAudio_NoVideo.avi,noTheta,noVideo,sp01,Ti,We,3,1,4,flow/blocks/NoThetaInAudio_NoVideo_B.csv,,,,,,,,,,,,,,,,,0,1,1,1,0,6,6,14,-0.26805555555555555,-0.0875,1,0,0,5.109608499973547,call3,-0.029166666666666667,0.275,1,0,0,6.973658100003377,colour1,0.35555555555555557,-0.1162037037037037,1,0,0,7.495731999981217,number3,True,False,True,16,1,2019_Nov_14_1202,MA_Theta_Exp,3.0.7,59.98397227229475,
video/Experiment/zh_sp01_Ti_Gr_3_NoThetaInAudio_NoVideo.avi,noTheta,noVideo,sp01,Ti,Gr,3,1,4,flow/blocks/NoThetaInAudio_NoVideo_B.csv,,,,,,,,,,,,,,,,,0,1,1,1,0,7,7,6,-0.3625,-0.17175925925925925,1,0,0,5.027650100004394,call3,-0.0375,0.2611111111111111,1,0,0,5.707475000002887,colour1,0.4097222222222222,-0.055092592592592596,1,0,0,6.244080199976452,number3,True,False,True,16,1,2019_Nov_14_1202,MA_Theta_Exp,3.0.7,59.98397227229475,
video/Experiment/zh_sp07_Un_Gr_3_NoThetaInAudio_NoVideo.avi,noTheta,noVideo,sp07,Un,Gr,3,1,4,flow/blocks/NoThetaInAudio_NoVideo_B.csv,,,,,,,,,,,,,,,,,0,1,1,1,0,8,8,22,-0.4027777777777778,-0.05648148148148148,1,0,0,4.3118470999761485,call3,-0.001388888888888889,0.26944444444444443,1,0,0,5.796224699995946,colour1,0.35138888888888886,-0.07037037037037037,1,0,0,6.264286799996626,number3,False,False,True,16,1,2019_Nov_14_1202,MA_Theta_Exp,3.0.7,59.98397227229475,
video/Experiment/zh_sp01_Un_Ro_4_NoThetaInAudio_NoVideo.avi,noTheta,noVideo,sp01,Un,Ro,4,1,4,flow/blocks/NoThetaInAudio_NoVideo_B.csv,,,,,,,,,,,,,,,,,0,1,1,1,0,9,9,27,-0.4097222222222222,-0.1300925925925926,1,0,0,5.528799400024582,call3,-0.022222222222222223,-0.16666666666666666,1,0,0,5.962494700041134,colour3,0.4305555555555556,-0.3384259259259259,1,0,0,6.4115533999865875,number4,False,True,True,16,1,2019_Nov_14_1202,MA_Theta_Exp,3.0.7,59.98397227229475,
video/Experiment/zh_sp07_Un_Ro_1_NoThetaInAudio_NoVideo.avi,noTheta,noVideo,sp07,Un,Ro,1,1,4,flow/blocks/NoThetaInAudio_NoVideo_B.csv,,,,,,,,,,,,,,,,,0,1,1,1,0,10,10,24,-0.3972222222222222,-0.3189814814814815,1,0,0,4.842533500050195,call4,0.027777777777777776,0.29444444444444445,1,0,0,6.041411100013647,colour1,0.4125,0.3263888888888889,1,0,0,6.8602362999808975,number1,True,False,True,16,1,2019_Nov_14_1202,MA_Theta_Exp,3.0.7,59.98397227229475,
video/Experiment/zh_sp01_Ti_Ge_3_NoThetaInAudio_NoVideo.avi,noTheta,noVideo,sp01,Ti,Ge,3,1,4,flow/blocks/NoThetaInAudio_NoVideo_B.csv,,,,,,,,,,,,,,,,,0,1,1,1,0,11,11,2,-0.37083333333333335,-0.09444444444444444,1,0,0,5.292528100020718,call3,0.05416666666666667,0.27361111111111114,1,0,0,5.844404199975543,colour1,0.4097222222222222,-0.1550925925925926,1,0,0,6.3259542000014335,number3,True,True,True,16,1,2019_Nov_14_1202,MA_Theta_Exp,3.0.7,59.98397227229475,
video/Experiment/zh_sp01_Ti_Ro_2_NoThetaInAudio_NoVideo.avi,noTheta,noVideo,sp01,Ti,Ro,2,1,4,flow/blocks/NoThetaInAudio_NoVideo_B.csv,,,,,,,,,,,,,,,,,0,1,1,1,0,12,12,9,-0.4236111111111111,-0.1175925925925926,1,0,0,5.2242553000105545,call3,0.018055555555555554,-0.18564814814814815,1,0,0,5.689018000033684,colour3,0.3902777777777778,0.03935185185185185,1,0,0,6.533645800023805,number2,True,True,True,16,1,2019_Nov_14_1202,MA_Theta_Exp,3.0.7,59.98397227229475,
video/Experiment/zh_sp07_Ti_We_2_NoThetaInAudio_NoVideo.avi,noTheta,noVideo,sp07,Ti,We,2,1,4,flow/blocks/NoThetaInAudio_NoVideo_B.csv,,,,,,,,,,,,,,,,,0,1,1,1,0,13,13,13,-0.3638888888888889,-0.3138888888888889,1,0,0,4.849443399987649,call4,-0.029166666666666667,0.3333333333333333,1,0,0,5.867570600006729,colour1,0.3472222222222222,0.10416666666666667,1,0,0,6.421439800004009,number2,False,False,True,16,1,2019_Nov_14_1202,MA_Theta_Exp,3.0.7,59.98397227229475,
