videoFile,condition,video,speaker,callSign,colour,number,seq,id,block,exp.thisRepN,exp.thisTrialN,exp.thisN,exp.thisIndex,training.thisRepN,training.thisTrialN,training.thisN,training.thisIndex,firstHalf.thisRepN,firstHalf.thisTrialN,firstHalf.thisN,firstHalf.thisIndex,blocksA.thisRepN,blocksA.thisTrialN,blocksA.thisN,blocksA.thisIndex,secondHalf.thisRepN,secondHalf.thisTrialN,secondHalf.thisN,secondHalf.thisIndex,blocksB.thisRepN,blocksB.thisTrialN,blocksB.thisN,blocksB.thisIndex,mouseClickOnCall.x,mouseClickOnCall.y,mouseClickOnCall.leftButton,mouseClickOnCall.midButton,mouseClickOnCall.rightButton,mouseClickOnCall.time,mouseClickOnCall.clicked_name,mouseClickOnColour.x,mouseClickOnColour.y,mouseClickOnColour.leftButton,mouseClickOnColour.midButton,mouseClickOnColour.rightButton,mouseClickOnColour.time,mouseClickOnColour.clicked_name,mouseClickOnNumber.x,mouseClickOnNumber.y,mouseClickOnNumber.leftButton,mouseClickOnNumber.midButton,mouseClickOnNumber.rightButton,mouseClickOnNumber.time,mouseClickOnNumber.clicked_name,callSignCorrect,colourCorrect,numberCorrect,participant,order,date,expName,psychopyVersion,frameRate,
video/Training/zh_sp01_Ad_We_4_NVocInAudio_NoVideo.avi,vocoded,noVideo,sp01,Ad,We,4,,,,,,,,0,0,0,0,,,,,,,,,,,,,,,,,-0.3958333333333333,0.32083333333333336,1,0,0,5.694497800024692,call1,0.44166666666666665,-0.3509259259259259,1,0,0,6.74746599997161,colour1,0.39861111111111114,-0.38287037037037036,1,0,0,8.928626200009603,number4,True,False,True,19,4,2019_Nov_14_1505,MA_Theta_Exp,3.0.7,60.149399066620845,
video/Training/zh_sp07_Ad_Ge_3_NVocInAudio_NoVideo.avi,vocoded,noVideo,sp07,Ad,Ge,3,,,,,,,,0,1,1,1,,,,,,,,,,,,,,,,,-0.4152777777777778,0.27361111111111114,1,0,0,5.453632200020365,call1,-0.018055555555555554,0.30416666666666664,1,0,0,6.6175284999771975,colour1,0.36944444444444446,-0.1287037037037037,1,0,0,7.185960199974943,number3,True,True,True,19,4,2019_Nov_14_1505,MA_Theta_Exp,3.0.7,60.149399066620845,
video/Training/zh_sp01_Dr_Ro_3_NVocInAudio_GlobalThetaInVideo.avi,vocoded,plusVideo,sp01,Dr,Ro,3,,,,,,,,0,2,2,2,,,,,,,,,,,,,,,,,-0.4083333333333333,0.28888888888888886,1,0,0,6.766445100016426,call1,0.020833333333333332,-0.08194444444444444,1,0,0,8.296210300002713,colour3,0.35555555555555557,-0.10787037037037037,1,0,0,8.881961599981878,number3,False,True,True,19,4,2019_Nov_14_1505,MA_Theta_Exp,3.0.7,60.149399066620845,
video/Training/zh_sp07_Dr_Gr_4_NVocInAudio_GlobalThetaInVideo.avi,vocoded,plusVideo,sp07,Dr,Gr,4,,,,,,,,0,3,3,3,,,,,,,,,,,,,,,,,-0.39861111111111114,0.10833333333333334,1,0,0,4.739008400007151,call2,0.015277777777777777,-0.1162037037037037,1,0,0,6.518433399964124,colour3,0.3638888888888889,-0.15416666666666667,1,0,0,7.156235400005244,number3,True,False,False,19,4,2019_Nov_14_1505,MA_Theta_Exp,3.0.7,60.149399066620845,
video/Training/zh_sp01_Ti_Gr_2_NoThetaInAudio_NoVideo.avi,noTheta,noVideo,sp01,Ti,Gr,2,,,,,,,,0,4,4,4,,,,,,,,,,,,,,,,,-0.3902777777777778,-0.30787037037037035,1,0,0,5.843026399961673,call4,0.005555555555555556,0.10555555555555556,1,0,0,6.580731599999126,colour2,0.3638888888888889,0.28055555555555556,1,0,0,7.126496199984103,number1,False,True,False,19,4,2019_Nov_14_1505,MA_Theta_Exp,3.0.7,60.149399066620845,
video/Training/zh_sp07_Ti_Ro_1_NoThetaInAudio_NoVideo.avi,noTheta,noVideo,sp07,Ti,Ro,1,,,,,,,,0,5,5,5,,,,,,,,,,,,,,,,,-0.4222222222222222,0.09583333333333334,1,0,0,5.8979231000412256,call2,0.002777777777777778,0.26805555555555555,1,0,0,7.2632465999922715,colour1,0.3902777777777778,0.05740740740740741,1,0,0,9.165255899948534,number2,False,False,False,19,4,2019_Nov_14_1505,MA_Theta_Exp,3.0.7,60.149399066620845,
video/Training/zh_sp01_Un_Ge_1_NoThetaInAudio_GlobalThetaInVideo.avi,noTheta,plusVideo,sp01,Un,Ge,1,,,,,,,,0,6,6,6,,,,,,,,,,,,,,,,,-0.43194444444444446,0.14212962962962963,1,0,0,7.703968000016175,call2,0.03333333333333333,-0.26342592592592595,1,0,0,10.148713100003079,colour4,0.4083333333333333,0.31527777777777777,1,0,0,10.953073300013784,number1,False,False,True,19,4,2019_Nov_14_1505,MA_Theta_Exp,3.0.7,60.149399066620845,
video/Training/zh_sp07_Un_We_2_NoThetaInAudio_GlobalThetaInVideo.avi,noTheta,plusVideo,sp07,Un,We,2,,,,,,,,0,7,7,7,,,,,,,,,,,,,,,,,-0.3611111111111111,0.1388888888888889,1,0,0,4.7846214000019245,call2,-0.009722222222222222,0.07962962962962963,1,0,0,7.17365129996324,colour2,0.42083333333333334,0.04583333333333333,1,0,0,9.349441000027582,number2,False,False,True,19,4,2019_Nov_14_1505,MA_Theta_Exp,3.0.7,60.149399066620845,
video/Training/zh_sp01_Ad_Ge_1_GlobalTheta_NoVideo.avi,globalTheta,noVideo,sp01,Ad,Ge,1,,,,,,,,0,8,8,8,,,,,,,,,,,,,,,,,-0.3902777777777778,0.24444444444444444,1,0,0,8.705873100028839,call1,0.016666666666666666,-0.11527777777777778,1,0,0,9.998440900002606,colour3,0.38055555555555554,0.28888888888888886,1,0,0,10.74284289998468,number1,True,False,True,19,4,2019_Nov_14_1505,MA_Theta_Exp,3.0.7,60.149399066620845,
video/Training/zh_sp07_Ad_Ro_3_GlobalTheta_NoVideo.avi,globalTheta,noVideo,sp07,Ad,Ro,3,,,,,,,,0,9,9,9,,,,,,,,,,,,,,,,,-0.39861111111111114,0.032407407407407406,1,0,0,6.5637470000074245,call2,-0.008333333333333333,0.11296296296296296,1,0,0,8.97894380002981,colour2,0.3958333333333333,-0.12777777777777777,1,0,0,9.932890800002497,number3,False,False,True,19,4,2019_Nov_14_1505,MA_Theta_Exp,3.0.7,60.149399066620845,
video/Experiment/zh_sp07_Ad_Ro_4_NVocInAudio_GlobalThetaInVideo.avi,vocoded,plusVideo,sp07,Ad,Ro,4,0,1,flow/blocks/NVocInAudio_GlobalThetaInVideo_A.csv,,,,,,,,,0,0,0,0,0,0,0,11,,,,,,,,,-0.3763888888888889,0.3333333333333333,1,0,0,5.182059699960519,call1,-0.05694444444444444,-0.17037037037037037,1,0,0,5.816458099987358,colour3,0.4597222222222222,-0.337037037037037,1,0,0,6.45043640001677,number4,True,True,True,19,4,2019_Nov_14_1505,MA_Theta_Exp,3.0.7,60.149399066620845,
video/Experiment/zh_sp01_Dr_Ge_1_NVocInAudio_GlobalThetaInVideo.avi,vocoded,plusVideo,sp01,Dr,Ge,1,0,1,flow/blocks/NVocInAudio_GlobalThetaInVideo_A.csv,,,,,,,,,0,0,0,0,0,1,1,16,,,,,,,,,-0.4013888888888889,0.13194444444444445,1,0,0,5.20367829996394,call2,0.08472222222222223,0.31666666666666665,1,0,0,5.782621500024106,colour1,0.39166666666666666,0.29768518518518516,1,0,0,6.269217099994421,number1,True,True,True,19,4,2019_Nov_14_1505,MA_Theta_Exp,3.0.7,60.149399066620845,
video/Experiment/zh_sp07_Dr_Ge_3_NVocInAudio_GlobalThetaInVideo.avi,vocoded,plusVideo,sp07,Dr,Ge,3,0,1,flow/blocks/NVocInAudio_GlobalThetaInVideo_A.csv,,,,,,,,,0,0,0,0,0,2,2,18,,,,,,,,,-0.3736111111111111,0.10462962962962963,1,0,0,4.5293322000070475,call2,-0.022222222222222223,0.3388888888888889,1,0,0,5.0365901999757625,colour1,0.34305555555555556,-0.062037037037037036,1,0,0,5.63337340002181,number3,True,True,True,19,4,2019_Nov_14_1505,MA_Theta_Exp,3.0.7,60.149399066620845,
video/Experiment/zh_sp07_Ad_Gr_3_NVocInAudio_GlobalThetaInVideo.avi,vocoded,plusVideo,sp07,Ad,Gr,3,0,1,flow/blocks/NVocInAudio_GlobalThetaInVideo_A.csv,,,,,,,,,0,0,0,0,0,3,3,6,,,,,,,,,-0.45,0.30972222222222223,1,0,0,4.751999100029934,call1,-0.04583333333333333,0.08796296296296297,1,0,0,5.225436099979561,colour2,0.4111111111111111,-0.10092592592592593,1,0,0,5.717255100025795,number3,True,True,True,19,4,2019_Nov_14_1505,MA_Theta_Exp,3.0.7,60.149399066620845,
video/Experiment/zh_sp01_Ad_Ge_4_NVocInAudio_GlobalThetaInVideo.avi,vocoded,plusVideo,sp01,Ad,Ge,4,0,1,flow/blocks/NVocInAudio_GlobalThetaInVideo_A.csv,,,,,,,,,0,0,0,0,0,4,4,3,,,,,,,,,-0.3972222222222222,0.29583333333333334,1,0,0,5.038665700005367,call1,-0.03888888888888889,0.3226851851851852,1,0,0,5.469352299987804,colour1,0.3875,-0.32175925925925924,1,0,0,6.235706000006758,number4,True,True,True,19,4,2019_Nov_14_1505,MA_Theta_Exp,3.0.7,60.149399066620845,
video/Experiment/zh_sp01_Ad_Gr_2_NVocInAudio_GlobalThetaInVideo.avi,vocoded,plusVideo,sp01,Ad,Gr,2,0,1,flow/blocks/NVocInAudio_GlobalThetaInVideo_A.csv,,,,,,,,,0,0,0,0,0,5,5,5,,,,,,,,,-0.3861111111111111,0.2972222222222222,1,0,0,5.23479859996587,call1,0.006944444444444444,0.09351851851851851,1,0,0,5.690889300021809,colour2,0.38472222222222224,0.1375,1,0,0,6.084048499993514,number2,True,True,True,19,4,2019_Nov_14_1505,MA_Theta_Exp,3.0.7,60.149399066620845,
video/Experiment/zh_sp07_Ad_We_1_NVocInAudio_GlobalThetaInVideo.avi,vocoded,plusVideo,sp07,Ad,We,1,0,1,flow/blocks/NVocInAudio_GlobalThetaInVideo_A.csv,,,,,,,,,0,0,0,0,0,6,6,12,,,,,,,,,-0.4166666666666667,0.3013888888888889,1,0,0,4.585301200044341,call1,-0.008333333333333333,-0.32314814814814813,1,0,0,5.273895699996501,colour4,0.375,0.27361111111111114,1,0,0,5.83299949998036,number1,True,True,True,19,4,2019_Nov_14_1505,MA_Theta_Exp,3.0.7,60.149399066620845,
video/Experiment/zh_sp07_Ad_Ro_1_NVocInAudio_GlobalThetaInVideo.avi,vocoded,plusVideo,sp07,Ad,Ro,1,0,1,flow/blocks/NVocInAudio_GlobalThetaInVideo_A.csv,,,,,,,,,0,0,0,0,0,7,7,8,,,,,,,,,-0.37222222222222223,0.29444444444444445,1,0,0,4.311123999999836,call1,0.015277777777777777,-0.09814814814814815,1,0,0,4.788333699980285,colour3,0.38472222222222224,0.31805555555555554,1,0,0,5.268066200020257,number1,True,True,True,19,4,2019_Nov_14_1505,MA_Theta_Exp,3.0.7,60.149399066620845,
video/Experiment/zh_sp01_Ad_We_2_NVocInAudio_GlobalThetaInVideo.avi,vocoded,plusVideo,sp01,Ad,We,2,0,1,flow/blocks/NVocInAudio_GlobalThetaInVideo_A.csv,,,,,,,,,0,0,0,0,0,8,8,13,,,,,,,,,-0.3763888888888889,0.29583333333333334,1,0,0,5.095039399981033,call1,-0.001388888888888889,-0.3287037037037037,1,0,0,5.657187800039537,colour4,0.425,0.10694444444444444,1,0,0,6.122802999976557,number2,True,True,True,19,4,2019_Nov_14_1505,MA_Theta_Exp,3.0.7,60.149399066620845,
video/Experiment/zh_sp01_Ad_Ge_2_NVocInAudio_GlobalThetaInVideo.avi,vocoded,plusVideo,sp01,Ad,Ge,2,0,1,flow/blocks/NVocInAudio_GlobalThetaInVideo_A.csv,,,,,,,,,0,0,0,0,0,9,9,1,,,,,,,,,-0.3958333333333333,0.30462962962962964,1,0,0,5.3158627999946475,call1,-0.016666666666666666,0.28055555555555556,1,0,0,5.8203559999819845,colour1,0.38333333333333336,0.06111111111111111,1,0,0,6.311179099953733,number2,True,True,True,19,4,2019_Nov_14_1505,MA_Theta_Exp,3.0.7,60.149399066620845,
video/Experiment/zh_sp07_Ad_Ge_3_NVocInAudio_GlobalThetaInVideo.avi,vocoded,plusVideo,sp07,Ad,Ge,3,0,1,flow/blocks/NVocInAudio_GlobalThetaInVideo_A.csv,,,,,,,,,0,0,0,0,0,10,10,2,,,,,,,,,-0.39861111111111114,0.2949074074074074,1,0,0,4.583927700005006,call1,0.009722222222222222,0.3055555555555556,1,0,0,5.178039299964439,colour1,0.42916666666666664,-0.11481481481481481,1,0,0,5.921181300014723,number3,True,True,True,19,4,2019_Nov_14_1505,MA_Theta_Exp,3.0.7,60.149399066620845,
video/Experiment/zh_sp07_Dr_We_3_NVocInAudio_GlobalThetaInVideo.avi,vocoded,plusVideo,sp07,Dr,We,3,0,1,flow/blocks/NVocInAudio_GlobalThetaInVideo_A.csv,,,,,,,,,0,0,0,0,0,11,11,30,,,,,,,,,-0.3972222222222222,0.07222222222222222,1,0,0,4.742710300022736,call2,0.05,-0.3175925925925926,1,0,0,5.390193999977782,colour4,0.4527777777777778,-0.08472222222222223,1,0,0,5.863309099979233,number3,True,True,True,19,4,2019_Nov_14_1505,MA_Theta_Exp,3.0.7,60.149399066620845,
video/Experiment/zh_sp01_Dr_Ro_2_NVocInAudio_GlobalThetaInVideo.avi,vocoded,plusVideo,sp01,Dr,Ro,2,0,1,flow/blocks/NVocInAudio_GlobalThetaInVideo_A.csv,,,,,,,,,0,0,0,0,0,12,12,25,,,,,,,,,0.06111111111111111,-0.1527777777777778,1,0,0,5.260495199996512,call2,-0.044444444444444446,-0.1425925925925926,1,0,0,7.376873900007922,colour3,0.4152777777777778,0.13333333333333333,1,0,0,7.843472599983215,number2,True,True,True,19,4,2019_Nov_14_1505,MA_Theta_Exp,3.0.7,60.149399066620845,
video/Experiment/zh_sp01_Dr_Gr_2_NVocInAudio_GlobalThetaInVideo.avi,vocoded,plusVideo,sp01,Dr,Gr,2,0,1,flow/blocks/NVocInAudio_GlobalThetaInVideo_A.csv,,,,,,,,,0,0,0,0,0,13,13,21,,,,,,,,,-0.4013888888888889,0.09861111111111111,1,0,0,5.139971199969295,call2,-0.006944444444444444,0.10694444444444444,1,0,0,5.573001400043722,colour2,0.4361111111111111,0.075,1,0,0,6.360048400005326,number2,True,True,True,19,4,2019_Nov_14_1505,MA_Theta_Exp,3.0.7,60.149399066620845,
video/Experiment/zh_sp01_Dr_Gr_4_NVocInAudio_GlobalThetaInVideo.avi,vocoded,plusVideo,sp01,Dr,Gr,4,0,1,flow/blocks/NVocInAudio_GlobalThetaInVideo_A.csv,,,,,,,,,0,0,0,0,0,14,14,23,,,,,,,,,-0.3541666666666667,0.08055555555555556,1,0,0,5.123616199998651,call2,0.02361111111111111,0.11805555555555555,1,0,0,5.525778500013985,colour2,0.4666666666666667,-0.324537037037037,1,0,0,6.071330200007651,number4,True,True,True,19,4,2019_Nov_14_1505,MA_Theta_Exp,3.0.7,60.149399066620845,
video/Experiment/zh_sp07_Dr_Gr_3_NVocInAudio_GlobalThetaInVideo.avi,vocoded,plusVideo,sp07,Dr,Gr,3,0,1,flow/blocks/NVocInAudio_GlobalThetaInVideo_A.csv,,,,,,,,,0,0,0,0,0,15,15,22,,,,,,,,,-0.3888888888888889,0.09305555555555556,1,0,0,4.613507599977311,call2,-0.004166666666666667,0.10277777777777777,1,0,0,5.060597500007134,colour2,0.4583333333333333,-0.13148148148148148,1,0,0,5.5245732999756,number3,True,True,True,19,4,2019_Nov_14_1505,MA_Theta_Exp,3.0.7,60.149399066620845,
video/Experiment/zh_sp07_Ad_Gr_1_NVocInAudio_GlobalThetaInVideo.avi,vocoded,plusVideo,sp07,Ad,Gr,1,0,1,flow/blocks/NVocInAudio_GlobalThetaInVideo_A.csv,,,,,,,,,0,0,0,0,0,16,16,4,,,,,,,,,-0.45694444444444443,0.2935185185185185,1,0,0,4.849674900004175,call1,-0.018055555555555554,0.10046296296296296,1,0,0,5.296974400000181,colour2,0.40694444444444444,0.30277777777777776,1,0,0,5.718800300033763,number1,True,True,True,19,4,2019_Nov_14_1505,MA_Theta_Exp,3.0.7,60.149399066620845,
video/Experiment/zh_sp01_Ad_We_3_NVocInAudio_GlobalThetaInVideo.avi,vocoded,plusVideo,sp01,Ad,We,3,0,1,flow/blocks/NVocInAudio_GlobalThetaInVideo_A.csv,,,,,,,,,0,0,0,0,0,17,17,14,,,,,,,,,-0.4041666666666667,0.33055555555555555,1,0,0,4.87274379999144,call1,-0.03333333333333333,-0.3050925925925926,1,0,0,5.4584919000044465,colour4,0.4263888888888889,-0.12222222222222222,1,0,0,5.939318699995056,number3,True,True,True,19,4,2019_Nov_14_1505,MA_Theta_Exp,3.0.7,60.149399066620845,
video/Experiment/zh_sp01_Dr_We_2_NVocInAudio_GlobalThetaInVideo.avi,vocoded,plusVideo,sp01,Dr,We,2,0,1,flow/blocks/NVocInAudio_GlobalThetaInVideo_A.csv,,,,,,,,,0,0,0,0,0,18,18,29,,,,,,,,,-0.4152777777777778,0.09768518518518518,1,0,0,5.247148599999491,call2,-0.0125,-0.3425925925925926,1,0,0,5.819850399973802,colour4,0.38472222222222224,0.075,1,0,0,6.284759900008794,number2,True,True,True,19,4,2019_Nov_14_1505,MA_Theta_Exp,3.0.7,60.149399066620845,
video/Experiment/zh_sp07_Dr_Ge_4_NVocInAudio_GlobalThetaInVideo.avi,vocoded,plusVideo,sp07,Dr,Ge,4,0,1,flow/blocks/NVocInAudio_GlobalThetaInVideo_A.csv,,,,,,,,,0,0,0,0,0,19,19,19,,,,,,,,,-0.4097222222222222,0.07222222222222222,1,0,0,4.46551259997068,call2,-0.04583333333333333,0.28194444444444444,1,0,0,4.861829800007399,colour1,0.3861111111111111,-0.3148148148148148,1,0,0,5.387605900003109,number4,True,True,True,19,4,2019_Nov_14_1505,MA_Theta_Exp,3.0.7,60.149399066620845,
video/Experiment/zh_sp07_Dr_Ro_1_NVocInAudio_GlobalThetaInVideo.avi,vocoded,plusVideo,sp07,Dr,Ro,1,0,1,flow/blocks/NVocInAudio_GlobalThetaInVideo_A.csv,,,,,,,,,0,0,0,0,0,20,20,24,,,,,,,,,-0.41388888888888886,0.09444444444444444,1,0,0,5.054115400009323,call2,0.05,-0.3800925925925926,1,0,0,5.6320145999779925,colour4,0.36527777777777776,0.2625,1,0,0,6.341350200003944,number1,True,False,True,19,4,2019_Nov_14_1505,MA_Theta_Exp,3.0.7,60.149399066620845,
video/Experiment/zh_sp01_Dr_Gr_1_NVocInAudio_GlobalThetaInVideo.avi,vocoded,plusVideo,sp01,Dr,Gr,1,0,1,flow/blocks/NVocInAudio_GlobalThetaInVideo_A.csv,,,,,,,,,0,0,0,0,0,21,21,20,,,,,,,,,-0.4083333333333333,0.09861111111111111,1,0,0,5.303189800004475,call2,-0.011111111111111112,0.08472222222222223,1,0,0,5.796840800030623,colour2,0.41805555555555557,0.3013888888888889,1,0,0,6.2243526999955066,number1,True,True,True,19,4,2019_Nov_14_1505,MA_Theta_Exp,3.0.7,60.149399066620845,
video/Experiment/zh_sp07_Ad_Ro_2_NVocInAudio_GlobalThetaInVideo.avi,vocoded,plusVideo,sp07,Ad,Ro,2,0,1,flow/blocks/NVocInAudio_GlobalThetaInVideo_A.csv,,,,,,,,,0,0,0,0,0,22,22,9,,,,,,,,,-0.375,0.31574074074074077,1,0,0,4.817492500005756,call1,0.004166666666666667,-0.07453703703703704,1,0,0,5.370610399986617,colour3,0.4013888888888889,0.08472222222222223,1,0,0,5.808123999973759,number2,True,True,True,19,4,2019_Nov_14_1505,MA_Theta_Exp,3.0.7,60.149399066620845,
video/Experiment/zh_sp01_Ad_We_4_NVocInAudio_GlobalThetaInVideo.avi,vocoded,plusVideo,sp01,Ad,We,4,0,1,flow/blocks/NVocInAudio_GlobalThetaInVideo_A.csv,,,,,,,,,0,0,0,0,0,23,23,15,,,,,,,,,-0.43194444444444446,0.3611111111111111,1,0,0,4.960064099985175,call1,0.011111111111111112,-0.33287037037037037,1,0,0,5.57653110002866,colour4,0.4513888888888889,-0.2611111111111111,1,0,0,5.971377599984407,number4,True,True,True,19,4,2019_Nov_14_1505,MA_Theta_Exp,3.0.7,60.149399066620845,
video/Experiment/zh_sp07_Dr_Ro_4_NVocInAudio_GlobalThetaInVideo.avi,vocoded,plusVideo,sp07,Dr,Ro,4,0,1,flow/blocks/NVocInAudio_GlobalThetaInVideo_A.csv,,,,,,,,,0,0,0,0,0,24,24,27,,,,,,,,,-0.42916666666666664,0.09444444444444444,1,0,0,4.591665800020564,call2,0.03888888888888889,-0.11388888888888889,1,0,0,5.171445499989204,colour3,0.3819444444444444,-0.3023148148148148,1,0,0,5.664135899976827,number4,True,True,True,19,4,2019_Nov_14_1505,MA_Theta_Exp,3.0.7,60.149399066620845,
video/Experiment/zh_sp07_Ad_Ro_3_NVocInAudio_GlobalThetaInVideo.avi,vocoded,plusVideo,sp07,Ad,Ro,3,0,1,flow/blocks/NVocInAudio_GlobalThetaInVideo_A.csv,,,,,,,,,0,0,0,0,0,25,25,10,,,,,,,,,-0.4111111111111111,0.2708333333333333,1,0,0,4.508262799994554,call1,0.019444444444444445,-0.08842592592592592,1,0,0,4.964567799994256,colour3,0.40555555555555556,-0.058333333333333334,1,0,0,5.318547400005627,number3,True,True,True,19,4,2019_Nov_14_1505,MA_Theta_Exp,3.0.7,60.149399066620845,
video/Experiment/zh_sp01_Ad_Gr_4_NVocInAudio_GlobalThetaInVideo.avi,vocoded,plusVideo,sp01,Ad,Gr,4,0,1,flow/blocks/NVocInAudio_GlobalThetaInVideo_A.csv,,,,,,,,,0,0,0,0,0,26,26,7,,,,,,,,,-0.3638888888888889,0.2865740740740741,1,0,0,4.983829999982845,call1,0.013888888888888888,0.06296296296296296,1,0,0,5.378252600028645,colour2,0.42916666666666664,-0.3592592592592593,1,0,0,5.870652900019195,number4,True,True,True,19,4,2019_Nov_14_1505,MA_Theta_Exp,3.0.7,60.149399066620845,
video/Experiment/zh_sp01_Dr_We_4_NVocInAudio_GlobalThetaInVideo.avi,vocoded,plusVideo,sp01,Dr,We,4,0,1,flow/blocks/NVocInAudio_GlobalThetaInVideo_A.csv,,,,,,,,,0,0,0,0,0,27,27,31,,,,,,,,,-0.37916666666666665,0.09351851851851851,1,0,0,5.28162570000859,call2,-0.009722222222222222,-0.34814814814814815,1,0,0,6.039864499995019,colour4,0.4888888888888889,-0.2972222222222222,1,0,0,6.465643000032287,number4,True,True,True,19,4,2019_Nov_14_1505,MA_Theta_Exp,3.0.7,60.149399066620845,
video/Experiment/zh_sp07_Dr_We_1_NVocInAudio_GlobalThetaInVideo.avi,vocoded,plusVideo,sp07,Dr,We,1,0,1,flow/blocks/NVocInAudio_GlobalThetaInVideo_A.csv,,,,,,,,,0,0,0,0,0,28,28,28,,,,,,,,,-0.4027777777777778,0.10138888888888889,1,0,0,4.400009800039697,call2,0.001388888888888889,-0.31203703703703706,1,0,0,4.887811900000088,colour4,0.3486111111111111,0.23472222222222222,1,0,0,5.377225699950941,number1,True,True,True,19,4,2019_Nov_14_1505,MA_Theta_Exp,3.0.7,60.149399066620845,
video/Experiment/zh_sp01_Dr_Ro_3_NVocInAudio_GlobalThetaInVideo.avi,vocoded,plusVideo,sp01,Dr,Ro,3,0,1,flow/blocks/NVocInAudio_GlobalThetaInVideo_A.csv,,,,,,,,,0,0,0,0,0,29,29,26,,,,,,,,,-0.39166666666666666,0.07777777777777778,1,0,0,4.784450300037861,call2,-0.03333333333333333,-0.1787037037037037,1,0,0,5.216974699986167,colour3,0.37916666666666665,-0.09861111111111111,1,0,0,5.567422699998133,number3,True,True,True,19,4,2019_Nov_14_1505,MA_Theta_Exp,3.0.7,60.149399066620845,
video/Experiment/zh_sp07_Ad_Ge_1_NVocInAudio_GlobalThetaInVideo.avi,vocoded,plusVideo,sp07,Ad,Ge,1,0,1,flow/blocks/NVocInAudio_GlobalThetaInVideo_A.csv,,,,,,,,,0,0,0,0,0,30,30,0,,,,,,,,,-0.3819444444444444,0.29305555555555557,1,0,0,4.244982100033667,call1,-0.018055555555555554,0.29583333333333334,1,0,0,4.635525599995162,colour1,0.4,0.35694444444444445,1,0,0,5.243008199962787,number1,True,True,True,19,4,2019_Nov_14_1505,MA_Theta_Exp,3.0.7,60.149399066620845,
video/Experiment/zh_sp01_Dr_Ge_2_NVocInAudio_GlobalThetaInVideo.avi,vocoded,plusVideo,sp01,Dr,Ge,2,0,1,flow/blocks/NVocInAudio_GlobalThetaInVideo_A.csv,,,,,,,,,0,0,0,0,0,31,31,17,,,,,,,,,-0.4027777777777778,0.09583333333333334,1,0,0,5.122811299981549,call2,-0.029166666666666667,0.3388888888888889,1,0,0,5.5187620999640785,colour1,0.44583333333333336,0.10694444444444444,1,0,0,5.98272289999295,number2,True,True,True,19,4,2019_Nov_14_1505,MA_Theta_Exp,3.0.7,60.149399066620845,
video/Experiment/zh_sp07_Ad_Ro_1_NoThetaInAudio_NoVideo.avi,noTheta,noVideo,sp07,Ad,Ro,1,1,4,flow/blocks/NoThetaInAudio_NoVideo_A.csv,,,,,,,,,0,1,1,1,0,0,0,8,,,,,,,,,-0.4027777777777778,0.08796296296296297,1,0,0,7.395471199997701,call2,0.0375,0.2652777777777778,1,0,0,8.477749400015455,colour1,0.4222222222222222,0.3388888888888889,1,0,0,8.966899799997918,number1,False,False,True,19,4,2019_Nov_14_1505,MA_Theta_Exp,3.0.7,60.149399066620845,
video/Experiment/zh_sp07_Ad_Gr_1_NoThetaInAudio_NoVideo.avi,noTheta,noVideo,sp07,Ad,Gr,1,1,4,flow/blocks/NoThetaInAudio_NoVideo_A.csv,,,,,,,,,0,1,1,1,0,1,1,4,,,,,,,,,-0.4222222222222222,0.33055555555555555,1,0,0,4.678120900003705,call1,0.03611111111111111,0.09351851851851851,1,0,0,5.206078700022772,colour2,0.39166666666666666,0.31527777777777777,1,0,0,5.585722399991937,number1,True,True,True,19,4,2019_Nov_14_1505,MA_Theta_Exp,3.0.7,60.149399066620845,
video/Experiment/zh_sp01_Ad_Gr_3_NoThetaInAudio_NoVideo.avi,noTheta,noVideo,sp01,Ad,Gr,3,1,4,flow/blocks/NoThetaInAudio_NoVideo_A.csv,,,,,,,,,0,1,1,1,0,2,2,6,,,,,,,,,-0.35833333333333334,0.3638888888888889,1,0,0,5.110212900035549,call1,0.043055555555555555,0.07546296296296297,1,0,0,5.637896300002467,colour2,0.3875,-0.07314814814814814,1,0,0,6.091024999972433,number3,True,True,True,19,4,2019_Nov_14_1505,MA_Theta_Exp,3.0.7,60.149399066620845,
video/Experiment/zh_sp07_Dr_Ro_1_NoThetaInAudio_NoVideo.avi,noTheta,noVideo,sp07,Dr,Ro,1,1,4,flow/blocks/NoThetaInAudio_NoVideo_A.csv,,,,,,,,,0,1,1,1,0,3,3,24,,,,,,,,,-0.35555555555555557,0.075,1,0,0,4.342913599975873,call2,0.03333333333333333,-0.062037037037037036,1,0,0,4.816092300054152,colour3,0.4111111111111111,0.3,1,0,0,5.380242699990049,number1,True,True,True,19,4,2019_Nov_14_1505,MA_Theta_Exp,3.0.7,60.149399066620845,
video/Experiment/zh_sp01_Ad_We_1_NoThetaInAudio_NoVideo.avi,noTheta,noVideo,sp01,Ad,We,1,1,4,flow/blocks/NoThetaInAudio_NoVideo_A.csv,,,,,,,,,0,1,1,1,0,4,4,12,,,,,,,,,-0.3958333333333333,0.31666666666666665,1,0,0,5.079400899994653,call1,0.006944444444444444,0.2740740740740741,1,0,0,5.908511099987663,colour1,0.41388888888888886,0.25972222222222224,1,0,0,6.421931300021242,number1,True,False,True,19,4,2019_Nov_14_1505,MA_Theta_Exp,3.0.7,60.149399066620845,
video/Experiment/zh_sp01_Ad_Ro_3_NoThetaInAudio_NoVideo.avi,noTheta,noVideo,sp01,Ad,Ro,3,1,4,flow/blocks/NoThetaInAudio_NoVideo_A.csv,,,,,,,,,0,1,1,1,0,5,5,10,,,,,,,,,-0.4222222222222222,0.33611111111111114,1,0,0,4.836277800030075,call1,-0.03194444444444444,-0.055092592592592596,1,0,0,5.396821699978318,colour3,0.4097222222222222,-0.0763888888888889,1,0,0,5.801060900033917,number3,True,True,True,19,4,2019_Nov_14_1505,MA_Theta_Exp,3.0.7,60.149399066620845,
video/Experiment/zh_sp07_Ad_Ge_4_NoThetaInAudio_NoVideo.avi,noTheta,noVideo,sp07,Ad,Ge,4,1,4,flow/blocks/NoThetaInAudio_NoVideo_A.csv,,,,,,,,,0,1,1,1,0,6,6,3,,,,,,,,,-0.4013888888888889,0.30694444444444446,1,0,0,4.867249900009483,call1,-0.02361111111111111,0.26666666666666666,1,0,0,5.970872699981555,colour1,0.38472222222222224,-0.08425925925925926,1,0,0,6.471519500017166,number3,True,True,False,19,4,2019_Nov_14_1505,MA_Theta_Exp,3.0.7,60.149399066620845,
video/Experiment/zh_sp07_Dr_Gr_2_NoThetaInAudio_NoVideo.avi,noTheta,noVideo,sp07,Dr,Gr,2,1,4,flow/blocks/NoThetaInAudio_NoVideo_A.csv,,,,,,,,,0,1,1,1,0,7,7,21,,,,,,,,,-0.4263888888888889,0.11296296296296296,1,0,0,4.483468800026458,call2,-0.05277777777777778,0.11388888888888889,1,0,0,4.949667699984275,colour2,0.39305555555555555,0.11388888888888889,1,0,0,5.350974800006952,number2,True,True,True,19,4,2019_Nov_14_1505,MA_Theta_Exp,3.0.7,60.149399066620845,
video/Experiment/zh_sp07_Dr_Ge_1_NoThetaInAudio_NoVideo.avi,noTheta,noVideo,sp07,Dr,Ge,1,1,4,flow/blocks/NoThetaInAudio_NoVideo_A.csv,,,,,,,,,0,1,1,1,0,8,8,16,,,,,,,,,-0.3638888888888889,0.2972222222222222,1,0,0,4.4138608000357635,call1,0.0375,0.2847222222222222,1,0,0,4.901588200009428,colour1,0.3736111111111111,0.3416666666666667,1,0,0,5.411405400023796,number1,False,True,True,19,4,2019_Nov_14_1505,MA_Theta_Exp,3.0.7,60.149399066620845,
video/Experiment/zh_sp07_Ad_Ge_2_NoThetaInAudio_NoVideo.avi,noTheta,noVideo,sp07,Ad,Ge,2,1,4,flow/blocks/NoThetaInAudio_NoVideo_A.csv,,,,,,,,,0,1,1,1,0,9,9,1,,,,,,,,,-0.3902777777777778,0.30462962962962964,1,0,0,4.286587099952158,call1,-0.018055555555555554,0.08796296296296297,1,0,0,4.718022799992468,colour2,0.3597222222222222,0.275,1,0,0,5.078581399982795,number1,True,False,False,19,4,2019_Nov_14_1505,MA_Theta_Exp,3.0.7,60.149399066620845,
video/Experiment/zh_sp01_Dr_We_3_NoThetaInAudio_NoVideo.avi,noTheta,noVideo,sp01,Dr,We,3,1,4,flow/blocks/NoThetaInAudio_NoVideo_A.csv,,,,,,,,,0,1,1,1,0,10,10,30,,,,,,,,,-0.375,0.29212962962962963,1,0,0,4.919286399963312,call1,0.022222222222222223,-0.2884259259259259,1,0,0,6.823426800023299,colour4,0.4111111111111111,-0.058333333333333334,1,0,0,7.2344688000157475,number3,False,True,True,19,4,2019_Nov_14_1505,MA_Theta_Exp,3.0.7,60.149399066620845,
video/Experiment/zh_sp07_Dr_Gr_1_NoThetaInAudio_NoVideo.avi,noTheta,noVideo,sp07,Dr,Gr,1,1,4,flow/blocks/NoThetaInAudio_NoVideo_A.csv,,,,,,,,,0,1,1,1,0,11,11,20,,,,,,,,,-0.37083333333333335,0.1375,1,0,0,4.476152099960018,call2,-0.022222222222222223,0.31666666666666665,1,0,0,5.659577100013848,colour1,0.04722222222222222,0.06296296296296296,1,0,0,7.111534599971492,number1,True,False,True,19,4,2019_Nov_14_1505,MA_Theta_Exp,3.0.7,60.149399066620845,
video/Experiment/zh_sp07_Ad_Ro_2_NoThetaInAudio_NoVideo.avi,noTheta,noVideo,sp07,Ad,Ro,2,1,4,flow/blocks/NoThetaInAudio_NoVideo_A.csv,,,,,,,,,0,1,1,1,0,12,12,9,,,,,,,,,-0.41944444444444445,0.2902777777777778,1,0,0,5.254587900009938,call1,-0.05138888888888889,0.0837962962962963,1,0,0,5.931836400006432,colour2,0.48333333333333334,0.29583333333333334,1,0,0,6.388880499987863,number1,True,False,False,19,4,2019_Nov_14_1505,MA_Theta_Exp,3.0.7,60.149399066620845,
video/Experiment/zh_sp01_Ad_Ro_4_NoThetaInAudio_NoVideo.avi,noTheta,noVideo,sp01,Ad,Ro,4,1,4,flow/blocks/NoThetaInAudio_NoVideo_A.csv,,,,,,,,,0,1,1,1,0,13,13,11,,,,,,,,,-0.3763888888888889,0.2865740740740741,1,0,0,5.600956499984022,call1,0.04861111111111111,-0.15925925925925927,1,0,0,6.725565999979153,colour3,0.39444444444444443,-0.09861111111111111,1,0,0,7.110863399982918,number3,True,True,False,19,4,2019_Nov_14_1505,MA_Theta_Exp,3.0.7,60.149399066620845,
video/Experiment/zh_sp01_Dr_We_1_NoThetaInAudio_NoVideo.avi,noTheta,noVideo,sp01,Dr,We,1,1,4,flow/blocks/NoThetaInAudio_NoVideo_A.csv,,,,,,,,,0,1,1,1,0,14,14,28,,,,,,,,,-0.4083333333333333,0.2796296296296296,1,0,0,5.850689099985175,call1,0.034722222222222224,-0.11898148148148148,1,0,0,6.408272800035775,colour3,0.3527777777777778,0.2972222222222222,1,0,0,6.9577680000220425,number1,False,False,True,19,4,2019_Nov_14_1505,MA_Theta_Exp,3.0.7,60.149399066620845,
video/Experiment/zh_sp01_Dr_Gr_4_NoThetaInAudio_NoVideo.avi,noTheta,noVideo,sp01,Dr,Gr,4,1,4,flow/blocks/NoThetaInAudio_NoVideo_A.csv,,,,,,,,,0,1,1,1,0,15,15,23,,,,,,,,,-0.42083333333333334,0.075,1,0,0,5.564960299991071,call2,0.025,0.10277777777777777,1,0,0,6.150126199994702,colour2,0.4125,-0.324537037037037,1,0,0,7.077133300015703,number4,True,True,True,19,4,2019_Nov_14_1505,MA_Theta_Exp,3.0.7,60.149399066620845,
video/Experiment/zh_sp01_Ad_Ge_3_NoThetaInAudio_NoVideo.avi,noTheta,noVideo,sp01,Ad,Ge,3,1,4,flow/blocks/NoThetaInAudio_NoVideo_A.csv,,,,,,,,,0,1,1,1,0,16,16,2,,,,,,,,,-0.40555555555555556,0.0837962962962963,1,0,0,5.125935500022024,call2,-0.02638888888888889,0.27361111111111114,1,0,0,5.6584586999961175,colour1,0.39305555555555555,-0.22453703703703703,1,0,0,6.180001300002914,number4,False,True,False,19,4,2019_Nov_14_1505,MA_Theta_Exp,3.0.7,60.149399066620845,
video/Experiment/zh_sp01_Dr_Ge_3_NoThetaInAudio_NoVideo.avi,noTheta,noVideo,sp01,Dr,Ge,3,1,4,flow/blocks/NoThetaInAudio_NoVideo_A.csv,,,,,,,,,0,1,1,1,0,17,17,18,,,,,,,,,-0.4222222222222222,0.10138888888888889,1,0,0,4.9598202999914065,call2,-0.018055555555555554,0.30833333333333335,1,0,0,5.419050699973013,colour1,0.4736111111111111,-0.11203703703703703,1,0,0,5.901542300009169,number3,True,True,True,19,4,2019_Nov_14_1505,MA_Theta_Exp,3.0.7,60.149399066620845,
video/Experiment/zh_sp01_Dr_Ro_3_NoThetaInAudio_NoVideo.avi,noTheta,noVideo,sp01,Dr,Ro,3,1,4,flow/blocks/NoThetaInAudio_NoVideo_A.csv,,,,,,,,,0,1,1,1,0,18,18,26,,,,,,,,,-0.4041666666666667,0.15555555555555556,1,0,0,4.881964700005483,call2,-0.05416666666666667,-0.12175925925925926,1,0,0,5.7128203000174835,colour3,0.4444444444444444,-0.05694444444444444,1,0,0,6.077304300037213,number3,True,True,True,19,4,2019_Nov_14_1505,MA_Theta_Exp,3.0.7,60.149399066620845,
video/Experiment/zh_sp07_Dr_Gr_3_NoThetaInAudio_NoVideo.avi,noTheta,noVideo,sp07,Dr,Gr,3,1,4,flow/blocks/NoThetaInAudio_NoVideo_A.csv,,,,,,,,,0,1,1,1,0,19,19,22,,,,,,,,,-0.37916666666666665,0.1087962962962963,1,0,0,4.699293299985584,call2,0.02361111111111111,0.30972222222222223,1,0,0,5.253090300015174,colour1,0.43194444444444446,-0.04675925925925926,1,0,0,5.700080799986608,number3,True,False,True,19,4,2019_Nov_14_1505,MA_Theta_Exp,3.0.7,60.149399066620845,
video/Experiment/zh_sp01_Ad_We_4_NoThetaInAudio_NoVideo.avi,noTheta,noVideo,sp01,Ad,We,4,1,4,flow/blocks/NoThetaInAudio_NoVideo_A.csv,,,,,,,,,0,1,1,1,0,20,20,15,,,,,,,,,-0.4111111111111111,0.32083333333333336,1,0,0,4.844098999979906,call1,-0.027777777777777776,-0.3578703703703704,1,0,0,5.39686380000785,colour4,0.4777777777777778,-0.2652777777777778,1,0,0,5.78483859996777,number4,True,True,True,19,4,2019_Nov_14_1505,MA_Theta_Exp,3.0.7,60.149399066620845,
video/Experiment/zh_sp07_Ad_Gr_2_NoThetaInAudio_NoVideo.avi,noTheta,noVideo,sp07,Ad,Gr,2,1,4,flow/blocks/NoThetaInAudio_NoVideo_A.csv,,,,,,,,,0,1,1,1,0,21,21,5,,,,,,,,,-0.4527777777777778,0.3458333333333333,1,0,0,4.328487599967048,call1,-0.06111111111111111,0.09768518518518518,1,0,0,4.820169700018596,colour2,0.35833333333333334,0.1625,1,0,0,5.214871999982279,number2,True,True,True,19,4,2019_Nov_14_1505,MA_Theta_Exp,3.0.7,60.149399066620845,
video/Experiment/zh_sp01_Ad_We_3_NoThetaInAudio_NoVideo.avi,noTheta,noVideo,sp01,Ad,We,3,1,4,flow/blocks/NoThetaInAudio_NoVideo_A.csv,,,,,,,,,0,1,1,1,0,22,22,14,,,,,,,,,-0.4222222222222222,0.29305555555555557,1,0,0,5.012605000054464,call1,-0.022222222222222223,-0.3037037037037037,1,0,0,5.576906599977519,colour4,0.3861111111111111,-0.09444444444444444,1,0,0,6.032367600011639,number3,True,True,True,19,4,2019_Nov_14_1505,MA_Theta_Exp,3.0.7,60.149399066620845,
video/Experiment/zh_sp01_Dr_Ro_4_NoThetaInAudio_NoVideo.avi,noTheta,noVideo,sp01,Dr,Ro,4,1,4,flow/blocks/NoThetaInAudio_NoVideo_A.csv,,,,,,,,,0,1,1,1,0,23,23,27,,,,,,,,,-0.4027777777777778,0.050462962962962966,1,0,0,4.991269499994814,call2,-0.06388888888888888,-0.11898148148148148,1,0,0,5.518418899970129,colour3,0.3888888888888889,-0.30648148148148147,1,0,0,5.967027399979997,number4,True,True,True,19,4,2019_Nov_14_1505,MA_Theta_Exp,3.0.7,60.149399066620845,
video/Experiment/zh_sp01_Ad_We_2_NoThetaInAudio_NoVideo.avi,noTheta,noVideo,sp01,Ad,We,2,1,4,flow/blocks/NoThetaInAudio_NoVideo_A.csv,,,,,,,,,0,1,1,1,0,24,24,13,,,,,,,,,-0.3763888888888889,0.30277777777777776,1,0,0,5.2741632999968715,call1,-0.03611111111111111,-0.13333333333333333,1,0,0,6.0776871999842115,colour3,0.29305555555555557,0.08333333333333333,1,0,0,6.516446299967356,number2,True,False,True,19,4,2019_Nov_14_1505,MA_Theta_Exp,3.0.7,60.149399066620845,
video/Experiment/zh_sp01_Dr_Ro_2_NoThetaInAudio_NoVideo.avi,noTheta,noVideo,sp01,Dr,Ro,2,1,4,flow/blocks/NoThetaInAudio_NoVideo_A.csv,,,,,,,,,0,1,1,1,0,25,25,25,,,,,,,,,-0.39444444444444443,0.14444444444444443,1,0,0,5.473123999952804,call2,0.011111111111111112,0.32222222222222224,1,0,0,6.331237000005785,colour1,0.4111111111111111,0.19583333333333333,1,0,0,6.904249400016852,number2,True,False,True,19,4,2019_Nov_14_1505,MA_Theta_Exp,3.0.7,60.149399066620845,
video/Experiment/zh_sp07_Dr_Ge_4_NoThetaInAudio_NoVideo.avi,noTheta,noVideo,sp07,Dr,Ge,4,1,4,flow/blocks/NoThetaInAudio_NoVideo_A.csv,,,,,,,,,0,1,1,1,0,26,26,19,,,,,,,,,-0.4041666666666667,0.09444444444444444,1,0,0,4.6135206000180915,call2,0.018055555555555554,-0.12314814814814815,1,0,0,5.298589499958325,colour3,0.44722222222222224,-0.3648148148148148,1,0,0,6.147161700006109,number4,True,False,True,19,4,2019_Nov_14_1505,MA_Theta_Exp,3.0.7,60.149399066620845,
video/Experiment/zh_sp07_Ad_Ge_1_NoThetaInAudio_NoVideo.avi,noTheta,noVideo,sp07,Ad,Ge,1,1,4,flow/blocks/NoThetaInAudio_NoVideo_A.csv,,,,,,,,,0,1,1,1,0,27,27,0,,,,,,,,,-0.4263888888888889,0.30694444444444446,1,0,0,4.710543799970765,call1,0.001388888888888889,-0.0875,1,0,0,5.771277500025462,colour3,0.3611111111111111,0.26157407407407407,1,0,0,6.54379860003246,number1,True,False,True,19,4,2019_Nov_14_1505,MA_Theta_Exp,3.0.7,60.149399066620845,
video/Experiment/zh_sp01_Dr_We_2_NoThetaInAudio_NoVideo.avi,noTheta,noVideo,sp01,Dr,We,2,1,4,flow/blocks/NoThetaInAudio_NoVideo_A.csv,,,,,,,,,0,1,1,1,0,28,28,29,,,,,,,,,-0.425,0.07962962962962963,1,0,0,5.09570010000607,call2,-0.029166666666666667,-0.38564814814814813,1,0,0,5.676955799979623,colour4,0.35555555555555557,0.09583333333333334,1,0,0,6.2033213000395335,number2,True,True,True,19,4,2019_Nov_14_1505,MA_Theta_Exp,3.0.7,60.149399066620845,
video/Experiment/zh_sp07_Ad_Gr_4_NoThetaInAudio_NoVideo.avi,noTheta,noVideo,sp07,Ad,Gr,4,1,4,flow/blocks/NoThetaInAudio_NoVideo_A.csv,,,,,,,,,0,1,1,1,0,29,29,7,,,,,,,,,-0.3763888888888889,0.31666666666666665,1,0,0,4.343661099963356,call1,-0.027777777777777776,0.08935185185185185,1,0,0,4.789234700030647,colour2,0.41805555555555557,-0.33564814814814814,1,0,0,5.293393799976911,number4,True,True,True,19,4,2019_Nov_14_1505,MA_Theta_Exp,3.0.7,60.149399066620845,
video/Experiment/zh_sp07_Dr_Ge_2_NoThetaInAudio_NoVideo.avi,noTheta,noVideo,sp07,Dr,Ge,2,1,4,flow/blocks/NoThetaInAudio_NoVideo_A.csv,,,,,,,,,0,1,1,1,0,30,30,17,,,,,,,,,-0.3972222222222222,0.10185185185185185,1,0,0,4.334144700027537,call2,-0.019444444444444445,0.28055555555555556,1,0,0,4.7843143999925815,colour1,0.43194444444444446,0.10740740740740741,1,0,0,5.2024334000307135,number2,True,True,True,19,4,2019_Nov_14_1505,MA_Theta_Exp,3.0.7,60.149399066620845,
video/Experiment/zh_sp07_Dr_We_4_NoThetaInAudio_NoVideo.avi,noTheta,noVideo,sp07,Dr,We,4,1,4,flow/blocks/NoThetaInAudio_NoVideo_A.csv,,,,,,,,,0,1,1,1,0,31,31,31,,,,,,,,,-0.43472222222222223,0.3111111111111111,1,0,0,5.103244700003415,call1,0.03611111111111111,-0.3787037037037037,1,0,0,6.069680400018115,colour4,0.38055555555555554,-0.11342592592592593,1,0,0,6.832448999979533,number3,False,True,False,19,4,2019_Nov_14_1505,MA_Theta_Exp,3.0.7,60.149399066620845,
video/Experiment/zh_sp07_Ad_We_1_NVocInAudio_NoVideo.avi,vocoded,noVideo,sp07,Ad,We,1,2,2,flow/blocks/NVocInAudio_NoVideo_A.csv,,,,,,,,,0,2,2,2,0,0,0,12,,,,,,,,,-0.4083333333333333,0.31666666666666665,1,0,0,4.500750000006519,call1,0.030555555555555555,-0.3384259259259259,1,0,0,5.12266950000776,colour4,0.33611111111111114,0.3111111111111111,1,0,0,5.758054699981585,number1,True,True,True,19,4,2019_Nov_14_1505,MA_Theta_Exp,3.0.7,60.149399066620845,
video/Experiment/zh_sp01_Ad_We_2_NVocInAudio_NoVideo.avi,vocoded,noVideo,sp01,Ad,We,2,2,2,flow/blocks/NVocInAudio_NoVideo_A.csv,,,,,,,,,0,2,2,2,0,1,1,13,,,,,,,,,-0.3736111111111111,0.325,1,0,0,4.885727900022175,call1,0.001388888888888889,-0.3523148148148148,1,0,0,5.557897699996829,colour4,0.4638888888888889,0.09722222222222222,1,0,0,6.017051199974958,number2,True,True,True,19,4,2019_Nov_14_1505,MA_Theta_Exp,3.0.7,60.149399066620845,
video/Experiment/zh_sp01_Dr_Ge_1_NVocInAudio_NoVideo.avi,vocoded,noVideo,sp01,Dr,Ge,1,2,2,flow/blocks/NVocInAudio_NoVideo_A.csv,,,,,,,,,0,2,2,2,0,2,2,16,,,,,,,,,-0.34305555555555556,0.08657407407407407,1,0,0,5.013445699994918,call2,-0.018055555555555554,0.2847222222222222,1,0,0,5.464082899969071,colour1,0.35694444444444445,0.3125,1,0,0,5.898774899949785,number1,True,True,True,19,4,2019_Nov_14_1505,MA_Theta_Exp,3.0.7,60.149399066620845,
video/Experiment/zh_sp07_Dr_Gr_3_NVocInAudio_NoVideo.avi,vocoded,noVideo,sp07,Dr,Gr,3,2,2,flow/blocks/NVocInAudio_NoVideo_A.csv,,,,,,,,,0,2,2,2,0,3,3,22,,,,,,,,,-0.4125,0.06666666666666667,1,0,0,4.352110099978745,call2,-0.030555555555555555,0.08055555555555556,1,0,0,5.095662400010042,colour2,0.41805555555555557,-0.13148148148148148,1,0,0,5.750080000027083,number3,True,True,True,19,4,2019_Nov_14_1505,MA_Theta_Exp,3.0.7,60.149399066620845,
video/Experiment/zh_sp07_Dr_We_2_NVocInAudio_NoVideo.avi,vocoded,noVideo,sp07,Dr,We,2,2,2,flow/blocks/NVocInAudio_NoVideo_A.csv,,,,,,,,,0,2,2,2,0,4,4,29,,,,,,,,,-0.4013888888888889,0.11805555555555555,1,0,0,4.3338631999795325,call2,-0.022222222222222223,-0.3662037037037037,1,0,0,4.948987699986901,colour4,0.28055555555555556,0.10555555555555556,1,0,0,5.4168055999907665,number2,True,True,True,19,4,2019_Nov_14_1505,MA_Theta_Exp,3.0.7,60.149399066620845,
video/Experiment/zh_sp01_Ad_Gr_3_NVocInAudio_NoVideo.avi,vocoded,noVideo,sp01,Ad,Gr,3,2,2,flow/blocks/NVocInAudio_NoVideo_A.csv,,,,,,,,,0,2,2,2,0,5,5,6,,,,,,,,,-0.38333333333333336,0.33101851851851855,1,0,0,5.031618200009689,call1,-0.016666666666666666,0.08796296296296297,1,0,0,5.50040610000724,colour2,0.42777777777777776,-0.1037037037037037,1,0,0,6.138570300012361,number3,True,True,True,19,4,2019_Nov_14_1505,MA_Theta_Exp,3.0.7,60.149399066620845,
video/Experiment/zh_sp01_Dr_We_3_NVocInAudio_NoVideo.avi,vocoded,noVideo,sp01,Dr,We,3,2,2,flow/blocks/NVocInAudio_NoVideo_A.csv,,,,,,,,,0,2,2,2,0,6,6,30,,,,,,,,,-0.4583333333333333,0.10138888888888889,1,0,0,4.9505587000167,call2,0.004166666666666667,-0.34305555555555556,1,0,0,6.397441300039645,colour4,0.41805555555555557,-0.04583333333333333,1,0,0,6.850808000017423,number3,True,True,True,19,4,2019_Nov_14_1505,MA_Theta_Exp,3.0.7,60.149399066620845,
video/Experiment/zh_sp01_Dr_We_4_NVocInAudio_NoVideo.avi,vocoded,noVideo,sp01,Dr,We,4,2,2,flow/blocks/NVocInAudio_NoVideo_A.csv,,,,,,,,,0,2,2,2,0,7,7,31,,,,,,,,,-0.38333333333333336,0.12685185185185185,1,0,0,5.042932700016536,call2,-0.001388888888888889,-0.34675925925925927,1,0,0,5.5713119999854825,colour4,0.4111111111111111,-0.24166666666666667,1,0,0,6.00418940000236,number4,True,True,True,19,4,2019_Nov_14_1505,MA_Theta_Exp,3.0.7,60.149399066620845,
video/Experiment/zh_sp07_Dr_Gr_2_NVocInAudio_NoVideo.avi,vocoded,noVideo,sp07,Dr,Gr,2,2,2,flow/blocks/NVocInAudio_NoVideo_A.csv,,,,,,,,,0,2,2,2,0,8,8,21,,,,,,,,,-0.42916666666666664,0.10694444444444444,1,0,0,4.844479400024284,call2,0.027777777777777776,0.11805555555555555,1,0,0,6.280811499978881,colour2,0.3680555555555556,0.12777777777777777,1,0,0,6.664838899974711,number2,True,True,True,19,4,2019_Nov_14_1505,MA_Theta_Exp,3.0.7,60.149399066620845,
video/Experiment/zh_sp07_Ad_Ro_4_NVocInAudio_NoVideo.avi,vocoded,noVideo,sp07,Ad,Ro,4,2,2,flow/blocks/NVocInAudio_NoVideo_A.csv,,,,,,,,,0,2,2,2,0,9,9,11,,,,,,,,,-0.37083333333333335,0.2861111111111111,1,0,0,4.641458500002045,call1,0.04027777777777778,-0.13842592592592592,1,0,0,5.31114050000906,colour3,0.4083333333333333,-0.3425925925925926,1,0,0,5.803007099952083,number4,True,True,True,19,4,2019_Nov_14_1505,MA_Theta_Exp,3.0.7,60.149399066620845,
video/Experiment/zh_sp01_Ad_Gr_2_NVocInAudio_NoVideo.avi,vocoded,noVideo,sp01,Ad,Gr,2,2,2,flow/blocks/NVocInAudio_NoVideo_A.csv,,,,,,,,,0,2,2,2,0,10,10,5,,,,,,,,,-0.375,0.3013888888888889,1,0,0,5.0523555999970995,call1,0.0125,0.10462962962962963,1,0,0,5.502330599993002,colour2,0.39166666666666666,0.12361111111111112,1,0,0,5.871580100036226,number2,True,True,True,19,4,2019_Nov_14_1505,MA_Theta_Exp,3.0.7,60.149399066620845,
video/Experiment/zh_sp01_Dr_Ro_3_NVocInAudio_NoVideo.avi,vocoded,noVideo,sp01,Dr,Ro,3,2,2,flow/blocks/NVocInAudio_NoVideo_A.csv,,,,,,,,,0,2,2,2,0,11,11,26,,,,,,,,,-0.38333333333333336,0.08888888888888889,1,0,0,5.047874399984721,call2,0.029166666666666667,-0.10925925925925926,1,0,0,5.452740000037011,colour3,0.3402777777777778,-0.1037037037037037,1,0,0,5.984862699988298,number3,True,True,True,19,4,2019_Nov_14_1505,MA_Theta_Exp,3.0.7,60.149399066620845,
video/Experiment/zh_sp07_Dr_Gr_1_NVocInAudio_NoVideo.avi,vocoded,noVideo,sp07,Dr,Gr,1,2,2,flow/blocks/NVocInAudio_NoVideo_A.csv,,,,,,,,,0,2,2,2,0,12,12,20,,,,,,,,,-0.4305555555555556,0.08055555555555556,1,0,0,4.68924939999124,call2,-0.015277777777777777,0.08333333333333333,1,0,0,5.072280700027477,colour2,0.32222222222222224,0.30277777777777776,1,0,0,5.4898036000085995,number1,True,True,True,19,4,2019_Nov_14_1505,MA_Theta_Exp,3.0.7,60.149399066620845,
video/Experiment/zh_sp07_Ad_Ro_1_NVocInAudio_NoVideo.avi,vocoded,noVideo,sp07,Ad,Ro,1,2,2,flow/blocks/NVocInAudio_NoVideo_A.csv,,,,,,,,,0,2,2,2,0,13,13,8,,,,,,,,,-0.4111111111111111,0.35138888888888886,1,0,0,4.220910499978345,call1,0.006944444444444444,-0.09675925925925925,1,0,0,4.75342790002469,colour3,0.3902777777777778,0.2972222222222222,1,0,0,5.203048099996522,number1,True,True,True,19,4,2019_Nov_14_1505,MA_Theta_Exp,3.0.7,60.149399066620845,
video/Experiment/zh_sp07_Ad_Ge_1_NVocInAudio_NoVideo.avi,vocoded,noVideo,sp07,Ad,Ge,1,2,2,flow/blocks/NVocInAudio_NoVideo_A.csv,,,,,,,,,0,2,2,2,0,14,14,0,,,,,,,,,-0.3763888888888889,0.26805555555555555,1,0,0,4.332676300022285,call1,0.0125,0.31805555555555554,1,0,0,4.7513828000519425,colour1,0.39861111111111114,0.3087962962962963,1,0,0,5.131326300033834,number1,True,True,True,19,4,2019_Nov_14_1505,MA_Theta_Exp,3.0.7,60.149399066620845,
video/Experiment/zh_sp01_Ad_Ge_2_NVocInAudio_NoVideo.avi,vocoded,noVideo,sp01,Ad,Ge,2,2,2,flow/blocks/NVocInAudio_NoVideo_A.csv,,,,,,,,,0,2,2,2,0,15,15,1,,,,,,,,,-0.375,0.3087962962962963,1,0,0,5.145272399997339,call1,-0.04027777777777778,0.3055555555555556,1,0,0,5.602025699976366,colour1,0.38472222222222224,0.12546296296296297,1,0,0,6.038421600009315,number2,True,True,True,19,4,2019_Nov_14_1505,MA_Theta_Exp,3.0.7,60.149399066620845,
video/Experiment/zh_sp07_Ad_Gr_1_NVocInAudio_NoVideo.avi,vocoded,noVideo,sp07,Ad,Gr,1,2,2,flow/blocks/NVocInAudio_NoVideo_A.csv,,,,,,,,,0,2,2,2,0,16,16,4,,,,,,,,,-0.375,0.2972222222222222,1,0,0,4.466752799984533,call1,-0.03333333333333333,0.10324074074074074,1,0,0,4.900249600003008,colour2,0.3527777777777778,0.26666666666666666,1,0,0,5.283451299997978,number1,True,True,True,19,4,2019_Nov_14_1505,MA_Theta_Exp,3.0.7,60.149399066620845,
video/Experiment/zh_sp07_Ad_Ge_4_NVocInAudio_NoVideo.avi,vocoded,noVideo,sp07,Ad,Ge,4,2,2,flow/blocks/NVocInAudio_NoVideo_A.csv,,,,,,,,,0,2,2,2,0,17,17,3,,,,,,,,,-0.4263888888888889,0.2847222222222222,1,0,0,4.661320600018371,call1,0.027777777777777776,0.2972222222222222,1,0,0,5.266265399986878,colour1,0.4527777777777778,-0.3398148148148148,1,0,0,5.999625699943863,number4,True,True,True,19,4,2019_Nov_14_1505,MA_Theta_Exp,3.0.7,60.149399066620845,
video/Experiment/zh_sp07_Ad_Ro_2_NVocInAudio_NoVideo.avi,vocoded,noVideo,sp07,Ad,Ro,2,2,2,flow/blocks/NVocInAudio_NoVideo_A.csv,,,,,,,,,0,2,2,2,0,18,18,9,,,,,,,,,-0.4083333333333333,0.2916666666666667,1,0,0,4.527167799999006,call1,-0.030555555555555555,-0.08842592592592592,1,0,0,5.006714299961459,colour3,0.39166666666666666,0.07777777777777778,1,0,0,5.387555599969346,number2,True,True,True,19,4,2019_Nov_14_1505,MA_Theta_Exp,3.0.7,60.149399066620845,
video/Experiment/zh_sp01_Ad_We_3_NVocInAudio_NoVideo.avi,vocoded,noVideo,sp01,Ad,We,3,2,2,flow/blocks/NVocInAudio_NoVideo_A.csv,,,,,,,,,0,2,2,2,0,19,19,14,,,,,,,,,-0.41388888888888886,0.28888888888888886,1,0,0,4.862974499992561,call1,-0.025,-0.34814814814814815,1,0,0,5.451518399990164,colour4,0.4013888888888889,-0.0875,1,0,0,5.8010235000401735,number3,True,True,True,19,4,2019_Nov_14_1505,MA_Theta_Exp,3.0.7,60.149399066620845,
video/Experiment/zh_sp01_Dr_Ro_1_NVocInAudio_NoVideo.avi,vocoded,noVideo,sp01,Dr,Ro,1,2,2,flow/blocks/NVocInAudio_NoVideo_A.csv,,,,,,,,,0,2,2,2,0,20,20,24,,,,,,,,,-0.40694444444444444,0.09861111111111111,1,0,0,5.182791300001554,call2,-0.058333333333333334,-0.09675925925925925,1,0,0,5.588731199968606,colour3,0.4125,0.2763888888888889,1,0,0,5.997920299996622,number1,True,True,True,19,4,2019_Nov_14_1505,MA_Theta_Exp,3.0.7,60.149399066620845,
video/Experiment/zh_sp01_Ad_Ge_3_NVocInAudio_NoVideo.avi,vocoded,noVideo,sp01,Ad,Ge,3,2,2,flow/blocks/NVocInAudio_NoVideo_A.csv,,,,,,,,,0,2,2,2,0,21,21,2,,,,,,,,,-0.39305555555555555,0.06111111111111111,1,0,0,4.913362299965229,call2,0.020833333333333332,0.25416666666666665,1,0,0,5.629018699983135,colour1,0.4097222222222222,-0.15231481481481482,1,0,0,6.068987999984529,number3,False,True,True,19,4,2019_Nov_14_1505,MA_Theta_Exp,3.0.7,60.149399066620845,
video/Experiment/zh_sp07_Dr_Ro_2_NVocInAudio_NoVideo.avi,vocoded,noVideo,sp07,Dr,Ro,2,2,2,flow/blocks/NVocInAudio_NoVideo_A.csv,,,,,,,,,0,2,2,2,0,22,22,25,,,,,,,,,-0.3597222222222222,0.09027777777777778,1,0,0,4.598519500053953,call2,-0.004166666666666667,-0.1162037037037037,1,0,0,5.183546099986415,colour3,0.3736111111111111,0.07777777777777778,1,0,0,5.530892799957655,number2,True,True,True,19,4,2019_Nov_14_1505,MA_Theta_Exp,3.0.7,60.149399066620845,
video/Experiment/zh_sp01_Ad_We_4_NVocInAudio_NoVideo.avi,vocoded,noVideo,sp01,Ad,We,4,2,2,flow/blocks/NVocInAudio_NoVideo_A.csv,,,,,,,,,0,2,2,2,0,23,23,15,,,,,,,,,-0.3458333333333333,0.30277777777777776,1,0,0,5.001557000039611,call1,0.030555555555555555,-0.3384259259259259,1,0,0,5.525494900008198,colour4,0.46944444444444444,-0.29305555555555557,1,0,0,5.915087000001222,number4,True,True,True,19,4,2019_Nov_14_1505,MA_Theta_Exp,3.0.7,60.149399066620845,
video/Experiment/zh_sp07_Dr_Ge_4_NVocInAudio_NoVideo.avi,vocoded,noVideo,sp07,Dr,Ge,4,2,2,flow/blocks/NVocInAudio_NoVideo_A.csv,,,,,,,,,0,2,2,2,0,24,24,19,,,,,,,,,-0.4361111111111111,0.10694444444444444,1,0,0,4.431460699997842,call2,0.025,0.24583333333333332,1,0,0,5.169384600012563,colour1,0.4361111111111111,-0.35648148148148145,1,0,0,5.631911400007084,number4,True,True,True,19,4,2019_Nov_14_1505,MA_Theta_Exp,3.0.7,60.149399066620845,
video/Experiment/zh_sp01_Dr_Ro_4_NVocInAudio_NoVideo.avi,vocoded,noVideo,sp01,Dr,Ro,4,2,2,flow/blocks/NVocInAudio_NoVideo_A.csv,,,,,,,,,0,2,2,2,0,25,25,27,,,,,,,,,-0.48055555555555557,0.125,1,0,0,4.801913600007538,call2,-0.011111111111111112,-0.17453703703703705,1,0,0,5.38218059996143,colour3,0.35833333333333334,-0.3800925925925926,1,0,0,5.846485100046266,number4,True,True,True,19,4,2019_Nov_14_1505,MA_Theta_Exp,3.0.7,60.149399066620845,
video/Experiment/zh_sp01_Ad_Ro_3_NVocInAudio_NoVideo.avi,vocoded,noVideo,sp01,Ad,Ro,3,2,2,flow/blocks/NVocInAudio_NoVideo_A.csv,,,,,,,,,0,2,2,2,0,26,26,10,,,,,,,,,-0.4388888888888889,0.3,1,0,0,5.089171800005715,call1,-0.011111111111111112,-0.13425925925925927,1,0,0,5.543846999993548,colour3,0.37222222222222223,-0.10138888888888889,1,0,0,5.906637699983548,number3,True,True,True,19,4,2019_Nov_14_1505,MA_Theta_Exp,3.0.7,60.149399066620845,
video/Experiment/zh_sp07_Dr_Ge_3_NVocInAudio_NoVideo.avi,vocoded,noVideo,sp07,Dr,Ge,3,2,2,flow/blocks/NVocInAudio_NoVideo_A.csv,,,,,,,,,0,2,2,2,0,27,27,18,,,,,,,,,-0.39305555555555555,0.10277777777777777,1,0,0,4.4530795000027865,call2,-0.05138888888888889,0.29583333333333334,1,0,0,4.851713899988681,colour1,0.4097222222222222,-0.1259259259259259,1,0,0,5.331260500010103,number3,True,True,True,19,4,2019_Nov_14_1505,MA_Theta_Exp,3.0.7,60.149399066620845,
video/Experiment/zh_sp07_Dr_Ge_2_NVocInAudio_NoVideo.avi,vocoded,noVideo,sp07,Dr,Ge,2,2,2,flow/blocks/NVocInAudio_NoVideo_A.csv,,,,,,,,,0,2,2,2,0,28,28,17,,,,,,,,,-0.4111111111111111,0.05694444444444444,1,0,0,4.590909000020474,call2,-0.019444444444444445,0.33194444444444443,1,0,0,5.00939969997853,colour1,0.3236111111111111,0.12407407407407407,1,0,0,5.427812100038864,number2,True,True,True,19,4,2019_Nov_14_1505,MA_Theta_Exp,3.0.7,60.149399066620845,
video/Experiment/zh_sp01_Ad_Gr_4_NVocInAudio_NoVideo.avi,vocoded,noVideo,sp01,Ad,Gr,4,2,2,flow/blocks/NVocInAudio_NoVideo_A.csv,,,,,,,,,0,2,2,2,0,29,29,7,,,,,,,,,-0.4041666666666667,0.3388888888888889,1,0,0,4.955961900006514,call1,0.02638888888888889,0.10185185185185185,1,0,0,5.353839899995364,colour2,0.3347222222222222,-0.25925925925925924,1,0,0,5.805620099999942,number4,True,True,True,19,4,2019_Nov_14_1505,MA_Theta_Exp,3.0.7,60.149399066620845,
video/Experiment/zh_sp01_Dr_Gr_4_NVocInAudio_NoVideo.avi,vocoded,noVideo,sp01,Dr,Gr,4,2,2,flow/blocks/NVocInAudio_NoVideo_A.csv,,,,,,,,,0,2,2,2,0,30,30,23,,,,,,,,,-0.4513888888888889,0.0699074074074074,1,0,0,5.196398800006136,call2,0.043055555555555555,0.09166666666666666,1,0,0,5.611058500013314,colour2,0.3763888888888889,-0.3314814814814815,1,0,0,6.088828600011766,number4,True,True,True,19,4,2019_Nov_14_1505,MA_Theta_Exp,3.0.7,60.149399066620845,
video/Experiment/zh_sp07_Dr_We_1_NVocInAudio_NoVideo.avi,vocoded,noVideo,sp07,Dr,We,1,2,2,flow/blocks/NVocInAudio_NoVideo_A.csv,,,,,,,,,0,2,2,2,0,31,31,28,,,,,,,,,-0.4013888888888889,0.07824074074074074,1,0,0,4.519371400005184,call2,0.013888888888888888,-0.32731481481481484,1,0,0,5.0227146000252105,colour4,0.35,0.2972222222222222,1,0,0,5.6236544999992475,number1,True,True,True,19,4,2019_Nov_14_1505,MA_Theta_Exp,3.0.7,60.149399066620845,
video/Experiment/zh_sp01_Ad_Ge_4_NoThetaInAudio_GlobalThetaInVideo.avi,noTheta,plusVideo,sp01,Ad,Ge,4,3,3,flow/blocks/NoThetaInAudio_GlobalThetaInVideo_A.csv,,,,,,,,,0,3,3,3,0,0,0,3,,,,,,,,,-0.3958333333333333,0.3333333333333333,1,0,0,5.180189500038978,call1,0.08472222222222223,0.26805555555555555,1,0,0,5.588988900010008,colour1,0.44027777777777777,-0.32592592592592595,1,0,0,6.298235299997032,number4,True,True,True,19,4,2019_Nov_14_1505,MA_Theta_Exp,3.0.7,60.149399066620845,
video/Experiment/zh_sp01_Ad_Ro_3_NoThetaInAudio_GlobalThetaInVideo.avi,noTheta,plusVideo,sp01,Ad,Ro,3,3,3,flow/blocks/NoThetaInAudio_GlobalThetaInVideo_A.csv,,,,,,,,,0,3,3,3,0,1,1,10,,,,,,,,,-0.37083333333333335,0.2875,1,0,0,5.057369599991944,call1,0.001388888888888889,-0.1412037037037037,1,0,0,5.514731899951585,colour3,0.40694444444444444,-0.07083333333333333,1,0,0,5.888019300007727,number3,True,True,True,19,4,2019_Nov_14_1505,MA_Theta_Exp,3.0.7,60.149399066620845,
video/Experiment/zh_sp07_Dr_We_2_NoThetaInAudio_GlobalThetaInVideo.avi,noTheta,plusVideo,sp07,Dr,We,2,3,3,flow/blocks/NoThetaInAudio_GlobalThetaInVideo_A.csv,,,,,,,,,0,3,3,3,0,2,2,29,,,,,,,,,-0.3736111111111111,0.09768518518518518,1,0,0,5.230408200004604,call2,0.011111111111111112,-0.3648148148148148,1,0,0,5.6991395999793895,colour4,0.4,0.29444444444444445,1,0,0,6.229350300040096,number1,True,True,False,19,4,2019_Nov_14_1505,MA_Theta_Exp,3.0.7,60.149399066620845,
video/Experiment/zh_sp07_Dr_Gr_4_NoThetaInAudio_GlobalThetaInVideo.avi,noTheta,plusVideo,sp07,Dr,Gr,4,3,3,flow/blocks/NoThetaInAudio_GlobalThetaInVideo_A.csv,,,,,,,,,0,3,3,3,0,3,3,23,,,,,,,,,-0.36666666666666664,0.15,1,0,0,4.379421899968293,call2,0.04027777777777778,0.0763888888888889,1,0,0,4.962325300031807,colour2,0.4125,-0.28888888888888886,1,0,0,5.466317699989304,number4,True,True,True,19,4,2019_Nov_14_1505,MA_Theta_Exp,3.0.7,60.149399066620845,
video/Experiment/zh_sp07_Ad_We_3_NoThetaInAudio_GlobalThetaInVideo.avi,noTheta,plusVideo,sp07,Ad,We,3,3,3,flow/blocks/NoThetaInAudio_GlobalThetaInVideo_A.csv,,,,,,,,,0,3,3,3,0,4,4,14,,,,,,,,,-0.3875,0.3236111111111111,1,0,0,5.2550703000160865,call1,-0.05138888888888889,0.10601851851851851,1,0,0,5.65513909998117,colour2,0.42777777777777776,-0.2953703703703704,1,0,0,6.1216790000326,number4,True,False,False,19,4,2019_Nov_14_1505,MA_Theta_Exp,3.0.7,60.149399066620845,
video/Experiment/zh_sp07_Ad_Ge_2_NoThetaInAudio_GlobalThetaInVideo.avi,noTheta,plusVideo,sp07,Ad,Ge,2,3,3,flow/blocks/NoThetaInAudio_GlobalThetaInVideo_A.csv,,,,,,,,,0,3,3,3,0,5,5,1,,,,,,,,,-0.4013888888888889,0.30324074074074076,1,0,0,4.400227400008589,call1,0.04861111111111111,-0.3592592592592593,1,0,0,5.119267900008708,colour4,0.37916666666666665,0.23472222222222222,1,0,0,5.612724900012836,number1,True,False,False,19,4,2019_Nov_14_1505,MA_Theta_Exp,3.0.7,60.149399066620845,
video/Experiment/zh_sp07_Ad_We_4_NoThetaInAudio_GlobalThetaInVideo.avi,noTheta,plusVideo,sp07,Ad,We,4,3,3,flow/blocks/NoThetaInAudio_GlobalThetaInVideo_A.csv,,,,,,,,,0,3,3,3,0,6,6,15,,,,,,,,,-0.41388888888888886,0.33055555555555555,1,0,0,4.464691300003324,call1,-0.044444444444444446,-0.30092592592592593,1,0,0,5.480091400037054,colour4,0.4222222222222222,-0.31666666666666665,1,0,0,5.9970170999877155,number4,True,True,True,19,4,2019_Nov_14_1505,MA_Theta_Exp,3.0.7,60.149399066620845,
video/Experiment/zh_sp07_Ad_Ge_1_NoThetaInAudio_GlobalThetaInVideo.avi,noTheta,plusVideo,sp07,Ad,Ge,1,3,3,flow/blocks/NoThetaInAudio_GlobalThetaInVideo_A.csv,,,,,,,,,0,3,3,3,0,7,7,0,,,,,,,,,-0.43333333333333335,0.29768518518518516,1,0,0,4.515661499986891,call1,-0.001388888888888889,0.26944444444444443,1,0,0,4.966520199959632,colour1,0.44583333333333336,0.3333333333333333,1,0,0,5.41351250000298,number1,True,True,True,19,4,2019_Nov_14_1505,MA_Theta_Exp,3.0.7,60.149399066620845,
video/Experiment/zh_sp01_Dr_Ge_2_NoThetaInAudio_GlobalThetaInVideo.avi,noTheta,plusVideo,sp01,Dr,Ge,2,3,3,flow/blocks/NoThetaInAudio_GlobalThetaInVideo_A.csv,,,,,,,,,0,3,3,3,0,8,8,17,,,,,,,,,-0.375,0.2861111111111111,1,0,0,6.039674999949057,call1,-0.009722222222222222,0.3416666666666667,1,0,0,6.578663800028153,colour1,0.36666666666666664,0.34305555555555556,1,0,0,7.236060399969574,number1,False,True,False,19,4,2019_Nov_14_1505,MA_Theta_Exp,3.0.7,60.149399066620845,
video/Experiment/zh_sp01_Ad_Ro_4_NoThetaInAudio_GlobalThetaInVideo.avi,noTheta,plusVideo,sp01,Ad,Ro,4,3,3,flow/blocks/NoThetaInAudio_GlobalThetaInVideo_A.csv,,,,,,,,,0,3,3,3,0,9,9,11,,,,,,,,,-0.39444444444444443,0.3236111111111111,1,0,0,5.355879599985201,call1,-0.008333333333333333,-0.10925925925925926,1,0,0,5.8607431999989785,colour3,0.3347222222222222,-0.2773148148148148,1,0,0,6.265450300008524,number4,True,True,True,19,4,2019_Nov_14_1505,MA_Theta_Exp,3.0.7,60.149399066620845,
video/Experiment/zh_sp07_Ad_Gr_4_NoThetaInAudio_GlobalThetaInVideo.avi,noTheta,plusVideo,sp07,Ad,Gr,4,3,3,flow/blocks/NoThetaInAudio_GlobalThetaInVideo_A.csv,,,,,,,,,0,3,3,3,0,10,10,7,,,,,,,,,-0.4083333333333333,0.3402777777777778,1,0,0,4.377094499999657,call1,-0.016666666666666666,0.10324074074074074,1,0,0,4.795782800007146,colour2,0.3875,-0.3023148148148148,1,0,0,5.300042500020936,number4,True,True,True,19,4,2019_Nov_14_1505,MA_Theta_Exp,3.0.7,60.149399066620845,
video/Experiment/zh_sp01_Dr_Gr_2_NoThetaInAudio_GlobalThetaInVideo.avi,noTheta,plusVideo,sp01,Dr,Gr,2,3,3,flow/blocks/NoThetaInAudio_GlobalThetaInVideo_A.csv,,,,,,,,,0,3,3,3,0,11,11,21,,,,,,,,,-0.3680555555555556,0.06157407407407407,1,0,0,5.249605899967719,call2,0.034722222222222224,0.08333333333333333,1,0,0,5.627223299990874,colour2,0.3486111111111111,0.125,1,0,0,5.945325499982573,number2,True,True,True,19,4,2019_Nov_14_1505,MA_Theta_Exp,3.0.7,60.149399066620845,
video/Experiment/zh_sp07_Dr_Ro_1_NoThetaInAudio_GlobalThetaInVideo.avi,noTheta,plusVideo,sp07,Dr,Ro,1,3,3,flow/blocks/NoThetaInAudio_GlobalThetaInVideo_A.csv,,,,,,,,,0,3,3,3,0,12,12,24,,,,,,,,,-0.3958333333333333,0.10694444444444444,1,0,0,4.278032400005031,call2,0.02638888888888889,0.05694444444444444,1,0,0,5.084136900026351,colour2,0.39444444444444443,0.3236111111111111,1,0,0,5.485867600014899,number1,True,False,True,19,4,2019_Nov_14_1505,MA_Theta_Exp,3.0.7,60.149399066620845,
video/Experiment/zh_sp07_Dr_Ro_3_NoThetaInAudio_GlobalThetaInVideo.avi,noTheta,plusVideo,sp07,Dr,Ro,3,3,3,flow/blocks/NoThetaInAudio_GlobalThetaInVideo_A.csv,,,,,,,,,0,3,3,3,0,13,13,26,,,,,,,,,-0.3486111111111111,0.06805555555555555,1,0,0,4.4464383000158705,call2,-0.006944444444444444,0.30277777777777776,1,0,0,4.954013799957465,colour1,0.41805555555555557,-0.10231481481481482,1,0,0,5.386339600023348,number3,True,False,True,19,4,2019_Nov_14_1505,MA_Theta_Exp,3.0.7,60.149399066620845,
video/Experiment/zh_sp07_Dr_Gr_1_NoThetaInAudio_GlobalThetaInVideo.avi,noTheta,plusVideo,sp07,Dr,Gr,1,3,3,flow/blocks/NoThetaInAudio_GlobalThetaInVideo_A.csv,,,,,,,,,0,3,3,3,0,14,14,20,,,,,,,,,-0.41805555555555557,0.058333333333333334,1,0,0,4.352097199996933,call2,-0.019444444444444445,0.0763888888888889,1,0,0,4.752485399949364,colour2,0.3263888888888889,0.31805555555555554,1,0,0,5.114481800002977,number1,True,True,True,19,4,2019_Nov_14_1505,MA_Theta_Exp,3.0.7,60.149399066620845,
video/Experiment/zh_sp01_Dr_Ge_3_NoThetaInAudio_GlobalThetaInVideo.avi,noTheta,plusVideo,sp01,Dr,Ge,3,3,3,flow/blocks/NoThetaInAudio_GlobalThetaInVideo_A.csv,,,,,,,,,0,3,3,3,0,15,15,18,,,,,,,,,-0.4152777777777778,0.3111111111111111,1,0,0,4.953963699983433,call1,0.004166666666666667,0.30694444444444446,1,0,0,5.360903099994175,colour1,0.36527777777777776,-0.12222222222222222,1,0,0,6.074320500018075,number3,False,True,True,19,4,2019_Nov_14_1505,MA_Theta_Exp,3.0.7,60.149399066620845,
video/Experiment/zh_sp01_Ad_Gr_2_NoThetaInAudio_GlobalThetaInVideo.avi,noTheta,plusVideo,sp01,Ad,Gr,2,3,3,flow/blocks/NoThetaInAudio_GlobalThetaInVideo_A.csv,,,,,,,,,0,3,3,3,0,16,16,5,,,,,,,,,-0.4125,0.2986111111111111,1,0,0,5.241560900001787,call1,0.013888888888888888,0.0824074074074074,1,0,0,5.681306999991648,colour2,0.4027777777777778,0.11388888888888889,1,0,0,6.126032600004692,number2,True,True,True,19,4,2019_Nov_14_1505,MA_Theta_Exp,3.0.7,60.149399066620845,
video/Experiment/zh_sp07_Ad_We_1_NoThetaInAudio_GlobalThetaInVideo.avi,noTheta,plusVideo,sp07,Ad,We,1,3,3,flow/blocks/NoThetaInAudio_GlobalThetaInVideo_A.csv,,,,,,,,,0,3,3,3,0,17,17,12,,,,,,,,,-0.41944444444444445,0.32916666666666666,1,0,0,4.593965400010347,call1,0.0,-0.30925925925925923,1,0,0,5.143139599997085,colour4,0.3347222222222222,0.24583333333333332,1,0,0,5.630369999969844,number1,True,True,True,19,4,2019_Nov_14_1505,MA_Theta_Exp,3.0.7,60.149399066620845,
video/Experiment/zh_sp07_Ad_Ro_1_NoThetaInAudio_GlobalThetaInVideo.avi,noTheta,plusVideo,sp07,Ad,Ro,1,3,3,flow/blocks/NoThetaInAudio_GlobalThetaInVideo_A.csv,,,,,,,,,0,3,3,3,0,18,18,8,,,,,,,,,-0.36666666666666664,0.3347222222222222,1,0,0,4.168540799990296,call1,-0.015277777777777777,0.12777777777777777,1,0,0,4.858238399960101,colour2,0.43472222222222223,0.35138888888888886,1,0,0,5.236242500017397,number1,True,False,True,19,4,2019_Nov_14_1505,MA_Theta_Exp,3.0.7,60.149399066620845,
video/Experiment/zh_sp07_Ad_We_2_NoThetaInAudio_GlobalThetaInVideo.avi,noTheta,plusVideo,sp07,Ad,We,2,3,3,flow/blocks/NoThetaInAudio_GlobalThetaInVideo_A.csv,,,,,,,,,0,3,3,3,0,19,19,13,,,,,,,,,-0.39305555555555555,0.32222222222222224,1,0,0,4.377104599960148,call1,0.03194444444444444,-0.3731481481481482,1,0,0,5.050899700028822,colour4,0.38055555555555554,0.12361111111111112,1,0,0,5.482348499994259,number2,True,True,True,19,4,2019_Nov_14_1505,MA_Theta_Exp,3.0.7,60.149399066620845,
video/Experiment/zh_sp01_Dr_Ro_2_NoThetaInAudio_GlobalThetaInVideo.avi,noTheta,plusVideo,sp01,Dr,Ro,2,3,3,flow/blocks/NoThetaInAudio_GlobalThetaInVideo_A.csv,,,,,,,,,0,3,3,3,0,20,20,25,,,,,,,,,-0.4236111111111111,0.12083333333333333,1,0,0,4.9354478000313975,call2,-0.04861111111111111,-0.13287037037037036,1,0,0,5.382118299952708,colour3,0.37916666666666665,0.07777777777777778,1,0,0,5.772922100033611,number2,True,True,True,19,4,2019_Nov_14_1505,MA_Theta_Exp,3.0.7,60.149399066620845,
video/Experiment/zh_sp01_Ad_Gr_3_NoThetaInAudio_GlobalThetaInVideo.avi,noTheta,plusVideo,sp01,Ad,Gr,3,3,3,flow/blocks/NoThetaInAudio_GlobalThetaInVideo_A.csv,,,,,,,,,0,3,3,3,0,21,21,6,,,,,,,,,-0.4041666666666667,0.30277777777777776,1,0,0,4.987859899993055,call1,-0.005555555555555556,0.07685185185185185,1,0,0,5.371767200005706,colour2,0.3402777777777778,-0.09675925925925925,1,0,0,5.763211500016041,number3,True,True,True,19,4,2019_Nov_14_1505,MA_Theta_Exp,3.0.7,60.149399066620845,
video/Experiment/zh_sp07_Dr_Ge_1_NoThetaInAudio_GlobalThetaInVideo.avi,noTheta,plusVideo,sp07,Dr,Ge,1,3,3,flow/blocks/NoThetaInAudio_GlobalThetaInVideo_A.csv,,,,,,,,,0,3,3,3,0,22,22,16,,,,,,,,,-0.3972222222222222,0.07685185185185185,1,0,0,4.527505500009283,call2,-0.019444444444444445,-0.3453703703703704,1,0,0,5.08668549999129,colour4,0.3541666666666667,0.325,1,0,0,5.660758899990469,number1,True,False,True,19,4,2019_Nov_14_1505,MA_Theta_Exp,3.0.7,60.149399066620845,
video/Experiment/zh_sp01_Dr_We_4_NoThetaInAudio_GlobalThetaInVideo.avi,noTheta,plusVideo,sp01,Dr,We,4,3,3,flow/blocks/NoThetaInAudio_GlobalThetaInVideo_A.csv,,,,,,,,,0,3,3,3,0,23,23,31,,,,,,,,,-0.4597222222222222,0.1125,1,0,0,5.092159599997103,call2,-0.07083333333333333,-0.35,1,0,0,5.608685699990019,colour4,0.45555555555555555,-0.25833333333333336,1,0,0,6.092242000042461,number4,True,True,True,19,4,2019_Nov_14_1505,MA_Theta_Exp,3.0.7,60.149399066620845,
video/Experiment/zh_sp07_Dr_We_1_NoThetaInAudio_GlobalThetaInVideo.avi,noTheta,plusVideo,sp07,Dr,We,1,3,3,flow/blocks/NoThetaInAudio_GlobalThetaInVideo_A.csv,,,,,,,,,0,3,3,3,0,24,24,28,,,,,,,,,-0.3611111111111111,0.11666666666666667,1,0,0,4.569888899975922,call2,0.008333333333333333,-0.34953703703703703,1,0,0,5.021948900015559,colour4,0.3902777777777778,0.29583333333333334,1,0,0,5.557084899977781,number1,True,True,True,19,4,2019_Nov_14_1505,MA_Theta_Exp,3.0.7,60.149399066620845,
video/Experiment/zh_sp01_Dr_We_3_NoThetaInAudio_GlobalThetaInVideo.avi,noTheta,plusVideo,sp01,Dr,We,3,3,3,flow/blocks/NoThetaInAudio_GlobalThetaInVideo_A.csv,,,,,,,,,0,3,3,3,0,25,25,30,,,,,,,,,-0.38333333333333336,0.0837962962962963,1,0,0,5.6784928000415675,call2,0.005555555555555556,-0.37453703703703706,1,0,0,6.260875699983444,colour4,0.3486111111111111,-0.10694444444444444,1,0,0,6.8074492999585345,number3,True,True,True,19,4,2019_Nov_14_1505,MA_Theta_Exp,3.0.7,60.149399066620845,
video/Experiment/zh_sp01_Dr_Gr_3_NoThetaInAudio_GlobalThetaInVideo.avi,noTheta,plusVideo,sp01,Dr,Gr,3,3,3,flow/blocks/NoThetaInAudio_GlobalThetaInVideo_A.csv,,,,,,,,,0,3,3,3,0,26,26,22,,,,,,,,,-0.4722222222222222,0.1361111111111111,1,0,0,4.964412900037132,call2,-0.005555555555555556,-0.3675925925925926,1,0,0,5.663444200006779,colour4,0.3902777777777778,-0.07916666666666666,1,0,0,6.07476480002515,number3,True,False,True,19,4,2019_Nov_14_1505,MA_Theta_Exp,3.0.7,60.149399066620845,
video/Experiment/zh_sp01_Ad_Ge_3_NoThetaInAudio_GlobalThetaInVideo.avi,noTheta,plusVideo,sp01,Ad,Ge,3,3,3,flow/blocks/NoThetaInAudio_GlobalThetaInVideo_A.csv,,,,,,,,,0,3,3,3,0,27,27,2,,,,,,,,,-0.425,0.27361111111111114,1,0,0,5.000891699979547,call1,-0.07916666666666666,0.2972222222222222,1,0,0,5.472910400014371,colour1,0.43194444444444446,-0.07314814814814814,1,0,0,6.070135299989488,number3,True,True,True,19,4,2019_Nov_14_1505,MA_Theta_Exp,3.0.7,60.149399066620845,
video/Experiment/zh_sp01_Dr_Ge_4_NoThetaInAudio_GlobalThetaInVideo.avi,noTheta,plusVideo,sp01,Dr,Ge,4,3,3,flow/blocks/NoThetaInAudio_GlobalThetaInVideo_A.csv,,,,,,,,,0,3,3,3,0,28,28,19,,,,,,,,,-0.3680555555555556,0.32083333333333336,1,0,0,4.845492799999192,call1,-0.005555555555555556,0.34305555555555556,1,0,0,5.340602100011893,colour1,0.44027777777777777,-0.28703703703703703,1,0,0,5.897290900000371,number4,False,True,True,19,4,2019_Nov_14_1505,MA_Theta_Exp,3.0.7,60.149399066620845,
video/Experiment/zh_sp07_Dr_Ro_4_NoThetaInAudio_GlobalThetaInVideo.avi,noTheta,plusVideo,sp07,Dr,Ro,4,3,3,flow/blocks/NoThetaInAudio_GlobalThetaInVideo_A.csv,,,,,,,,,0,3,3,3,0,29,29,27,,,,,,,,,-0.35833333333333334,0.11157407407407408,1,0,0,4.433510500006378,call2,0.005555555555555556,0.2875,1,0,0,4.862050399999134,colour1,0.36666666666666664,-0.23287037037037037,1,0,0,5.364060599997174,number4,True,False,True,19,4,2019_Nov_14_1505,MA_Theta_Exp,3.0.7,60.149399066620845,
video/Experiment/zh_sp01_Ad_Gr_1_NoThetaInAudio_GlobalThetaInVideo.avi,noTheta,plusVideo,sp01,Ad,Gr,1,3,3,flow/blocks/NoThetaInAudio_GlobalThetaInVideo_A.csv,,,,,,,,,0,3,3,3,0,30,30,4,,,,,,,,,-0.3888888888888889,0.3574074074074074,1,0,0,5.109184600005392,call1,0.015277777777777777,0.06851851851851852,1,0,0,5.613612499961164,colour2,0.3972222222222222,0.22777777777777777,1,0,0,6.093106400046963,number1,True,True,True,19,4,2019_Nov_14_1505,MA_Theta_Exp,3.0.7,60.149399066620845,
video/Experiment/zh_sp01_Ad_Ro_2_NoThetaInAudio_GlobalThetaInVideo.avi,noTheta,plusVideo,sp01,Ad,Ro,2,3,3,flow/blocks/NoThetaInAudio_GlobalThetaInVideo_A.csv,,,,,,,,,0,3,3,3,0,31,31,9,,,,,,,,,-0.4166666666666667,0.3087962962962963,1,0,0,4.994505100010429,call1,0.015277777777777777,0.08518518518518518,1,0,0,5.442382999986876,colour2,0.3416666666666667,0.12222222222222222,1,0,0,5.774847099964973,number2,True,False,True,19,4,2019_Nov_14_1505,MA_Theta_Exp,3.0.7,60.149399066620845,
video/Experiment/zh_sp07_Dr_We_3_GlobalTheta_NoVideo.avi,globalTheta,noVideo,sp07,Dr,We,3,4,5,flow/blocks/GlobalTheta_NoVideo_A.csv,,,,,,,,,0,4,4,4,0,0,0,30,,,,,,,,,-0.3861111111111111,0.2625,1,0,0,7.234220999991521,call1,0.03888888888888889,0.0625,1,0,0,8.194665700022597,colour2,0.3527777777777778,-0.1412037037037037,1,0,0,8.707773400004953,number3,False,False,True,19,4,2019_Nov_14_1505,MA_Theta_Exp,3.0.7,60.149399066620845,
video/Experiment/zh_sp01_Dr_We_2_GlobalTheta_NoVideo.avi,globalTheta,noVideo,sp01,Dr,We,2,4,5,flow/blocks/GlobalTheta_NoVideo_A.csv,,,,,,,,,0,4,4,4,0,1,1,29,,,,,,,,,-0.41805555555555557,0.2763888888888889,1,0,0,5.493591199978255,call1,-0.030555555555555555,-0.3912037037037037,1,0,0,6.445297599944752,colour4,0.36527777777777776,0.10277777777777777,1,0,0,6.953158000018448,number2,False,True,True,19,4,2019_Nov_14_1505,MA_Theta_Exp,3.0.7,60.149399066620845,
video/Experiment/zh_sp01_Dr_Gr_3_GlobalTheta_NoVideo.avi,globalTheta,noVideo,sp01,Dr,Gr,3,4,5,flow/blocks/GlobalTheta_NoVideo_A.csv,,,,,,,,,0,4,4,4,0,2,2,22,,,,,,,,,-0.39861111111111114,0.09212962962962963,1,0,0,5.4994973000139,call2,-0.04027777777777778,0.10694444444444444,1,0,0,6.248564400011674,colour2,0.3416666666666667,-0.1162037037037037,1,0,0,6.7409747000201605,number3,True,True,True,19,4,2019_Nov_14_1505,MA_Theta_Exp,3.0.7,60.149399066620845,
video/Experiment/zh_sp07_Dr_Ro_4_GlobalTheta_NoVideo.avi,globalTheta,noVideo,sp07,Dr,Ro,4,4,5,flow/blocks/GlobalTheta_NoVideo_A.csv,,,,,,,,,0,4,4,4,0,3,3,27,,,,,,,,,-0.35694444444444445,0.28194444444444444,1,0,0,6.090407000039704,call1,-0.004166666666666667,0.08194444444444444,1,0,0,6.745797000010498,colour2,0.36666666666666664,-0.37453703703703706,1,0,0,7.325540700054262,number4,False,False,True,19,4,2019_Nov_14_1505,MA_Theta_Exp,3.0.7,60.149399066620845,
video/Experiment/zh_sp01_Ad_Gr_1_GlobalTheta_NoVideo.avi,globalTheta,noVideo,sp01,Ad,Gr,1,4,5,flow/blocks/GlobalTheta_NoVideo_A.csv,,,,,,,,,0,4,4,4,0,4,4,4,,,,,,,,,-0.3680555555555556,0.2972222222222222,1,0,0,5.340588399965782,call1,0.015277777777777777,0.06157407407407407,1,0,0,5.787651100021321,colour2,0.39861111111111114,0.32222222222222224,1,0,0,6.171253899985459,number1,True,True,True,19,4,2019_Nov_14_1505,MA_Theta_Exp,3.0.7,60.149399066620845,
video/Experiment/zh_sp01_Dr_Gr_2_GlobalTheta_NoVideo.avi,globalTheta,noVideo,sp01,Dr,Gr,2,4,5,flow/blocks/GlobalTheta_NoVideo_A.csv,,,,,,,,,0,4,4,4,0,5,5,21,,,,,,,,,-0.4527777777777778,0.29212962962962963,1,0,0,5.199535699968692,call1,0.0375,0.05185185185185185,1,0,0,5.669553000014275,colour2,0.3541666666666667,0.11805555555555555,1,0,0,6.01503920002142,number2,False,True,True,19,4,2019_Nov_14_1505,MA_Theta_Exp,3.0.7,60.149399066620845,
video/Experiment/zh_sp07_Ad_We_1_GlobalTheta_NoVideo.avi,globalTheta,noVideo,sp07,Ad,We,1,4,5,flow/blocks/GlobalTheta_NoVideo_A.csv,,,,,,,,,0,4,4,4,0,6,6,12,,,,,,,,,-0.33194444444444443,0.12361111111111112,1,0,0,4.302161999978125,call2,0.0,-0.3662037037037037,1,0,0,4.848246700013988,colour4,0.38055555555555554,0.34444444444444444,1,0,0,5.37194310000632,number1,False,True,True,19,4,2019_Nov_14_1505,MA_Theta_Exp,3.0.7,60.149399066620845,
video/Experiment/zh_sp07_Ad_Gr_2_GlobalTheta_NoVideo.avi,globalTheta,noVideo,sp07,Ad,Gr,2,4,5,flow/blocks/GlobalTheta_NoVideo_A.csv,,,,,,,,,0,4,4,4,0,7,7,5,,,,,,,,,-0.34305555555555556,0.07083333333333333,1,0,0,4.362644099979661,call2,0.04583333333333333,0.10694444444444444,1,0,0,4.758358800027054,colour2,0.4041666666666667,0.3486111111111111,1,0,0,5.158225099963602,number1,False,True,False,19,4,2019_Nov_14_1505,MA_Theta_Exp,3.0.7,60.149399066620845,
video/Experiment/zh_sp07_Dr_Ge_4_GlobalTheta_NoVideo.avi,globalTheta,noVideo,sp07,Dr,Ge,4,4,5,flow/blocks/GlobalTheta_NoVideo_A.csv,,,,,,,,,0,4,4,4,0,8,8,19,,,,,,,,,-0.4,0.33611111111111114,1,0,0,4.160151099960785,call1,0.058333333333333334,0.32916666666666666,1,0,0,4.563911099976394,colour1,0.41944444444444445,-0.32731481481481484,1,0,0,5.179286799975671,number4,False,True,True,19,4,2019_Nov_14_1505,MA_Theta_Exp,3.0.7,60.149399066620845,
video/Experiment/zh_sp01_Dr_Ro_1_GlobalTheta_NoVideo.avi,globalTheta,noVideo,sp01,Dr,Ro,1,4,5,flow/blocks/GlobalTheta_NoVideo_A.csv,,,,,,,,,0,4,4,4,0,9,9,24,,,,,,,,,-0.3625,0.2833333333333333,1,0,0,5.22176370001398,call1,-0.018055555555555554,-0.12453703703703704,1,0,0,5.73079089995008,colour3,0.42916666666666664,0.3333333333333333,1,0,0,6.195163500029594,number1,False,True,True,19,4,2019_Nov_14_1505,MA_Theta_Exp,3.0.7,60.149399066620845,
video/Experiment/zh_sp01_Ad_We_3_GlobalTheta_NoVideo.avi,globalTheta,noVideo,sp01,Ad,We,3,4,5,flow/blocks/GlobalTheta_NoVideo_A.csv,,,,,,,,,0,4,4,4,0,10,10,14,,,,,,,,,-0.3819444444444444,0.32222222222222224,1,0,0,4.992324099992402,call1,0.001388888888888889,-0.3300925925925926,1,0,0,5.571075899992138,colour4,0.43333333333333335,-0.09305555555555556,1,0,0,5.992994999978691,number3,True,True,True,19,4,2019_Nov_14_1505,MA_Theta_Exp,3.0.7,60.149399066620845,
video/Experiment/zh_sp07_Dr_Ge_1_GlobalTheta_NoVideo.avi,globalTheta,noVideo,sp07,Dr,Ge,1,4,5,flow/blocks/GlobalTheta_NoVideo_A.csv,,,,,,,,,0,4,4,4,0,11,11,16,,,,,,,,,-0.4236111111111111,0.32083333333333336,1,0,0,4.277251099993009,call1,0.04027777777777778,-0.09259259259259259,1,0,0,5.432322199980263,colour3,0.4111111111111111,0.30833333333333335,1,0,0,5.858114400005434,number1,False,False,True,19,4,2019_Nov_14_1505,MA_Theta_Exp,3.0.7,60.149399066620845,
video/Experiment/zh_sp07_Ad_Gr_3_GlobalTheta_NoVideo.avi,globalTheta,noVideo,sp07,Ad,Gr,3,4,5,flow/blocks/GlobalTheta_NoVideo_A.csv,,,,,,,,,0,4,4,4,0,12,12,6,,,,,,,,,-0.3486111111111111,0.31805555555555554,1,0,0,4.491104700020514,call1,0.059722222222222225,0.11157407407407408,1,0,0,4.968071099952795,colour2,0.32916666666666666,-0.12175925925925926,1,0,0,5.349642000044696,number3,True,True,True,19,4,2019_Nov_14_1505,MA_Theta_Exp,3.0.7,60.149399066620845,
video/Experiment/zh_sp07_Dr_Gr_4_GlobalTheta_NoVideo.avi,globalTheta,noVideo,sp07,Dr,Gr,4,4,5,flow/blocks/GlobalTheta_NoVideo_A.csv,,,,,,,,,0,4,4,4,0,13,13,23,,,,,,,,,-0.38055555555555554,0.2916666666666667,1,0,0,4.715929300000425,call1,-0.030555555555555555,0.11388888888888889,1,0,0,5.5272638000315055,colour2,0.3138888888888889,-0.2972222222222222,1,0,0,5.976540300005581,number4,False,True,True,19,4,2019_Nov_14_1505,MA_Theta_Exp,3.0.7,60.149399066620845,
video/Experiment/zh_sp01_Ad_Ge_1_GlobalTheta_NoVideo.avi,globalTheta,noVideo,sp01,Ad,Ge,1,4,5,flow/blocks/GlobalTheta_NoVideo_A.csv,,,,,,,,,0,4,4,4,0,14,14,0,,,,,,,,,-0.45,0.2972222222222222,1,0,0,5.222249699989334,call1,-0.029166666666666667,0.34444444444444444,1,0,0,5.851414700038731,colour1,0.4263888888888889,0.3699074074074074,1,0,0,6.203476199996658,number1,True,True,True,19,4,2019_Nov_14_1505,MA_Theta_Exp,3.0.7,60.149399066620845,
video/Experiment/zh_sp01_Dr_Ro_2_GlobalTheta_NoVideo.avi,globalTheta,noVideo,sp01,Dr,Ro,2,4,5,flow/blocks/GlobalTheta_NoVideo_A.csv,,,,,,,,,0,4,4,4,0,15,15,25,,,,,,,,,-0.4527777777777778,0.09074074074074075,1,0,0,5.02560990001075,call2,0.06388888888888888,-0.125,1,0,0,5.610267500043847,colour3,0.3611111111111111,0.06527777777777778,1,0,0,5.992144999967422,number2,True,True,True,19,4,2019_Nov_14_1505,MA_Theta_Exp,3.0.7,60.149399066620845,
video/Experiment/zh_sp01_Dr_Ge_3_GlobalTheta_NoVideo.avi,globalTheta,noVideo,sp01,Dr,Ge,3,4,5,flow/blocks/GlobalTheta_NoVideo_A.csv,,,,,,,,,0,4,4,4,0,16,16,18,,,,,,,,,-0.4111111111111111,0.08611111111111111,1,0,0,5.050689900002908,call2,-0.011111111111111112,0.2722222222222222,1,0,0,5.502535400039051,colour1,0.37222222222222223,-0.04259259259259259,1,0,0,5.993829799990635,number3,True,True,True,19,4,2019_Nov_14_1505,MA_Theta_Exp,3.0.7,60.149399066620845,
video/Experiment/zh_sp01_Ad_Ge_3_GlobalTheta_NoVideo.avi,globalTheta,noVideo,sp01,Ad,Ge,3,4,5,flow/blocks/GlobalTheta_NoVideo_A.csv,,,,,,,,,0,4,4,4,0,17,17,2,,,,,,,,,-0.4513888888888889,0.325,1,0,0,4.728992099990137,call1,-0.04861111111111111,0.30972222222222223,1,0,0,5.2404207000508904,colour1,0.44027777777777777,-0.12175925925925926,1,0,0,5.688946600013878,number3,True,True,True,19,4,2019_Nov_14_1505,MA_Theta_Exp,3.0.7,60.149399066620845,
video/Experiment/zh_sp01_Dr_Gr_1_GlobalTheta_NoVideo.avi,globalTheta,noVideo,sp01,Dr,Gr,1,4,5,flow/blocks/GlobalTheta_NoVideo_A.csv,,,,,,,,,0,4,4,4,0,18,18,20,,,,,,,,,-0.41388888888888886,0.06666666666666667,1,0,0,5.24601599999005,call2,-0.02361111111111111,0.2847222222222222,1,0,0,5.727211100049317,colour1,0.5055555555555555,0.34444444444444444,1,0,0,6.1226937000174075,number1,True,False,True,19,4,2019_Nov_14_1505,MA_Theta_Exp,3.0.7,60.149399066620845,
video/Experiment/zh_sp01_Ad_Ro_4_GlobalTheta_NoVideo.avi,globalTheta,noVideo,sp01,Ad,Ro,4,4,5,flow/blocks/GlobalTheta_NoVideo_A.csv,,,,,,,,,0,4,4,4,0,19,19,11,,,,,,,,,-0.43333333333333335,0.3527777777777778,1,0,0,4.956172700040042,call1,0.013888888888888888,0.3263888888888889,1,0,0,5.36790229997132,colour1,0.40555555555555556,-0.22453703703703703,1,0,0,6.092187199974433,number4,True,False,True,19,4,2019_Nov_14_1505,MA_Theta_Exp,3.0.7,60.149399066620845,
video/Experiment/zh_sp07_Dr_Ge_2_GlobalTheta_NoVideo.avi,globalTheta,noVideo,sp07,Dr,Ge,2,4,5,flow/blocks/GlobalTheta_NoVideo_A.csv,,,,,,,,,0,4,4,4,0,20,20,17,,,,,,,,,-0.4125,0.10601851851851851,1,0,0,4.805049499962479,call2,-0.043055555555555555,0.2833333333333333,1,0,0,5.260981100029312,colour1,0.4263888888888889,0.30277777777777776,1,0,0,5.805734800000209,number1,True,True,False,19,4,2019_Nov_14_1505,MA_Theta_Exp,3.0.7,60.149399066620845,
video/Experiment/zh_sp01_Dr_Ro_3_GlobalTheta_NoVideo.avi,globalTheta,noVideo,sp01,Dr,Ro,3,4,5,flow/blocks/GlobalTheta_NoVideo_A.csv,,,,,,,,,0,4,4,4,0,21,21,26,,,,,,,,,-0.4013888888888889,0.2972222222222222,1,0,0,5.377449200022966,call1,0.004166666666666667,-0.15925925925925927,1,0,0,6.100853600015398,colour3,0.3972222222222222,0.3277777777777778,1,0,0,6.568874999997206,number1,False,True,False,19,4,2019_Nov_14_1505,MA_Theta_Exp,3.0.7,60.149399066620845,
video/Experiment/zh_sp01_Dr_We_1_GlobalTheta_NoVideo.avi,globalTheta,noVideo,sp01,Dr,We,1,4,5,flow/blocks/GlobalTheta_NoVideo_A.csv,,,,,,,,,0,4,4,4,0,22,22,28,,,,,,,,,-0.4597222222222222,0.09212962962962963,1,0,0,5.165964299987536,call2,-0.05,-0.34120370370370373,1,0,0,5.760966500034556,colour4,0.4097222222222222,0.28055555555555556,1,0,0,6.271619700011797,number1,True,True,True,19,4,2019_Nov_14_1505,MA_Theta_Exp,3.0.7,60.149399066620845,
video/Experiment/zh_sp07_Ad_Gr_4_GlobalTheta_NoVideo.avi,globalTheta,noVideo,sp07,Ad,Gr,4,4,5,flow/blocks/GlobalTheta_NoVideo_A.csv,,,,,,,,,0,4,4,4,0,23,23,7,,,,,,,,,-0.4,0.12546296296296297,1,0,0,4.479076899995562,call2,0.015277777777777777,0.11944444444444445,1,0,0,4.893208800000139,colour2,0.3625,-0.2953703703703704,1,0,0,5.345973099989351,number4,False,True,True,19,4,2019_Nov_14_1505,MA_Theta_Exp,3.0.7,60.149399066620845,
video/Experiment/zh_sp07_Ad_Ro_1_GlobalTheta_NoVideo.avi,globalTheta,noVideo,sp07,Ad,Ro,1,4,5,flow/blocks/GlobalTheta_NoVideo_A.csv,,,,,,,,,0,4,4,4,0,24,24,8,,,,,,,,,-0.41388888888888886,0.27824074074074073,1,0,0,4.207386700029019,call1,0.06111111111111111,0.026851851851851852,1,0,0,4.794564199983142,colour2,0.425,0.30416666666666664,1,0,0,5.166966000047978,number1,True,False,True,19,4,2019_Nov_14_1505,MA_Theta_Exp,3.0.7,60.149399066620845,
video/Experiment/zh_sp01_Ad_Ge_2_GlobalTheta_NoVideo.avi,globalTheta,noVideo,sp01,Ad,Ge,2,4,5,flow/blocks/GlobalTheta_NoVideo_A.csv,,,,,,,,,0,4,4,4,0,25,25,1,,,,,,,,,-0.35694444444444445,0.3138888888888889,1,0,0,5.0296853999607265,call1,0.008333333333333333,0.10462962962962963,1,0,0,5.463930000027176,colour2,0.37777777777777777,0.08333333333333333,1,0,0,5.799673700006679,number2,True,False,True,19,4,2019_Nov_14_1505,MA_Theta_Exp,3.0.7,60.149399066620845,
video/Experiment/zh_sp07_Ad_Ro_3_GlobalTheta_NoVideo.avi,globalTheta,noVideo,sp07,Ad,Ro,3,4,5,flow/blocks/GlobalTheta_NoVideo_A.csv,,,,,,,,,0,4,4,4,0,26,26,10,,,,,,,,,-0.4263888888888889,0.28888888888888886,1,0,0,4.28030319995014,call1,-0.02361111111111111,0.047685185185185185,1,0,0,4.731670800014399,colour2,0.38055555555555554,-0.10231481481481482,1,0,0,5.146111599984579,number3,True,False,True,19,4,2019_Nov_14_1505,MA_Theta_Exp,3.0.7,60.149399066620845,
video/Experiment/zh_sp07_Ad_Ge_4_GlobalTheta_NoVideo.avi,globalTheta,noVideo,sp07,Ad,Ge,4,4,5,flow/blocks/GlobalTheta_NoVideo_A.csv,,,,,,,,,0,4,4,4,0,27,27,3,,,,,,,,,-0.4097222222222222,0.3333333333333333,1,0,0,4.283089699980337,call1,-0.05416666666666667,0.3074074074074074,1,0,0,4.769484999997076,colour1,0.37777777777777777,-0.3675925925925926,1,0,0,5.369291600014549,number4,True,True,True,19,4,2019_Nov_14_1505,MA_Theta_Exp,3.0.7,60.149399066620845,
video/Experiment/zh_sp01_Ad_We_2_GlobalTheta_NoVideo.avi,globalTheta,noVideo,sp01,Ad,We,2,4,5,flow/blocks/GlobalTheta_NoVideo_A.csv,,,,,,,,,0,4,4,4,0,28,28,13,,,,,,,,,-0.3736111111111111,0.25416666666666665,1,0,0,5.407505000010133,call1,0.03888888888888889,-0.33564814814814814,1,0,0,6.157031700015068,colour4,0.3763888888888889,0.11944444444444445,1,0,0,6.5540860000182875,number2,True,True,True,19,4,2019_Nov_14_1505,MA_Theta_Exp,3.0.7,60.149399066620845,
video/Experiment/zh_sp07_Ad_We_4_GlobalTheta_NoVideo.avi,globalTheta,noVideo,sp07,Ad,We,4,4,5,flow/blocks/GlobalTheta_NoVideo_A.csv,,,,,,,,,0,4,4,4,0,29,29,15,,,,,,,,,-0.3597222222222222,0.29444444444444445,1,0,0,4.351587400014978,call1,0.03194444444444444,-0.3050925925925926,1,0,0,4.835612599970773,colour4,0.3763888888888889,-0.3106481481481482,1,0,0,5.212872900010552,number4,True,True,True,19,4,2019_Nov_14_1505,MA_Theta_Exp,3.0.7,60.149399066620845,
video/Experiment/zh_sp07_Ad_Ro_2_GlobalTheta_NoVideo.avi,globalTheta,noVideo,sp07,Ad,Ro,2,4,5,flow/blocks/GlobalTheta_NoVideo_A.csv,,,,,,,,,0,4,4,4,0,30,30,9,,,,,,,,,-0.45694444444444443,0.3277777777777778,1,0,0,4.171828899998218,call1,-0.05277777777777778,-0.0912037037037037,1,0,0,4.6377854000311345,colour3,0.36527777777777776,0.30694444444444446,1,0,0,5.107579800009262,number1,True,True,False,19,4,2019_Nov_14_1505,MA_Theta_Exp,3.0.7,60.149399066620845,
video/Experiment/zh_sp07_Dr_We_4_GlobalTheta_NoVideo.avi,globalTheta,noVideo,sp07,Dr,We,4,4,5,flow/blocks/GlobalTheta_NoVideo_A.csv,,,,,,,,,0,4,4,4,0,31,31,31,,,,,,,,,-0.39166666666666666,0.36666666666666664,1,0,0,4.512575600005221,call1,-0.006944444444444444,-0.3453703703703704,1,0,0,5.031572100007907,colour4,0.38333333333333336,-0.030555555555555555,1,0,0,5.534612199990079,number3,False,True,False,19,4,2019_Nov_14_1505,MA_Theta_Exp,3.0.7,60.149399066620845,
video/Experiment/zh_sp01_Un_Ro_1_NVocInAudio_NoVideo.avi,vocoded,noVideo,sp01,Un,Ro,1,0,2,flow/blocks/NVocInAudio_NoVideo_B.csv,,,,,,,,,,,,,,,,,0,0,0,0,0,0,0,24,-0.3277777777777778,-0.34444444444444444,1,0,0,6.175771399983205,call4,0.08888888888888889,-0.12361111111111112,1,0,0,6.844167999981437,colour3,0.43472222222222223,0.3458333333333333,1,0,0,7.503097600012552,number1,True,True,True,19,4,2019_Nov_14_1505,MA_Theta_Exp,3.0.7,60.149399066620845,
video/Experiment/zh_sp01_Ti_Gr_4_NVocInAudio_NoVideo.avi,vocoded,noVideo,sp01,Ti,Gr,4,0,2,flow/blocks/NVocInAudio_NoVideo_B.csv,,,,,,,,,,,,,,,,,0,0,0,0,0,1,1,7,-0.45416666666666666,-0.1125,1,0,0,5.805569200019818,call3,-0.03611111111111111,0.05694444444444444,1,0,0,6.338508200016804,colour2,0.4777777777777778,-0.337037037037037,1,0,0,6.890399099967908,number4,True,True,True,19,4,2019_Nov_14_1505,MA_Theta_Exp,3.0.7,60.149399066620845,
video/Experiment/zh_sp01_Ti_Gr_3_NVocInAudio_NoVideo.avi,vocoded,noVideo,sp01,Ti,Gr,3,0,2,flow/blocks/NVocInAudio_NoVideo_B.csv,,,,,,,,,,,,,,,,,0,0,0,0,0,2,2,6,-0.4041666666666667,-0.1425925925925926,1,0,0,4.929468899965286,call3,0.06111111111111111,0.11666666666666667,1,0,0,5.406118300044909,colour2,0.4097222222222222,-0.09675925925925925,1,0,0,5.856109599990305,number3,True,True,True,19,4,2019_Nov_14_1505,MA_Theta_Exp,3.0.7,60.149399066620845,
video/Experiment/zh_sp01_Un_Ge_2_NVocInAudio_NoVideo.avi,vocoded,noVideo,sp01,Un,Ge,2,0,2,flow/blocks/NVocInAudio_NoVideo_B.csv,,,,,,,,,,,,,,,,,0,0,0,0,0,3,3,17,-0.38055555555555554,-0.35648148148148145,1,0,0,4.922261199972127,call4,-0.008333333333333333,0.26666666666666666,1,0,0,5.602777000050992,colour1,0.4111111111111111,0.04351851851851852,1,0,0,6.022196099977009,number2,True,True,True,19,4,2019_Nov_14_1505,MA_Theta_Exp,3.0.7,60.149399066620845,
video/Experiment/zh_sp01_Ti_Ro_4_NVocInAudio_NoVideo.avi,vocoded,noVideo,sp01,Ti,Ro,4,0,2,flow/blocks/NVocInAudio_NoVideo_B.csv,,,,,,,,,,,,,,,,,0,0,0,0,0,4,4,11,-0.43472222222222223,-0.10694444444444444,1,0,0,5.099102899956051,call3,0.008333333333333333,-0.17592592592592593,1,0,0,5.682777600013651,colour3,0.4041666666666667,-0.3384259259259259,1,0,0,6.1108786999830045,number4,True,True,True,19,4,2019_Nov_14_1505,MA_Theta_Exp,3.0.7,60.149399066620845,
video/Experiment/zh_sp07_Ti_We_3_NVocInAudio_NoVideo.avi,vocoded,noVideo,sp07,Ti,We,3,0,2,flow/blocks/NVocInAudio_NoVideo_B.csv,,,,,,,,,,,,,,,,,0,0,0,0,0,5,5,14,-0.3819444444444444,-0.12175925925925926,1,0,0,4.475590599991847,call3,0.04583333333333333,-0.37592592592592594,1,0,0,4.922630300046876,colour4,0.37777777777777777,-0.08055555555555556,1,0,0,5.362695600022562,number3,True,True,True,19,4,2019_Nov_14_1505,MA_Theta_Exp,3.0.7,60.149399066620845,
video/Experiment/zh_sp07_Un_Ge_1_NVocInAudio_NoVideo.avi,vocoded,noVideo,sp07,Un,Ge,1,0,2,flow/blocks/NVocInAudio_NoVideo_B.csv,,,,,,,,,,,,,,,,,0,0,0,0,0,6,6,16,-0.40694444444444444,-0.32083333333333336,1,0,0,4.444524299993645,call4,-0.04583333333333333,0.29305555555555557,1,0,0,5.032630699977744,colour1,0.35138888888888886,0.3486111111111111,1,0,0,5.374039600021206,number1,True,True,True,19,4,2019_Nov_14_1505,MA_Theta_Exp,3.0.7,60.149399066620845,
video/Experiment/zh_sp01_Un_We_3_NVocInAudio_NoVideo.avi,vocoded,noVideo,sp01,Un,We,3,0,2,flow/blocks/NVocInAudio_NoVideo_B.csv,,,,,,,,,,,,,,,,,0,0,0,0,0,7,7,30,-0.4625,-0.3648148148148148,1,0,0,5.174949700012803,call4,-0.001388888888888889,-0.3527777777777778,1,0,0,5.623793599952478,colour4,0.4736111111111111,-0.14583333333333334,1,0,0,6.07277010002872,number3,True,True,True,19,4,2019_Nov_14_1505,MA_Theta_Exp,3.0.7,60.149399066620845,
video/Experiment/zh_sp07_Ti_Gr_1_NVocInAudio_NoVideo.avi,vocoded,noVideo,sp07,Ti,Gr,1,0,2,flow/blocks/NVocInAudio_NoVideo_B.csv,,,,,,,,,,,,,,,,,0,0,0,0,0,8,8,4,-0.3875,-0.13333333333333333,1,0,0,4.4933546999818645,call3,-0.016666666666666666,0.09166666666666666,1,0,0,5.0320858000195585,colour2,0.39444444444444443,0.29583333333333334,1,0,0,5.457812300010119,number1,True,True,True,19,4,2019_Nov_14_1505,MA_Theta_Exp,3.0.7,60.149399066620845,
video/Experiment/zh_sp07_Ti_Ge_3_NVocInAudio_NoVideo.avi,vocoded,noVideo,sp07,Ti,Ge,3,0,2,flow/blocks/NVocInAudio_NoVideo_B.csv,,,,,,,,,,,,,,,,,0,0,0,0,0,9,9,2,-0.3875,-0.1439814814814815,1,0,0,4.363331099972129,call3,-0.002777777777777778,0.3125,1,0,0,4.91431800002465,colour1,0.44722222222222224,-0.1537037037037037,1,0,0,5.346638899995014,number3,True,True,True,19,4,2019_Nov_14_1505,MA_Theta_Exp,3.0.7,60.149399066620845,
video/Experiment/zh_sp07_Ti_We_2_NVocInAudio_NoVideo.avi,vocoded,noVideo,sp07,Ti,We,2,0,2,flow/blocks/NVocInAudio_NoVideo_B.csv,,,,,,,,,,,,,,,,,0,0,0,0,0,10,10,13,-0.39305555555555555,-0.09722222222222222,1,0,0,4.782167900004424,call3,-0.03194444444444444,-0.3509259259259259,1,0,0,5.275083899963647,colour4,0.38472222222222224,0.06111111111111111,1,0,0,5.767455700028222,number2,True,True,True,19,4,2019_Nov_14_1505,MA_Theta_Exp,3.0.7,60.149399066620845,
video/Experiment/zh_sp07_Un_We_4_NVocInAudio_NoVideo.avi,vocoded,noVideo,sp07,Un,We,4,0,2,flow/blocks/NVocInAudio_NoVideo_B.csv,,,,,,,,,,,,,,,,,0,0,0,0,0,11,11,31,-0.3972222222222222,-0.3314814814814815,1,0,0,4.244356399984099,call4,-0.001388888888888889,-0.3527777777777778,1,0,0,4.627329800045118,colour4,0.35833333333333334,-0.30694444444444446,1,0,0,4.981754400010686,number4,True,True,True,19,4,2019_Nov_14_1505,MA_Theta_Exp,3.0.7,60.149399066620845,
video/Experiment/zh_sp01_Ti_Ge_2_NVocInAudio_NoVideo.avi,vocoded,noVideo,sp01,Ti,Ge,2,0,2,flow/blocks/NVocInAudio_NoVideo_B.csv,,,,,,,,,,,,,,,,,0,0,0,0,0,12,12,1,-0.38333333333333336,-0.12777777777777777,1,0,0,5.170260600047186,call3,-0.08888888888888889,0.25,1,0,0,5.643390299985185,colour1,0.5111111111111111,0.0712962962962963,1,0,0,6.2274918999755755,number2,True,True,True,19,4,2019_Nov_14_1505,MA_Theta_Exp,3.0.7,60.149399066620845,
video/Experiment/zh_sp01_Ti_Ro_3_NVocInAudio_NoVideo.avi,vocoded,noVideo,sp01,Ti,Ro,3,0,2,flow/blocks/NVocInAudio_NoVideo_B.csv,,,,,,,,,,,,,,,,,0,0,0,0,0,13,13,10,-0.4513888888888889,-0.125,1,0,0,5.10974260000512,call3,-0.07777777777777778,-0.1361111111111111,1,0,0,5.501065699965693,colour3,0.41388888888888886,-0.13472222222222222,1,0,0,5.987289200013038,number3,True,True,True,19,4,2019_Nov_14_1505,MA_Theta_Exp,3.0.7,60.149399066620845,
video/Experiment/zh_sp01_Un_Gr_2_NVocInAudio_NoVideo.avi,vocoded,noVideo,sp01,Un,Gr,2,0,2,flow/blocks/NVocInAudio_NoVideo_B.csv,,,,,,,,,,,,,,,,,0,0,0,0,0,14,14,21,-0.4125,-0.31203703703703706,1,0,0,5.50822589994641,call4,-0.008333333333333333,0.1375,1,0,0,6.053547999996226,colour2,0.35555555555555557,0.0824074074074074,1,0,0,6.425434299977496,number2,True,True,True,19,4,2019_Nov_14_1505,MA_Theta_Exp,3.0.7,60.149399066620845,
video/Experiment/zh_sp07_Un_Ro_3_NVocInAudio_NoVideo.avi,vocoded,noVideo,sp07,Un,Ro,3,0,2,flow/blocks/NVocInAudio_NoVideo_B.csv,,,,,,,,,,,,,,,,,0,0,0,0,0,15,15,26,-0.38055555555555554,-0.3375,1,0,0,4.565859299967997,call4,0.08055555555555556,-0.07083333333333333,1,0,0,5.081077400012873,colour3,0.3375,-0.07453703703703704,1,0,0,5.553630199981853,number3,True,True,True,19,4,2019_Nov_14_1505,MA_Theta_Exp,3.0.7,60.149399066620845,
video/Experiment/zh_sp07_Ti_We_1_NVocInAudio_NoVideo.avi,vocoded,noVideo,sp07,Ti,We,1,0,2,flow/blocks/NVocInAudio_NoVideo_B.csv,,,,,,,,,,,,,,,,,0,0,0,0,0,16,16,12,-0.4375,-0.13194444444444445,1,0,0,4.409112200024538,call3,-0.004166666666666667,-0.387037037037037,1,0,0,4.8588320999988355,colour4,0.4222222222222222,0.28194444444444444,1,0,0,5.444112199998926,number1,True,True,True,19,4,2019_Nov_14_1505,MA_Theta_Exp,3.0.7,60.149399066620845,
video/Experiment/zh_sp07_Un_Gr_1_NVocInAudio_NoVideo.avi,vocoded,noVideo,sp07,Un,Gr,1,0,2,flow/blocks/NVocInAudio_NoVideo_B.csv,,,,,,,,,,,,,,,,,0,0,0,0,0,17,17,20,-0.4708333333333333,-0.32592592592592595,1,0,0,4.665159800031688,call4,0.05138888888888889,0.10277777777777777,1,0,0,5.15946840000106,colour2,0.38333333333333336,0.3194444444444444,1,0,0,5.603410099982284,number1,True,True,True,19,4,2019_Nov_14_1505,MA_Theta_Exp,3.0.7,60.149399066620845,
video/Experiment/zh_sp07_Ti_Ge_4_NVocInAudio_NoVideo.avi,vocoded,noVideo,sp07,Ti,Ge,4,0,2,flow/blocks/NVocInAudio_NoVideo_B.csv,,,,,,,,,,,,,,,,,0,0,0,0,0,18,18,3,-0.3861111111111111,-0.15694444444444444,1,0,0,4.319806199986488,call3,0.005555555555555556,0.28888888888888886,1,0,0,4.8010782999917865,colour1,0.3861111111111111,-0.26064814814814813,1,0,0,5.307449000014458,number4,True,True,True,19,4,2019_Nov_14_1505,MA_Theta_Exp,3.0.7,60.149399066620845,
video/Experiment/zh_sp07_Un_Ro_2_NVocInAudio_NoVideo.avi,vocoded,noVideo,sp07,Un,Ro,2,0,2,flow/blocks/NVocInAudio_NoVideo_B.csv,,,,,,,,,,,,,,,,,0,0,0,0,0,19,19,25,-0.44722222222222224,-0.3773148148148148,1,0,0,4.459568999998737,call4,0.07777777777777778,-0.09583333333333334,1,0,0,4.9275015000021085,colour3,0.39166666666666666,0.10555555555555556,1,0,0,5.3682664999505505,number2,True,True,True,19,4,2019_Nov_14_1505,MA_Theta_Exp,3.0.7,60.149399066620845,
video/Experiment/zh_sp01_Un_Gr_3_NVocInAudio_NoVideo.avi,vocoded,noVideo,sp01,Un,Gr,3,0,2,flow/blocks/NVocInAudio_NoVideo_B.csv,,,,,,,,,,,,,,,,,0,0,0,0,0,20,20,22,-0.44027777777777777,-0.3175925925925926,1,0,0,4.984956700005569,call4,-0.02638888888888889,0.08333333333333333,1,0,0,5.50781989999814,colour2,0.35833333333333334,-0.12731481481481483,1,0,0,5.9085476999753155,number3,True,True,True,19,4,2019_Nov_14_1505,MA_Theta_Exp,3.0.7,60.149399066620845,
video/Experiment/zh_sp01_Un_We_1_NVocInAudio_NoVideo.avi,vocoded,noVideo,sp01,Un,We,1,0,2,flow/blocks/NVocInAudio_NoVideo_B.csv,,,,,,,,,,,,,,,,,0,0,0,0,0,21,21,28,-0.3888888888888889,-0.34814814814814815,1,0,0,5.178318099991884,call4,0.011111111111111112,-0.3037037037037037,1,0,0,6.0576041000313126,colour4,0.4388888888888889,0.3236111111111111,1,0,0,6.536660999991,number1,True,True,True,19,4,2019_Nov_14_1505,MA_Theta_Exp,3.0.7,60.149399066620845,
video/Experiment/zh_sp07_Un_Ro_4_NVocInAudio_NoVideo.avi,vocoded,noVideo,sp07,Un,Ro,4,0,2,flow/blocks/NVocInAudio_NoVideo_B.csv,,,,,,,,,,,,,,,,,0,0,0,0,0,22,22,27,-0.42083333333333334,-0.33611111111111114,1,0,0,4.395036400004756,call4,-0.009722222222222222,-0.10972222222222222,1,0,0,4.83257779997075,colour3,0.39305555555555555,-0.3050925925925926,1,0,0,5.223306500003673,number4,True,True,True,19,4,2019_Nov_14_1505,MA_Theta_Exp,3.0.7,60.149399066620845,
video/Experiment/zh_sp01_Ti_We_4_NVocInAudio_NoVideo.avi,vocoded,noVideo,sp01,Ti,We,4,0,2,flow/blocks/NVocInAudio_NoVideo_B.csv,,,,,,,,,,,,,,,,,0,0,0,0,0,23,23,15,-0.39861111111111114,-0.0912037037037037,1,0,0,5.053756500012241,call3,0.009722222222222222,-0.3773148148148148,1,0,0,5.507988500001375,colour4,0.3763888888888889,-0.3333333333333333,1,0,0,5.984454699966591,number4,True,True,True,19,4,2019_Nov_14_1505,MA_Theta_Exp,3.0.7,60.149399066620845,
video/Experiment/zh_sp01_Ti_Ro_2_NVocInAudio_NoVideo.avi,vocoded,noVideo,sp01,Ti,Ro,2,0,2,flow/blocks/NVocInAudio_NoVideo_B.csv,,,,,,,,,,,,,,,,,0,0,0,0,0,24,24,9,-0.4166666666666667,-0.08148148148148149,1,0,0,5.01458040002035,call3,-0.019444444444444445,-0.1287037037037037,1,0,0,5.450068500009365,colour3,0.35,0.1,1,0,0,5.853429399954621,number2,True,True,True,19,4,2019_Nov_14_1505,MA_Theta_Exp,3.0.7,60.149399066620845,
video/Experiment/zh_sp07_Un_Gr_4_NVocInAudio_NoVideo.avi,vocoded,noVideo,sp07,Un,Gr,4,0,2,flow/blocks/NVocInAudio_NoVideo_B.csv,,,,,,,,,,,,,,,,,0,0,0,0,0,25,25,23,-0.3333333333333333,-0.33611111111111114,1,0,0,4.477830599993467,call4,-0.03194444444444444,0.09166666666666666,1,0,0,5.038319599989336,colour2,0.4263888888888889,-0.3509259259259259,1,0,0,5.65846629999578,number4,True,True,True,19,4,2019_Nov_14_1505,MA_Theta_Exp,3.0.7,60.149399066620845,
video/Experiment/zh_sp01_Ti_Ro_1_NVocInAudio_NoVideo.avi,vocoded,noVideo,sp01,Ti,Ro,1,0,2,flow/blocks/NVocInAudio_NoVideo_B.csv,,,,,,,,,,,,,,,,,0,0,0,0,0,26,26,8,-0.4027777777777778,-0.1398148148148148,1,0,0,5.284321800048929,call3,-0.05,-0.14444444444444443,1,0,0,5.647406600008253,colour3,0.38055555555555554,0.29583333333333334,1,0,0,6.1335126999765635,number1,True,True,True,19,4,2019_Nov_14_1505,MA_Theta_Exp,3.0.7,60.149399066620845,
video/Experiment/zh_sp07_Un_Ge_4_NVocInAudio_NoVideo.avi,vocoded,noVideo,sp07,Un,Ge,4,0,2,flow/blocks/NVocInAudio_NoVideo_B.csv,,,,,,,,,,,,,,,,,0,0,0,0,0,27,27,19,-0.39305555555555555,-0.35509259259259257,1,0,0,4.435246100008953,call4,-0.004166666666666667,0.32222222222222224,1,0,0,4.98771640000632,colour1,0.4236111111111111,-0.3592592592592593,1,0,0,5.472235900000669,number4,True,True,True,19,4,2019_Nov_14_1505,MA_Theta_Exp,3.0.7,60.149399066620845,
video/Experiment/zh_sp07_Un_We_2_NVocInAudio_NoVideo.avi,vocoded,noVideo,sp07,Un,We,2,0,2,flow/blocks/NVocInAudio_NoVideo_B.csv,,,,,,,,,,,,,,,,,0,0,0,0,0,28,28,29,-0.47638888888888886,-0.3189814814814815,1,0,0,4.416556000011042,call4,0.018055555555555554,-0.37083333333333335,1,0,0,4.96917219995521,colour4,0.43194444444444446,0.11944444444444445,1,0,0,5.46088410000084,number2,True,True,True,19,4,2019_Nov_14_1505,MA_Theta_Exp,3.0.7,60.149399066620845,
video/Experiment/zh_sp07_Ti_Gr_2_NVocInAudio_NoVideo.avi,vocoded,noVideo,sp07,Ti,Gr,2,0,2,flow/blocks/NVocInAudio_NoVideo_B.csv,,,,,,,,,,,,,,,,,0,0,0,0,0,29,29,5,-0.38055555555555554,-0.15416666666666667,1,0,0,4.380563000042457,call3,-0.002777777777777778,0.10694444444444444,1,0,0,4.816655399976298,colour2,0.3625,0.12777777777777777,1,0,0,5.127120600023773,number2,True,True,True,19,4,2019_Nov_14_1505,MA_Theta_Exp,3.0.7,60.149399066620845,
video/Experiment/zh_sp01_Ti_Ge_1_NVocInAudio_NoVideo.avi,vocoded,noVideo,sp01,Ti,Ge,1,0,2,flow/blocks/NVocInAudio_NoVideo_B.csv,,,,,,,,,,,,,,,,,0,0,0,0,0,30,30,0,-0.4125,-0.14675925925925926,1,0,0,5.118709700007457,call3,-0.041666666666666664,0.3347222222222222,1,0,0,5.623461799987126,colour1,0.3625,0.10462962962962963,1,0,0,5.950590000022203,number2,True,True,False,19,4,2019_Nov_14_1505,MA_Theta_Exp,3.0.7,60.149399066620845,
video/Experiment/zh_sp01_Un_Ge_3_NVocInAudio_NoVideo.avi,vocoded,noVideo,sp01,Un,Ge,3,0,2,flow/blocks/NVocInAudio_NoVideo_B.csv,,,,,,,,,,,,,,,,,0,0,0,0,0,31,31,18,-0.42916666666666664,-0.3037037037037037,1,0,0,5.135389500006568,call4,-0.029166666666666667,0.30694444444444446,1,0,0,5.62581209995551,colour1,0.35,-0.11944444444444445,1,0,0,6.045132200000808,number3,True,True,True,19,4,2019_Nov_14_1505,MA_Theta_Exp,3.0.7,60.149399066620845,
video/Experiment/zh_sp07_Ti_Ge_4_NVocInAudio_GlobalThetaInVideo.avi,vocoded,plusVideo,sp07,Ti,Ge,4,1,1,flow/blocks/NVocInAudio_GlobalThetaInVideo_B.csv,,,,,,,,,,,,,,,,,0,1,1,1,0,0,0,3,-0.4027777777777778,-0.12361111111111112,1,0,0,4.8087165000033565,call3,0.004166666666666667,0.26805555555555555,1,0,0,5.293656399997417,colour1,0.4166666666666667,-0.3300925925925926,1,0,0,5.780279500002507,number4,True,True,True,19,4,2019_Nov_14_1505,MA_Theta_Exp,3.0.7,60.149399066620845,
video/Experiment/zh_sp01_Un_Gr_1_NVocInAudio_GlobalThetaInVideo.avi,vocoded,plusVideo,sp01,Un,Gr,1,1,1,flow/blocks/NVocInAudio_GlobalThetaInVideo_B.csv,,,,,,,,,,,,,,,,,0,1,1,1,0,1,1,20,-0.3763888888888889,-0.14537037037037037,1,0,0,5.278865700005554,call3,0.059722222222222225,0.11388888888888889,1,0,0,6.01607310003601,colour2,0.3597222222222222,0.26805555555555555,1,0,0,6.993378999992274,number1,False,True,True,19,4,2019_Nov_14_1505,MA_Theta_Exp,3.0.7,60.149399066620845,
video/Experiment/zh_sp07_Ti_We_3_NVocInAudio_GlobalThetaInVideo.avi,vocoded,plusVideo,sp07,Ti,We,3,1,1,flow/blocks/NVocInAudio_GlobalThetaInVideo_B.csv,,,,,,,,,,,,,,,,,0,1,1,1,0,2,2,14,-0.35555555555555557,-0.11342592592592593,1,0,0,6.141299500013702,call3,-0.025,-0.3638888888888889,1,0,0,6.5998017999809235,colour4,0.3736111111111111,-0.1375,1,0,0,7.074267400021199,number3,True,True,True,19,4,2019_Nov_14_1505,MA_Theta_Exp,3.0.7,60.149399066620845,
video/Experiment/zh_sp01_Un_Ro_3_NVocInAudio_GlobalThetaInVideo.avi,vocoded,plusVideo,sp01,Un,Ro,3,1,1,flow/blocks/NVocInAudio_GlobalThetaInVideo_B.csv,,,,,,,,,,,,,,,,,0,1,1,1,0,3,3,26,-0.35555555555555557,-0.3125,1,0,0,5.127159300027415,call4,0.05694444444444444,-0.0875,1,0,0,5.535827699990477,colour3,0.37777777777777777,-0.11898148148148148,1,0,0,5.870354000013322,number3,True,True,True,19,4,2019_Nov_14_1505,MA_Theta_Exp,3.0.7,60.149399066620845,
video/Experiment/zh_sp01_Ti_Ro_1_NVocInAudio_GlobalThetaInVideo.avi,vocoded,plusVideo,sp01,Ti,Ro,1,1,1,flow/blocks/NVocInAudio_GlobalThetaInVideo_B.csv,,,,,,,,,,,,,,,,,0,1,1,1,0,4,4,8,-0.33611111111111114,-0.1,1,0,0,5.2634353000321425,call3,0.018055555555555554,-0.1,1,0,0,5.650124499981757,colour3,0.41805555555555557,0.2791666666666667,1,0,0,6.101470299996436,number1,True,True,True,19,4,2019_Nov_14_1505,MA_Theta_Exp,3.0.7,60.149399066620845,
video/Experiment/zh_sp07_Un_Gr_2_NVocInAudio_GlobalThetaInVideo.avi,vocoded,plusVideo,sp07,Un,Gr,2,1,1,flow/blocks/NVocInAudio_GlobalThetaInVideo_B.csv,,,,,,,,,,,,,,,,,0,1,1,1,0,5,5,21,-0.41388888888888886,-0.34675925925925927,1,0,0,4.774733699974604,call4,-0.05416666666666667,0.0625,1,0,0,5.235419100034051,colour2,0.29305555555555557,0.09027777777777778,1,0,0,5.523780799994711,number2,True,True,True,19,4,2019_Nov_14_1505,MA_Theta_Exp,3.0.7,60.149399066620845,
video/Experiment/zh_sp01_Un_Ro_2_NVocInAudio_GlobalThetaInVideo.avi,vocoded,plusVideo,sp01,Un,Ro,2,1,1,flow/blocks/NVocInAudio_GlobalThetaInVideo_B.csv,,,,,,,,,,,,,,,,,0,1,1,1,0,6,6,25,-0.39444444444444443,-0.3189814814814815,1,0,0,4.9195233000209555,call4,0.0,-0.08472222222222223,1,0,0,5.363188299990725,colour3,0.3972222222222222,0.10138888888888889,1,0,0,6.089298699982464,number2,True,True,True,19,4,2019_Nov_14_1505,MA_Theta_Exp,3.0.7,60.149399066620845,
video/Experiment/zh_sp07_Ti_Gr_2_NVocInAudio_GlobalThetaInVideo.avi,vocoded,plusVideo,sp07,Ti,Gr,2,1,1,flow/blocks/NVocInAudio_GlobalThetaInVideo_B.csv,,,,,,,,,,,,,,,,,0,1,1,1,0,7,7,5,-0.4083333333333333,-0.1388888888888889,1,0,0,4.547824800014496,call3,0.009722222222222222,0.044444444444444446,1,0,0,5.0346395000233315,colour2,0.34305555555555556,0.09583333333333334,1,0,0,5.3852449000114575,number2,True,True,True,19,4,2019_Nov_14_1505,MA_Theta_Exp,3.0.7,60.149399066620845,
video/Experiment/zh_sp07_Un_Ge_2_NVocInAudio_GlobalThetaInVideo.avi,vocoded,plusVideo,sp07,Un,Ge,2,1,1,flow/blocks/NVocInAudio_GlobalThetaInVideo_B.csv,,,,,,,,,,,,,,,,,0,1,1,1,0,8,8,17,-0.45555555555555555,-0.3023148148148148,1,0,0,4.414649299986195,call4,-0.043055555555555555,0.30833333333333335,1,0,0,4.997568400052842,colour1,0.37083333333333335,0.05694444444444444,1,0,0,5.424343699996825,number2,True,True,True,19,4,2019_Nov_14_1505,MA_Theta_Exp,3.0.7,60.149399066620845,
video/Experiment/zh_sp01_Un_We_4_NVocInAudio_GlobalThetaInVideo.avi,vocoded,plusVideo,sp01,Un,We,4,1,1,flow/blocks/NVocInAudio_GlobalThetaInVideo_B.csv,,,,,,,,,,,,,,,,,0,1,1,1,0,9,9,31,-0.4375,-0.29953703703703705,1,0,0,5.176910099980887,call4,0.013888888888888888,-0.3138888888888889,1,0,0,5.582472899986897,colour4,0.3597222222222222,-0.30694444444444446,1,0,0,5.940973300021142,number4,True,True,True,19,4,2019_Nov_14_1505,MA_Theta_Exp,3.0.7,60.149399066620845,
video/Experiment/zh_sp01_Un_We_3_NVocInAudio_GlobalThetaInVideo.avi,vocoded,plusVideo,sp01,Un,We,3,1,1,flow/blocks/NVocInAudio_GlobalThetaInVideo_B.csv,,,,,,,,,,,,,,,,,0,1,1,1,0,10,10,30,-0.3972222222222222,-0.3578703703703704,1,0,0,5.127044500026386,call4,-0.005555555555555556,-0.34305555555555556,1,0,0,5.517124300007708,colour4,0.3888888888888889,-0.13194444444444445,1,0,0,5.870261899952311,number3,True,True,True,19,4,2019_Nov_14_1505,MA_Theta_Exp,3.0.7,60.149399066620845,
video/Experiment/zh_sp07_Ti_We_4_NVocInAudio_GlobalThetaInVideo.avi,vocoded,plusVideo,sp07,Ti,We,4,1,1,flow/blocks/NVocInAudio_GlobalThetaInVideo_B.csv,,,,,,,,,,,,,,,,,0,1,1,1,0,11,11,15,-0.44583333333333336,-0.1300925925925926,1,0,0,4.711106900009327,call3,-0.034722222222222224,-0.34120370370370373,1,0,0,5.182324400055222,colour4,0.3680555555555556,-0.36898148148148147,1,0,0,5.532473300001584,number4,True,True,True,19,4,2019_Nov_14_1505,MA_Theta_Exp,3.0.7,60.149399066620845,
video/Experiment/zh_sp01_Ti_Ge_2_NVocInAudio_GlobalThetaInVideo.avi,vocoded,plusVideo,sp01,Ti,Ge,2,1,1,flow/blocks/NVocInAudio_GlobalThetaInVideo_B.csv,,,,,,,,,,,,,,,,,0,1,1,1,0,12,12,1,-0.45,-0.09675925925925925,1,0,0,5.387544700002763,call3,-0.027777777777777776,0.2916666666666667,1,0,0,5.889989999996033,colour1,0.40555555555555556,0.12268518518518519,1,0,0,6.287088899989612,number2,True,True,True,19,4,2019_Nov_14_1505,MA_Theta_Exp,3.0.7,60.149399066620845,
video/Experiment/zh_sp07_Ti_Gr_4_NVocInAudio_GlobalThetaInVideo.avi,vocoded,plusVideo,sp07,Ti,Gr,4,1,1,flow/blocks/NVocInAudio_GlobalThetaInVideo_B.csv,,,,,,,,,,,,,,,,,0,1,1,1,0,13,13,7,-0.4236111111111111,-0.1162037037037037,1,0,0,4.806024300050922,call3,-0.002777777777777778,0.11527777777777778,1,0,0,5.2594500000122935,colour2,0.41388888888888886,-0.2759259259259259,1,0,0,5.691849299997557,number4,True,True,True,19,4,2019_Nov_14_1505,MA_Theta_Exp,3.0.7,60.149399066620845,
