videoFile,condition,video,speaker,callSign,colour,number,seq,id,block,exp.thisRepN,exp.thisTrialN,exp.thisN,exp.thisIndex,training.thisRepN,training.thisTrialN,training.thisN,training.thisIndex,firstHalf.thisRepN,firstHalf.thisTrialN,firstHalf.thisN,firstHalf.thisIndex,blocksA.thisRepN,blocksA.thisTrialN,blocksA.thisN,blocksA.thisIndex,secondHalf.thisRepN,secondHalf.thisTrialN,secondHalf.thisN,secondHalf.thisIndex,blocksB.thisRepN,blocksB.thisTrialN,blocksB.thisN,blocksB.thisIndex,mouseClickOnCall.x,mouseClickOnCall.y,mouseClickOnCall.leftButton,mouseClickOnCall.midButton,mouseClickOnCall.rightButton,mouseClickOnCall.time,mouseClickOnCall.clicked_name,mouseClickOnColour.x,mouseClickOnColour.y,mouseClickOnColour.leftButton,mouseClickOnColour.midButton,mouseClickOnColour.rightButton,mouseClickOnColour.time,mouseClickOnColour.clicked_name,mouseClickOnNumber.x,mouseClickOnNumber.y,mouseClickOnNumber.leftButton,mouseClickOnNumber.midButton,mouseClickOnNumber.rightButton,mouseClickOnNumber.time,mouseClickOnNumber.clicked_name,callSignCorrect,colourCorrect,numberCorrect,participant,order,date,expName,psychopyVersion,frameRate,
video/Training/zh_sp01_Ad_We_4_NVocInAudio_NoVideo.avi,vocoded,noVideo,sp01,Ad,We,4,,,,,,,,0,0,0,0,,,,,,,,,,,,,,,,,-0.42916666666666664,0.35833333333333334,1,0,0,5.9117940000001,call1,-0.029166666666666667,-0.3263888888888889,1,0,0,7.2141266000001,colour4,0.3958333333333333,-0.3055555555555556,1,0,0,8.061259600000085,number4,False,False,True,1,1,2019_Nov_07_1551,MA_Theta_Exp,3.0.7,60.171331850314445,
video/Training/zh_sp07_Ad_Ge_3_NVocInAudio_NoVideo.avi,vocoded,noVideo,sp07,Ad,Ge,3,,,,,,,,0,1,1,1,,,,,,,,,,,,,,,,,-0.39861111111111114,0.2986111111111111,1,0,0,5.4745788000000175,call1,0.03611111111111111,0.2763888888888889,1,0,0,7.207636600000114,colour1,0.36666666666666664,-0.11527777777777778,1,0,0,7.9465020000000095,number3,False,False,True,1,1,2019_Nov_07_1551,MA_Theta_Exp,3.0.7,60.171331850314445,
video/Training/zh_sp01_Dr_Ro_3_NVocInAudio_GlobalThetaInVideo.avi,vocoded,plusVideo,sp01,Dr,Ro,3,,,,,,,,0,2,2,2,,,,,,,,,,,,,,,,,-0.3958333333333333,-0.35138888888888886,1,0,0,5.37107160000005,call4,0.001388888888888889,-0.11666666666666667,1,0,0,6.055389500000047,colour3,0.38055555555555554,-0.0875,1,0,0,6.63841699999989,number3,False,False,True,1,1,2019_Nov_07_1551,MA_Theta_Exp,3.0.7,60.171331850314445,
video/Training/zh_sp07_Dr_Gr_4_NVocInAudio_GlobalThetaInVideo.avi,vocoded,plusVideo,sp07,Dr,Gr,4,,,,,,,,0,3,3,3,,,,,,,,,,,,,,,,,-0.4097222222222222,0.10972222222222222,1,0,0,6.307855000000018,call2,0.027777777777777776,0.10138888888888889,1,0,0,7.061812000000145,colour2,0.35555555555555557,-0.3458333333333333,1,0,0,7.791720700000042,number4,False,False,True,1,1,2019_Nov_07_1551,MA_Theta_Exp,3.0.7,60.171331850314445,
video/Training/zh_sp01_Ti_Gr_2_NoThetaInAudio_NoVideo.avi,noTheta,noVideo,sp01,Ti,Gr,2,,,,,,,,0,4,4,4,,,,,,,,,,,,,,,,,-0.39861111111111114,-0.11805555555555555,1,0,0,8.046943099999908,call3,-0.058333333333333334,0.04027777777777778,1,0,0,8.665687599999956,colour2,0.41944444444444445,0.08472222222222223,1,0,0,9.135727000000088,number2,False,False,True,1,1,2019_Nov_07_1551,MA_Theta_Exp,3.0.7,60.171331850314445,
video/Training/zh_sp07_Ti_Ro_1_NoThetaInAudio_NoVideo.avi,noTheta,noVideo,sp07,Ti,Ro,1,,,,,,,,0,5,5,5,,,,,,,,,,,,,,,,,-0.4361111111111111,-0.3861111111111111,1,0,0,4.834990999999945,call4,0.005555555555555556,-0.10138888888888889,1,0,0,5.490451099999973,colour3,0.45555555555555555,0.3013888888888889,1,0,0,6.1529835999999705,number1,False,False,True,1,1,2019_Nov_07_1551,MA_Theta_Exp,3.0.7,60.171331850314445,
video/Training/zh_sp01_Un_Ge_1_NoThetaInAudio_GlobalThetaInVideo.avi,noTheta,plusVideo,sp01,Un,Ge,1,,,,,,,,0,6,6,6,,,,,,,,,,,,,,,,,-0.3958333333333333,0.10972222222222222,1,0,0,6.035969600000044,call2,0.034722222222222224,0.25416666666666665,1,0,0,7.453163600000153,colour1,0.44166666666666665,0.3125,1,0,0,7.936246900000015,number1,False,False,True,1,1,2019_Nov_07_1551,MA_Theta_Exp,3.0.7,60.171331850314445,
video/Training/zh_sp07_Un_We_2_NoThetaInAudio_GlobalThetaInVideo.avi,noTheta,plusVideo,sp07,Un,We,2,,,,,,,,0,7,7,7,,,,,,,,,,,,,,,,,-0.3902777777777778,0.07777777777777778,1,0,0,5.977447400000074,call2,-0.041666666666666664,-0.09722222222222222,1,0,0,6.67838729999994,colour3,0.4361111111111111,0.2791666666666667,1,0,0,7.31053339999994,number1,False,False,False,1,1,2019_Nov_07_1551,MA_Theta_Exp,3.0.7,60.171331850314445,
video/Training/zh_sp01_Ad_Ge_1_GlobalTheta_NoVideo.avi,globalTheta,noVideo,sp01,Ad,Ge,1,,,,,,,,0,8,8,8,,,,,,,,,,,,,,,,,-0.41944444444444445,-0.3402777777777778,1,0,0,6.7547568999998475,call4,0.06944444444444445,0.075,1,0,0,7.387153299999909,colour2,0.4527777777777778,0.3194444444444444,1,0,0,7.792066900000009,number1,False,False,True,1,1,2019_Nov_07_1551,MA_Theta_Exp,3.0.7,60.171331850314445,
video/Training/zh_sp07_Ad_Ro_3_GlobalTheta_NoVideo.avi,globalTheta,noVideo,sp07,Ad,Ro,3,,,,,,,,0,9,9,9,,,,,,,,,,,,,,,,,-0.35555555555555557,0.05138888888888889,1,0,0,6.019909000000098,call2,-0.044444444444444446,0.07222222222222222,1,0,0,6.488460799999984,colour2,0.39305555555555555,-0.07777777777777778,1,0,0,7.052860199999941,number3,False,False,True,1,1,2019_Nov_07_1551,MA_Theta_Exp,3.0.7,60.171331850314445,
video/Experiment/zh_sp07_Dr_Gr_3_NVocInAudio_NoVideo.avi,vocoded,noVideo,sp07,Dr,Gr,3,0,2,flow/blocks/NVocInAudio_NoVideo_A.csv,,,,,,,,,0,0,0,0,0,0,0,22,,,,,,,,,-0.4361111111111111,0.1125,1,0,0,5.123924199999919,call2,-0.008333333333333333,0.1,1,0,0,5.848912299999938,colour2,0.3597222222222222,-0.11527777777777778,1,0,0,6.407873099999961,number3,False,False,True,1,1,2019_Nov_07_1551,MA_Theta_Exp,3.0.7,60.171331850314445,
video/Experiment/zh_sp01_Dr_We_4_NVocInAudio_NoVideo.avi,vocoded,noVideo,sp01,Dr,We,4,0,2,flow/blocks/NVocInAudio_NoVideo_A.csv,,,,,,,,,0,0,0,0,0,1,1,31,,,,,,,,,-0.3861111111111111,0.0625,1,0,0,5.462041899999804,call2,-0.022222222222222223,-0.36527777777777776,1,0,0,6.1329359000001205,colour4,0.40694444444444444,-0.3194444444444444,1,0,0,6.634732400000075,number4,False,False,True,1,1,2019_Nov_07_1551,MA_Theta_Exp,3.0.7,60.171331850314445,
video/Experiment/zh_sp01_Ad_Ge_2_NVocInAudio_NoVideo.avi,vocoded,noVideo,sp01,Ad,Ge,2,0,2,flow/blocks/NVocInAudio_NoVideo_A.csv,,,,,,,,,0,0,0,0,0,2,2,1,,,,,,,,,-0.37222222222222223,0.2986111111111111,1,0,0,5.566574199999877,call1,-0.013888888888888888,0.3375,1,0,0,6.027302299999974,colour1,0.3375,0.125,1,0,0,6.711639400000195,number2,False,False,True,1,1,2019_Nov_07_1551,MA_Theta_Exp,3.0.7,60.171331850314445,
video/Experiment/zh_sp01_Dr_Ro_3_NVocInAudio_NoVideo.avi,vocoded,noVideo,sp01,Dr,Ro,3,0,2,flow/blocks/NVocInAudio_NoVideo_A.csv,,,,,,,,,0,0,0,0,0,3,3,26,,,,,,,,,-0.3680555555555556,0.0875,1,0,0,5.433856300000116,call2,-0.022222222222222223,-0.11666666666666667,1,0,0,6.000797899999952,colour3,0.4527777777777778,-0.1125,1,0,0,6.601687000000084,number3,False,False,True,1,1,2019_Nov_07_1551,MA_Theta_Exp,3.0.7,60.171331850314445,
video/Experiment/zh_sp01_Dr_We_3_NVocInAudio_NoVideo.avi,vocoded,noVideo,sp01,Dr,We,3,0,2,flow/blocks/NVocInAudio_NoVideo_A.csv,,,,,,,,,0,0,0,0,0,4,4,30,,,,,,,,,-0.37777777777777777,0.0875,1,0,0,5.006469700000025,call2,0.0,-0.3680555555555556,1,0,0,5.710036799999898,colour4,0.3972222222222222,-0.10694444444444444,1,0,0,6.523803699999917,number3,False,False,True,1,1,2019_Nov_07_1551,MA_Theta_Exp,3.0.7,60.171331850314445,
video/Experiment/zh_sp07_Ad_Ro_4_NVocInAudio_NoVideo.avi,vocoded,noVideo,sp07,Ad,Ro,4,0,2,flow/blocks/NVocInAudio_NoVideo_A.csv,,,,,,,,,0,0,0,0,0,5,5,11,,,,,,,,,-0.4263888888888889,0.2972222222222222,1,0,0,4.9263614999999845,call1,-0.006944444444444444,-0.11527777777777778,1,0,0,5.82926469999984,colour3,0.35833333333333334,-0.36666666666666664,1,0,0,6.413057600000002,number4,False,False,True,1,1,2019_Nov_07_1551,MA_Theta_Exp,3.0.7,60.171331850314445,
video/Experiment/zh_sp07_Dr_Ge_2_NVocInAudio_NoVideo.avi,vocoded,noVideo,sp07,Dr,Ge,2,0,2,flow/blocks/NVocInAudio_NoVideo_A.csv,,,,,,,,,0,0,0,0,0,6,6,17,,,,,,,,,-0.3875,0.10416666666666667,1,0,0,4.9181422999999995,call2,-0.05277777777777778,0.28055555555555556,1,0,0,5.551194099999975,colour1,0.3472222222222222,0.08055555555555556,1,0,0,6.134853000000021,number2,False,False,True,1,1,2019_Nov_07_1551,MA_Theta_Exp,3.0.7,60.171331850314445,
video/Experiment/zh_sp01_Ad_Gr_2_NVocInAudio_NoVideo.avi,vocoded,noVideo,sp01,Ad,Gr,2,0,2,flow/blocks/NVocInAudio_NoVideo_A.csv,,,,,,,,,0,0,0,0,0,7,7,5,,,,,,,,,-0.4236111111111111,0.3402777777777778,1,0,0,5.193714199999931,call1,-0.058333333333333334,0.1125,1,0,0,5.7106366000000435,colour2,0.4152777777777778,0.12222222222222222,1,0,0,6.276852899999994,number2,False,False,True,1,1,2019_Nov_07_1551,MA_Theta_Exp,3.0.7,60.171331850314445,
video/Experiment/zh_sp01_Ad_Ro_3_NVocInAudio_NoVideo.avi,vocoded,noVideo,sp01,Ad,Ro,3,0,2,flow/blocks/NVocInAudio_NoVideo_A.csv,,,,,,,,,0,0,0,0,0,8,8,10,,,,,,,,,-0.33611111111111114,0.2972222222222222,1,0,0,5.119387299999971,call1,-0.04583333333333333,-0.11666666666666667,1,0,0,5.7696719000000485,colour3,0.4152777777777778,-0.1125,1,0,0,6.306738600000017,number3,False,False,True,1,1,2019_Nov_07_1551,MA_Theta_Exp,3.0.7,60.171331850314445,
video/Experiment/zh_sp07_Dr_Ge_4_NVocInAudio_NoVideo.avi,vocoded,noVideo,sp07,Dr,Ge,4,0,2,flow/blocks/NVocInAudio_NoVideo_A.csv,,,,,,,,,0,0,0,0,0,9,9,19,,,,,,,,,-0.3902777777777778,0.10972222222222222,1,0,0,4.808259300000145,call2,0.025,0.2916666666666667,1,0,0,5.376931999999897,colour1,0.3958333333333333,-0.3013888888888889,1,0,0,6.010970300000054,number4,False,False,True,1,1,2019_Nov_07_1551,MA_Theta_Exp,3.0.7,60.171331850314445,
video/Experiment/zh_sp07_Ad_Gr_1_NVocInAudio_NoVideo.avi,vocoded,noVideo,sp07,Ad,Gr,1,0,2,flow/blocks/NVocInAudio_NoVideo_A.csv,,,,,,,,,0,0,0,0,0,10,10,4,,,,,,,,,-0.37222222222222223,0.32083333333333336,1,0,0,4.573409000000083,call1,-0.05555555555555555,0.10277777777777777,1,0,0,5.073330700000042,colour2,0.38472222222222224,0.2569444444444444,1,0,0,5.544084799999837,number1,False,False,True,1,1,2019_Nov_07_1551,MA_Theta_Exp,3.0.7,60.171331850314445,
video/Experiment/zh_sp01_Ad_Gr_3_NVocInAudio_NoVideo.avi,vocoded,noVideo,sp01,Ad,Gr,3,0,2,flow/blocks/NVocInAudio_NoVideo_A.csv,,,,,,,,,0,0,0,0,0,11,11,6,,,,,,,,,-0.3888888888888889,0.2972222222222222,1,0,0,5.03336440000021,call1,-0.04861111111111111,0.10138888888888889,1,0,0,5.567255500000101,colour2,0.36944444444444446,-0.11388888888888889,1,0,0,6.069081300000107,number3,False,False,True,1,1,2019_Nov_07_1551,MA_Theta_Exp,3.0.7,60.171331850314445,
video/Experiment/zh_sp07_Dr_We_1_NVocInAudio_NoVideo.avi,vocoded,noVideo,sp07,Dr,We,1,0,2,flow/blocks/NVocInAudio_NoVideo_A.csv,,,,,,,,,0,0,0,0,0,12,12,28,,,,,,,,,-0.42083333333333334,0.08472222222222223,1,0,0,4.467140899999777,call2,-0.05,-0.30972222222222223,1,0,0,5.117620499999703,colour4,0.4652777777777778,0.31527777777777777,1,0,0,5.852728500000012,number1,False,False,True,1,1,2019_Nov_07_1551,MA_Theta_Exp,3.0.7,60.171331850314445,
video/Experiment/zh_sp07_Dr_Gr_1_NVocInAudio_NoVideo.avi,vocoded,noVideo,sp07,Dr,Gr,1,0,2,flow/blocks/NVocInAudio_NoVideo_A.csv,,,,,,,,,0,0,0,0,0,13,13,20,,,,,,,,,-0.41388888888888886,0.05,1,0,0,4.755781200000001,call2,-0.004166666666666667,0.08055555555555556,1,0,0,5.237926799999968,colour2,0.39166666666666666,0.2722222222222222,1,0,0,5.677694700000302,number1,False,False,True,1,1,2019_Nov_07_1551,MA_Theta_Exp,3.0.7,60.171331850314445,
video/Experiment/zh_sp01_Ad_Gr_4_NVocInAudio_NoVideo.avi,vocoded,noVideo,sp01,Ad,Gr,4,0,2,flow/blocks/NVocInAudio_NoVideo_A.csv,,,,,,,,,0,0,0,0,0,14,14,7,,,,,,,,,-0.38333333333333336,0.3125,1,0,0,5.38349130000006,call1,-0.06666666666666667,0.10972222222222222,1,0,0,5.9009015000001455,colour2,0.4166666666666667,-0.3333333333333333,1,0,0,6.503288500000053,number4,False,False,True,1,1,2019_Nov_07_1551,MA_Theta_Exp,3.0.7,60.171331850314445,
video/Experiment/zh_sp01_Dr_Ro_1_NVocInAudio_NoVideo.avi,vocoded,noVideo,sp01,Dr,Ro,1,0,2,flow/blocks/NVocInAudio_NoVideo_A.csv,,,,,,,,,0,0,0,0,0,15,15,24,,,,,,,,,-0.40694444444444444,0.10833333333333334,1,0,0,5.672506599999906,call2,-0.06944444444444445,-0.075,1,0,0,6.271827399999893,colour3,0.4111111111111111,0.24583333333333332,1,0,0,6.937948699999652,number1,False,False,True,1,1,2019_Nov_07_1551,MA_Theta_Exp,3.0.7,60.171331850314445,
video/Experiment/zh_sp01_Dr_Ge_1_NVocInAudio_NoVideo.avi,vocoded,noVideo,sp01,Dr,Ge,1,0,2,flow/blocks/NVocInAudio_NoVideo_A.csv,,,,,,,,,0,0,0,0,0,16,16,16,,,,,,,,,-0.3976851851851852,0.06805555555555555,1,0,0,5.714703800000279,call2,-0.056018518518518516,0.31805555555555554,1,0,0,6.281819499999983,colour1,0.39675925925925926,0.30694444444444446,1,0,0,6.748648999999659,number1,False,False,True,1,1,2019_Nov_07_1551,MA_Theta_Exp,3.0.7,60.171331850314445,
video/Experiment/zh_sp07_Dr_Ge_3_NVocInAudio_NoVideo.avi,vocoded,noVideo,sp07,Dr,Ge,3,0,2,flow/blocks/NVocInAudio_NoVideo_A.csv,,,,,,,,,0,0,0,0,0,17,17,18,,,,,,,,,-0.4462962962962963,0.08611111111111111,1,0,0,4.281094199999643,call2,-0.033796296296296297,0.2763888888888889,1,0,0,4.78183480000007,colour1,0.3537037037037037,-0.0625,1,0,0,5.385844399999769,number3,False,False,True,1,1,2019_Nov_07_1551,MA_Theta_Exp,3.0.7,60.171331850314445,
video/Experiment/zh_sp07_Ad_Ro_1_NVocInAudio_NoVideo.avi,vocoded,noVideo,sp07,Ad,Ro,1,0,2,flow/blocks/NVocInAudio_NoVideo_A.csv,,,,,,,,,0,0,0,0,0,18,18,8,,,,,,,,,-0.36712962962962964,0.3194444444444444,1,0,0,4.323673899999903,call1,-0.033796296296296297,-0.16111111111111112,1,0,0,4.889840599999843,colour3,0.4398148148148148,0.3055555555555556,1,0,0,5.4613346000001,number1,False,False,True,1,1,2019_Nov_07_1551,MA_Theta_Exp,3.0.7,60.171331850314445,
video/Experiment/zh_sp01_Dr_Gr_4_NVocInAudio_NoVideo.avi,vocoded,noVideo,sp01,Dr,Gr,4,0,2,flow/blocks/NVocInAudio_NoVideo_A.csv,,,,,,,,,0,0,0,0,0,19,19,23,,,,,,,,,-0.3837962962962963,0.09861111111111111,1,0,0,5.472644599999967,call2,0.037037037037037035,0.125,1,0,0,6.217401599999903,colour2,0.38287037037037036,-0.24305555555555555,1,0,0,6.789822700000059,number4,False,False,True,1,1,2019_Nov_07_1551,MA_Theta_Exp,3.0.7,60.171331850314445,
video/Experiment/zh_sp07_Ad_Ro_2_NVocInAudio_NoVideo.avi,vocoded,noVideo,sp07,Ad,Ro,2,0,2,flow/blocks/NVocInAudio_NoVideo_A.csv,,,,,,,,,0,0,0,0,0,20,20,9,,,,,,,,,-0.3296296296296296,0.10555555555555556,1,0,0,4.554365599999983,call2,-0.007407407407407408,-0.12222222222222222,1,0,0,5.0062840999999025,colour3,0.4356481481481482,0.09027777777777778,1,0,0,5.604028699999617,number2,False,False,True,1,1,2019_Nov_07_1551,MA_Theta_Exp,3.0.7,60.171331850314445,
video/Experiment/zh_sp07_Ad_Ge_4_NVocInAudio_NoVideo.avi,vocoded,noVideo,sp07,Ad,Ge,4,0,2,flow/blocks/NVocInAudio_NoVideo_A.csv,,,,,,,,,0,0,0,0,0,21,21,3,,,,,,,,,-0.38935185185185184,0.30416666666666664,1,0,0,4.715819199999714,call1,0.04537037037037037,0.3194444444444444,1,0,0,5.13260530000025,colour1,0.3925925925925926,-0.3763888888888889,1,0,0,5.816055600000254,number4,False,False,True,1,1,2019_Nov_07_1551,MA_Theta_Exp,3.0.7,60.171331850314445,
video/Experiment/zh_sp01_Ad_Ge_3_NVocInAudio_NoVideo.avi,vocoded,noVideo,sp01,Ad,Ge,3,0,2,flow/blocks/NVocInAudio_NoVideo_A.csv,,,,,,,,,0,0,0,0,0,22,22,2,,,,,,,,,-0.4449074074074074,0.32083333333333336,1,0,0,5.708667500000047,call1,0.06481481481481481,0.2916666666666667,1,0,0,6.725902399999995,colour1,0.36064814814814816,-0.041666666666666664,1,0,0,7.472961899999973,number3,False,False,True,1,1,2019_Nov_07_1551,MA_Theta_Exp,3.0.7,60.171331850314445,
video/Experiment/zh_sp01_Ad_We_3_NVocInAudio_NoVideo.avi,vocoded,noVideo,sp01,Ad,We,3,0,2,flow/blocks/NVocInAudio_NoVideo_A.csv,,,,,,,,,0,0,0,0,0,23,23,14,,,,,,,,,-0.41712962962962963,0.3388888888888889,1,0,0,4.864498999999796,call1,-0.02824074074074074,-0.3736111111111111,1,0,0,5.5144021999999495,colour4,0.4078703703703704,-0.16805555555555557,1,0,0,6.015800399999989,number3,False,False,True,1,1,2019_Nov_07_1551,MA_Theta_Exp,3.0.7,60.171331850314445,
video/Experiment/zh_sp01_Dr_Ro_4_NVocInAudio_NoVideo.avi,vocoded,noVideo,sp01,Dr,Ro,4,0,2,flow/blocks/NVocInAudio_NoVideo_A.csv,,,,,,,,,0,0,0,0,0,24,24,27,,,,,,,,,-0.36018518518518516,0.09027777777777778,1,0,0,5.2584468000000015,call2,-0.047685185185185185,0.3,1,0,0,5.746825600000193,colour1,0.3523148148148148,-0.2916666666666667,1,0,0,6.611014999999952,number4,False,False,True,1,1,2019_Nov_07_1551,MA_Theta_Exp,3.0.7,60.171331850314445,
video/Experiment/zh_sp07_Dr_Gr_2_NVocInAudio_NoVideo.avi,vocoded,noVideo,sp07,Dr,Gr,2,0,2,flow/blocks/NVocInAudio_NoVideo_A.csv,,,,,,,,,0,0,0,0,0,25,25,21,,,,,,,,,-0.4351851851851852,0.09861111111111111,1,0,0,4.6630662999996275,call2,-0.056018518518518516,0.1111111111111111,1,0,0,5.2959843000003275,colour2,0.47175925925925927,0.10833333333333334,1,0,0,6.119500300000254,number2,False,False,True,1,1,2019_Nov_07_1551,MA_Theta_Exp,3.0.7,60.171331850314445,
video/Experiment/zh_sp07_Dr_We_2_NVocInAudio_NoVideo.avi,vocoded,noVideo,sp07,Dr,We,2,0,2,flow/blocks/NVocInAudio_NoVideo_A.csv,,,,,,,,,0,0,0,0,0,26,26,29,,,,,,,,,-0.39351851851851855,0.09722222222222222,1,0,0,4.47728189999998,call2,0.012037037037037037,-0.33055555555555555,1,0,0,5.694542199999887,colour4,0.4287037037037037,0.07361111111111111,1,0,0,6.427964200000133,number2,False,False,True,1,1,2019_Nov_07_1551,MA_Theta_Exp,3.0.7,60.171331850314445,
video/Experiment/zh_sp07_Dr_Ro_2_NVocInAudio_NoVideo.avi,vocoded,noVideo,sp07,Dr,Ro,2,0,2,flow/blocks/NVocInAudio_NoVideo_A.csv,,,,,,,,,0,0,0,0,0,27,27,25,,,,,,,,,-0.38935185185185184,0.09722222222222222,1,0,0,4.511210900000151,call2,-0.007407407407407408,-0.10138888888888889,1,0,0,4.998109300000124,colour3,0.4203703703703704,0.08611111111111111,1,0,0,5.460325399999874,number2,False,False,True,1,1,2019_Nov_07_1551,MA_Theta_Exp,3.0.7,60.171331850314445,
video/Experiment/zh_sp07_Ad_We_1_NVocInAudio_NoVideo.avi,vocoded,noVideo,sp07,Ad,We,1,0,2,flow/blocks/NVocInAudio_NoVideo_A.csv,,,,,,,,,0,0,0,0,0,28,28,12,,,,,,,,,-0.42962962962962964,0.3013888888888889,1,0,0,4.522663699999612,call1,-0.11157407407407408,-0.3263888888888889,1,0,0,5.222305299999789,colour4,0.4287037037037037,0.3277777777777778,1,0,0,6.36182510000026,number1,False,False,True,1,1,2019_Nov_07_1551,MA_Theta_Exp,3.0.7,60.171331850314445,
video/Experiment/zh_sp01_Ad_We_4_NVocInAudio_NoVideo.avi,vocoded,noVideo,sp01,Ad,We,4,0,2,flow/blocks/NVocInAudio_NoVideo_A.csv,,,,,,,,,0,0,0,0,0,29,29,15,,,,,,,,,-0.3851851851851852,0.3013888888888889,1,0,0,5.09280549999994,call1,0.055092592592592596,-0.4,1,0,0,5.765590800000155,colour4,0.48564814814814816,-0.30694444444444446,1,0,0,6.256269500000144,number4,False,False,True,1,1,2019_Nov_07_1551,MA_Theta_Exp,3.0.7,60.171331850314445,
video/Experiment/zh_sp07_Ad_Ge_1_NVocInAudio_NoVideo.avi,vocoded,noVideo,sp07,Ad,Ge,1,0,2,flow/blocks/NVocInAudio_NoVideo_A.csv,,,,,,,,,0,0,0,0,0,30,30,0,,,,,,,,,-0.350462962962963,0.2611111111111111,1,0,0,4.567066899999645,call1,0.06481481481481481,0.32916666666666666,1,0,0,5.035211900000377,colour1,0.4064814814814815,0.30972222222222223,1,0,0,5.499957400000312,number1,False,False,True,1,1,2019_Nov_07_1551,MA_Theta_Exp,3.0.7,60.171331850314445,
video/Experiment/zh_sp01_Ad_We_2_NVocInAudio_NoVideo.avi,vocoded,noVideo,sp01,Ad,We,2,0,2,flow/blocks/NVocInAudio_NoVideo_A.csv,,,,,,,,,0,0,0,0,0,31,31,13,,,,,,,,,-0.33796296296296297,0.3263888888888889,1,0,0,5.087261099999978,call1,-0.040740740740740744,-0.34305555555555556,1,0,0,5.80924559999994,colour4,0.45092592592592595,0.125,1,0,0,6.398374800000056,number2,False,False,True,1,1,2019_Nov_07_1551,MA_Theta_Exp,3.0.7,60.171331850314445,
video/Experiment/zh_sp01_Dr_Ge_4_NoThetaInAudio_GlobalThetaInVideo.avi,noTheta,plusVideo,sp01,Dr,Ge,4,1,3,flow/blocks/NoThetaInAudio_GlobalThetaInVideo_A.csv,,,,,,,,,0,1,1,1,0,0,0,19,,,,,,,,,-0.4212962962962963,0.2847222222222222,1,0,0,6.404866800000036,call1,-0.02962962962962963,0.2972222222222222,1,0,0,7.204055000000153,colour1,0.4134259259259259,0.06111111111111111,1,0,0,7.738041799999792,number2,False,False,False,1,1,2019_Nov_07_1551,MA_Theta_Exp,3.0.7,60.171331850314445,
video/Experiment/zh_sp01_Ad_Ge_3_NoThetaInAudio_GlobalThetaInVideo.avi,noTheta,plusVideo,sp01,Ad,Ge,3,1,3,flow/blocks/NoThetaInAudio_GlobalThetaInVideo_A.csv,,,,,,,,,0,1,1,1,0,1,1,2,,,,,,,,,-0.38796296296296295,0.12638888888888888,1,0,0,5.362936499999705,call2,0.006481481481481481,0.2791666666666667,1,0,0,5.8890112999997655,colour1,0.4287037037037037,-0.0763888888888889,1,0,0,6.4066695999999865,number3,False,False,True,1,1,2019_Nov_07_1551,MA_Theta_Exp,3.0.7,60.171331850314445,
video/Experiment/zh_sp01_Ad_Ro_4_NoThetaInAudio_GlobalThetaInVideo.avi,noTheta,plusVideo,sp01,Ad,Ro,4,1,3,flow/blocks/NoThetaInAudio_GlobalThetaInVideo_A.csv,,,,,,,,,0,1,1,1,0,2,2,11,,,,,,,,,-0.362962962962963,0.3416666666666667,1,0,0,5.07279219999964,call1,-0.026851851851851852,-0.1486111111111111,1,0,0,5.653324000000339,colour3,0.4675925925925926,-0.4,1,0,0,6.142378800000188,number4,False,False,True,1,1,2019_Nov_07_1551,MA_Theta_Exp,3.0.7,60.171331850314445,
video/Experiment/zh_sp07_Ad_Ro_1_NoThetaInAudio_GlobalThetaInVideo.avi,noTheta,plusVideo,sp07,Ad,Ro,1,1,3,flow/blocks/NoThetaInAudio_GlobalThetaInVideo_A.csv,,,,,,,,,0,1,1,1,0,3,3,8,,,,,,,,,-0.4101851851851852,0.1125,1,0,0,5.0106619000002866,call2,0.023148148148148147,-0.1375,1,0,0,6.42927120000013,colour3,0.4412037037037037,0.2777777777777778,1,0,0,6.994918900000357,number1,False,False,True,1,1,2019_Nov_07_1551,MA_Theta_Exp,3.0.7,60.171331850314445,
video/Experiment/zh_sp07_Ad_We_3_NoThetaInAudio_GlobalThetaInVideo.avi,noTheta,plusVideo,sp07,Ad,We,3,1,3,flow/blocks/NoThetaInAudio_GlobalThetaInVideo_A.csv,,,,,,,,,0,1,1,1,0,4,4,14,,,,,,,,,-0.40185185185185185,0.30972222222222223,1,0,0,4.1378843000002234,call1,-0.06435185185185185,-0.3541666666666667,1,0,0,4.8046862999999576,colour4,0.4064814814814815,-0.13472222222222222,1,0,0,5.421716199999992,number3,False,False,True,1,1,2019_Nov_07_1551,MA_Theta_Exp,3.0.7,60.171331850314445,
video/Experiment/zh_sp07_Ad_We_1_NoThetaInAudio_GlobalThetaInVideo.avi,noTheta,plusVideo,sp07,Ad,We,1,1,3,flow/blocks/NoThetaInAudio_GlobalThetaInVideo_A.csv,,,,,,,,,0,1,1,1,0,5,5,12,,,,,,,,,-0.3962962962962963,0.2916666666666667,1,0,0,4.341897000000245,call1,-0.03518518518518519,-0.35138888888888886,1,0,0,4.943060700000387,colour4,0.3925925925925926,0.2833333333333333,1,0,0,5.643150700000206,number1,False,False,True,1,1,2019_Nov_07_1551,MA_Theta_Exp,3.0.7,60.171331850314445,
video/Experiment/zh_sp01_Ad_Gr_3_NoThetaInAudio_GlobalThetaInVideo.avi,noTheta,plusVideo,sp01,Ad,Gr,3,1,3,flow/blocks/NoThetaInAudio_GlobalThetaInVideo_A.csv,,,,,,,,,0,1,1,1,0,6,6,6,,,,,,,,,-0.3560185185185185,0.2791666666666667,1,0,0,5.132538299999851,call1,-0.033796296296296297,0.08055555555555556,1,0,0,5.614157300000443,colour2,0.4134259259259259,-0.10833333333333334,1,0,0,6.326243199999681,number3,False,False,True,1,1,2019_Nov_07_1551,MA_Theta_Exp,3.0.7,60.171331850314445,
video/Experiment/zh_sp07_Dr_Gr_4_NoThetaInAudio_GlobalThetaInVideo.avi,noTheta,plusVideo,sp07,Dr,Gr,4,1,3,flow/blocks/NoThetaInAudio_GlobalThetaInVideo_A.csv,,,,,,,,,0,1,1,1,0,7,7,23,,,,,,,,,-0.3587962962962963,0.33194444444444443,1,0,0,4.622875900000054,call1,0.02175925925925926,0.09861111111111111,1,0,0,5.040894799999933,colour2,0.41759259259259257,-0.2972222222222222,1,0,0,5.540258899999571,number4,False,False,True,1,1,2019_Nov_07_1551,MA_Theta_Exp,3.0.7,60.171331850314445,
video/Experiment/zh_sp01_Dr_We_4_NoThetaInAudio_GlobalThetaInVideo.avi,noTheta,plusVideo,sp01,Dr,We,4,1,3,flow/blocks/NoThetaInAudio_GlobalThetaInVideo_A.csv,,,,,,,,,0,1,1,1,0,8,8,31,,,,,,,,,-0.3337962962962963,0.10277777777777777,1,0,0,5.275868299999729,call2,-0.047685185185185185,-0.25555555555555554,1,0,0,5.792293299999983,colour4,0.37037037037037035,-0.3638888888888889,1,0,0,6.2918141000000105,number4,False,False,True,1,1,2019_Nov_07_1551,MA_Theta_Exp,3.0.7,60.171331850314445,
video/Experiment/zh_sp01_Dr_Gr_2_NoThetaInAudio_GlobalThetaInVideo.avi,noTheta,plusVideo,sp01,Dr,Gr,2,1,3,flow/blocks/NoThetaInAudio_GlobalThetaInVideo_A.csv,,,,,,,,,0,1,1,1,0,9,9,21,,,,,,,,,-0.3476851851851852,0.07916666666666666,1,0,0,5.215742099999716,call2,0.028703703703703703,-0.31666666666666665,1,0,0,5.716619999999693,colour4,0.4050925925925926,-0.025,1,0,0,6.2331647000000885,number3,False,False,False,1,1,2019_Nov_07_1551,MA_Theta_Exp,3.0.7,60.171331850314445,
video/Experiment/zh_sp01_Dr_Ge_2_NoThetaInAudio_GlobalThetaInVideo.avi,noTheta,plusVideo,sp01,Dr,Ge,2,1,3,flow/blocks/NoThetaInAudio_GlobalThetaInVideo_A.csv,,,,,,,,,0,1,1,1,0,10,10,17,,,,,,,,,-0.38101851851851853,0.2986111111111111,1,0,0,5.2780078999999205,call1,-0.01574074074074074,0.2916666666666667,1,0,0,5.671913700000005,colour1,0.4023148148148148,0.1,1,0,0,6.122335300000032,number2,False,False,True,1,1,2019_Nov_07_1551,MA_Theta_Exp,3.0.7,60.171331850314445,
video/Experiment/zh_sp07_Dr_Ro_3_NoThetaInAudio_GlobalThetaInVideo.avi,noTheta,plusVideo,sp07,Dr,Ro,3,1,3,flow/blocks/NoThetaInAudio_GlobalThetaInVideo_A.csv,,,,,,,,,0,1,1,1,0,11,11,26,,,,,,,,,-0.41435185185185186,0.1361111111111111,1,0,0,4.258242099999734,call2,0.027314814814814816,-0.1111111111111111,1,0,0,4.807265500000085,colour3,0.41759259259259257,-0.14305555555555555,1,0,0,5.274912700000186,number3,False,False,True,1,1,2019_Nov_07_1551,MA_Theta_Exp,3.0.7,60.171331850314445,
video/Experiment/zh_sp07_Ad_We_2_NoThetaInAudio_GlobalThetaInVideo.avi,noTheta,plusVideo,sp07,Ad,We,2,1,3,flow/blocks/NoThetaInAudio_GlobalThetaInVideo_A.csv,,,,,,,,,0,1,1,1,0,12,12,13,,,,,,,,,-0.37546296296296294,0.275,1,0,0,4.385074499999973,call1,-0.02824074074074074,-0.3819444444444444,1,0,0,4.99771469999996,colour4,0.43287037037037035,0.06944444444444445,1,0,0,5.564047899999878,number2,False,False,True,1,1,2019_Nov_07_1551,MA_Theta_Exp,3.0.7,60.171331850314445,
video/Experiment/zh_sp07_Dr_Ro_1_NoThetaInAudio_GlobalThetaInVideo.avi,noTheta,plusVideo,sp07,Dr,Ro,1,1,3,flow/blocks/NoThetaInAudio_GlobalThetaInVideo_A.csv,,,,,,,,,0,1,1,1,0,13,13,24,,,,,,,,,-0.4185185185185185,0.29305555555555557,1,0,0,4.3014891000002535,call1,-0.07407407407407407,-0.0625,1,0,0,4.780380700000023,colour3,0.4064814814814815,0.3194444444444444,1,0,0,5.364036800000122,number1,False,False,True,1,1,2019_Nov_07_1551,MA_Theta_Exp,3.0.7,60.171331850314445,
video/Experiment/zh_sp01_Ad_Gr_2_NoThetaInAudio_GlobalThetaInVideo.avi,noTheta,plusVideo,sp01,Ad,Gr,2,1,3,flow/blocks/NoThetaInAudio_GlobalThetaInVideo_A.csv,,,,,,,,,0,1,1,1,0,14,14,5,,,,,,,,,-0.3421296296296296,0.31666666666666665,1,0,0,5.3890409000000545,call1,0.03564814814814815,0.09861111111111111,1,0,0,5.822621400000116,colour2,0.48148148148148145,0.08333333333333333,1,0,0,6.255189700000301,number2,False,False,True,1,1,2019_Nov_07_1551,MA_Theta_Exp,3.0.7,60.171331850314445,
video/Experiment/zh_sp01_Ad_Gr_1_NoThetaInAudio_GlobalThetaInVideo.avi,noTheta,plusVideo,sp01,Ad,Gr,1,1,3,flow/blocks/NoThetaInAudio_GlobalThetaInVideo_A.csv,,,,,,,,,0,1,1,1,0,15,15,4,,,,,,,,,-0.38657407407407407,0.325,1,0,0,5.175019499999962,call1,-0.000462962962962963,0.12638888888888888,1,0,0,5.973976499999935,colour2,0.4828703703703704,0.30416666666666664,1,0,0,6.473565600000256,number1,False,False,True,1,1,2019_Nov_07_1551,MA_Theta_Exp,3.0.7,60.171331850314445,
video/Experiment/zh_sp07_Dr_We_1_NoThetaInAudio_GlobalThetaInVideo.avi,noTheta,plusVideo,sp07,Dr,We,1,1,3,flow/blocks/NoThetaInAudio_GlobalThetaInVideo_A.csv,,,,,,,,,0,1,1,1,0,16,16,28,,,,,,,,,-0.41574074074074074,0.30277777777777776,1,0,0,4.427109799999926,call1,-0.03518518518518519,-0.36666666666666664,1,0,0,5.126931599999807,colour4,0.42453703703703705,0.27361111111111114,1,0,0,5.844095599999946,number1,False,False,True,1,1,2019_Nov_07_1551,MA_Theta_Exp,3.0.7,60.171331850314445,
video/Experiment/zh_sp01_Dr_Ro_2_NoThetaInAudio_GlobalThetaInVideo.avi,noTheta,plusVideo,sp01,Dr,Ro,2,1,3,flow/blocks/NoThetaInAudio_GlobalThetaInVideo_A.csv,,,,,,,,,0,1,1,1,0,17,17,25,,,,,,,,,-0.38657407407407407,0.10277777777777777,1,0,0,5.458097900000212,call2,-0.0837962962962963,0.06666666666666667,1,0,0,5.891778700000032,colour2,0.39537037037037037,0.09305555555555556,1,0,0,6.49210549999998,number2,False,False,True,1,1,2019_Nov_07_1551,MA_Theta_Exp,3.0.7,60.171331850314445,
video/Experiment/zh_sp07_Ad_Ge_2_NoThetaInAudio_GlobalThetaInVideo.avi,noTheta,plusVideo,sp07,Ad,Ge,2,1,3,flow/blocks/NoThetaInAudio_GlobalThetaInVideo_A.csv,,,,,,,,,0,1,1,1,0,18,18,1,,,,,,,,,-0.3699074074074074,0.30416666666666664,1,0,0,4.356535599999916,call1,0.010648148148148148,0.30694444444444446,1,0,0,4.7703999000000294,colour1,0.4064814814814815,0.07777777777777778,1,0,0,5.204135899999983,number2,False,False,True,1,1,2019_Nov_07_1551,MA_Theta_Exp,3.0.7,60.171331850314445,
video/Experiment/zh_sp01_Dr_Ge_3_NoThetaInAudio_GlobalThetaInVideo.avi,noTheta,plusVideo,sp01,Dr,Ge,3,1,3,flow/blocks/NoThetaInAudio_GlobalThetaInVideo_A.csv,,,,,,,,,0,1,1,1,0,19,19,18,,,,,,,,,-0.4615740740740741,0.10416666666666667,1,0,0,5.017266899999868,call2,0.023148148148148147,0.32222222222222224,1,0,0,5.489045900000292,colour1,0.3662037037037037,-0.1111111111111111,1,0,0,6.06593329999987,number3,False,False,True,1,1,2019_Nov_07_1551,MA_Theta_Exp,3.0.7,60.171331850314445,
video/Experiment/zh_sp07_Dr_Ro_4_NoThetaInAudio_GlobalThetaInVideo.avi,noTheta,plusVideo,sp07,Dr,Ro,4,1,3,flow/blocks/NoThetaInAudio_GlobalThetaInVideo_A.csv,,,,,,,,,0,1,1,1,0,20,20,27,,,,,,,,,-0.38935185185185184,0.31527777777777777,1,0,0,4.664166699999896,call1,-0.018518518518518517,-0.09722222222222222,1,0,0,5.398593599999913,colour3,0.3592592592592593,-0.33194444444444443,1,0,0,5.9349019999999655,number4,False,False,True,1,1,2019_Nov_07_1551,MA_Theta_Exp,3.0.7,60.171331850314445,
video/Experiment/zh_sp01_Ad_Ro_2_NoThetaInAudio_GlobalThetaInVideo.avi,noTheta,plusVideo,sp01,Ad,Ro,2,1,3,flow/blocks/NoThetaInAudio_GlobalThetaInVideo_A.csv,,,,,,,,,0,1,1,1,0,21,21,9,,,,,,,,,-0.41574074074074074,0.3055555555555556,1,0,0,4.919018900000083,call1,0.05648148148148148,-0.12083333333333333,1,0,0,5.484920800000054,colour3,0.3925925925925926,0.09444444444444444,1,0,0,6.0684017999997195,number2,False,False,True,1,1,2019_Nov_07_1551,MA_Theta_Exp,3.0.7,60.171331850314445,
video/Experiment/zh_sp07_Ad_Gr_4_NoThetaInAudio_GlobalThetaInVideo.avi,noTheta,plusVideo,sp07,Ad,Gr,4,1,3,flow/blocks/NoThetaInAudio_GlobalThetaInVideo_A.csv,,,,,,,,,0,1,1,1,0,22,22,7,,,,,,,,,-0.43796296296296294,0.3125,1,0,0,4.21527690000039,call1,0.05092592592592592,0.03611111111111111,1,0,0,4.755168499999854,colour2,0.4009259259259259,-0.29444444444444445,1,0,0,5.296276999999918,number4,False,False,True,1,1,2019_Nov_07_1551,MA_Theta_Exp,3.0.7,60.171331850314445,
video/Experiment/zh_sp07_Dr_We_2_NoThetaInAudio_GlobalThetaInVideo.avi,noTheta,plusVideo,sp07,Dr,We,2,1,3,flow/blocks/NoThetaInAudio_GlobalThetaInVideo_A.csv,,,,,,,,,0,1,1,1,0,23,23,29,,,,,,,,,-0.35462962962962963,0.2652777777777778,1,0,0,4.629461799999717,call1,-0.02824074074074074,-0.38333333333333336,1,0,0,5.271749099999852,colour4,0.4064814814814815,-0.12361111111111112,1,0,0,5.7410940999998274,number3,False,False,False,1,1,2019_Nov_07_1551,MA_Theta_Exp,3.0.7,60.171331850314445,
video/Experiment/zh_sp01_Dr_Gr_3_NoThetaInAudio_GlobalThetaInVideo.avi,noTheta,plusVideo,sp01,Dr,Gr,3,1,3,flow/blocks/NoThetaInAudio_GlobalThetaInVideo_A.csv,,,,,,,,,0,1,1,1,0,24,24,22,,,,,,,,,-0.36574074074074076,0.1125,1,0,0,5.1405071999997745,call2,-0.4074074074074074,0.2625,1,0,0,6.540479199999936,colour2,0.337037037037037,-0.08888888888888889,1,0,0,9.22333209999988,number3,False,False,True,1,1,2019_Nov_07_1551,MA_Theta_Exp,3.0.7,60.171331850314445,
video/Experiment/zh_sp01_Ad_Ro_3_NoThetaInAudio_GlobalThetaInVideo.avi,noTheta,plusVideo,sp01,Ad,Ro,3,1,3,flow/blocks/NoThetaInAudio_GlobalThetaInVideo_A.csv,,,,,,,,,0,1,1,1,0,25,25,10,,,,,,,,,-0.3712962962962963,0.3625,1,0,0,4.91909829999986,call1,-0.03796296296296296,-0.075,1,0,0,5.502334400000109,colour3,0.43425925925925923,-0.09027777777777778,1,0,0,6.035828100000344,number3,False,False,True,1,1,2019_Nov_07_1551,MA_Theta_Exp,3.0.7,60.171331850314445,
video/Experiment/zh_sp07_Dr_Ge_1_NoThetaInAudio_GlobalThetaInVideo.avi,noTheta,plusVideo,sp07,Dr,Ge,1,1,3,flow/blocks/NoThetaInAudio_GlobalThetaInVideo_A.csv,,,,,,,,,0,1,1,1,0,26,26,16,,,,,,,,,-0.35462962962962963,0.25833333333333336,1,0,0,4.6059166000000005,call1,0.08703703703703704,0.28194444444444444,1,0,0,5.0250774000001,colour1,0.038425925925925926,0.30972222222222223,1,0,0,5.539394999999786,number1,False,False,True,1,1,2019_Nov_07_1551,MA_Theta_Exp,3.0.7,60.171331850314445,
video/Experiment/zh_sp07_Ad_We_4_NoThetaInAudio_GlobalThetaInVideo.avi,noTheta,plusVideo,sp07,Ad,We,4,1,3,flow/blocks/NoThetaInAudio_GlobalThetaInVideo_A.csv,,,,,,,,,0,1,1,1,0,27,27,15,,,,,,,,,-0.4615740740740741,0.30277777777777776,1,0,0,4.3171158999998624,call1,-0.06018518518518518,-0.3458333333333333,1,0,0,5.062166499999876,colour4,0.45231481481481484,-0.34444444444444444,1,0,0,5.56170259999999,number4,False,False,True,1,1,2019_Nov_07_1551,MA_Theta_Exp,3.0.7,60.171331850314445,
video/Experiment/zh_sp01_Ad_Ge_4_NoThetaInAudio_GlobalThetaInVideo.avi,noTheta,plusVideo,sp01,Ad,Ge,4,1,3,flow/blocks/NoThetaInAudio_GlobalThetaInVideo_A.csv,,,,,,,,,0,1,1,1,0,28,28,3,,,,,,,,,-0.42407407407407405,0.30694444444444446,1,0,0,5.454725900000085,call1,-0.018518518518518517,0.30833333333333335,1,0,0,5.89395710000008,colour1,0.35648148148148145,-0.30833333333333335,1,0,0,6.572068800000125,number4,False,False,True,1,1,2019_Nov_07_1551,MA_Theta_Exp,3.0.7,60.171331850314445,
video/Experiment/zh_sp07_Dr_Gr_1_NoThetaInAudio_GlobalThetaInVideo.avi,noTheta,plusVideo,sp07,Dr,Gr,1,1,3,flow/blocks/NoThetaInAudio_GlobalThetaInVideo_A.csv,,,,,,,,,0,1,1,1,0,29,29,20,,,,,,,,,-0.44074074074074077,0.044444444444444446,1,0,0,4.564865800000007,call2,-0.047685185185185185,0.1,1,0,0,5.2960189999998875,colour2,0.36203703703703705,0.30277777777777776,1,0,0,5.909100300000318,number1,False,False,True,1,1,2019_Nov_07_1551,MA_Theta_Exp,3.0.7,60.171331850314445,
video/Experiment/zh_sp01_Dr_We_3_NoThetaInAudio_GlobalThetaInVideo.avi,noTheta,plusVideo,sp01,Dr,We,3,1,3,flow/blocks/NoThetaInAudio_GlobalThetaInVideo_A.csv,,,,,,,,,0,1,1,1,0,30,30,30,,,,,,,,,-0.32685185185185184,0.13194444444444445,1,0,0,4.981116699999802,call2,-0.06296296296296296,-0.3597222222222222,1,0,0,5.680636399999912,colour4,0.4162037037037037,-0.11805555555555555,1,0,0,6.198379299999942,number3,False,False,True,1,1,2019_Nov_07_1551,MA_Theta_Exp,3.0.7,60.171331850314445,
video/Experiment/zh_sp07_Ad_Ge_1_NoThetaInAudio_GlobalThetaInVideo.avi,noTheta,plusVideo,sp07,Ad,Ge,1,1,3,flow/blocks/NoThetaInAudio_GlobalThetaInVideo_A.csv,,,,,,,,,0,1,1,1,0,31,31,0,,,,,,,,,-0.38101851851851853,0.2972222222222222,1,0,0,4.345209300000079,call1,-0.032407407407407406,0.3236111111111111,1,0,0,5.144572199999857,colour1,0.3398148148148148,0.33194444444444443,1,0,0,5.777587200000198,number1,False,False,True,1,1,2019_Nov_07_1551,MA_Theta_Exp,3.0.7,60.171331850314445,
video/Experiment/zh_sp01_Dr_Gr_3_GlobalTheta_NoVideo.avi,globalTheta,noVideo,sp01,Dr,Gr,3,2,5,flow/blocks/GlobalTheta_NoVideo_A.csv,,,,,,,,,0,2,2,2,0,0,0,22,,,,,,,,,-0.3699074074074074,0.125,1,0,0,5.192771700000321,call2,-0.021296296296296296,0.11805555555555555,1,0,0,5.774897000000237,colour2,0.43287037037037035,-0.07777777777777778,1,0,0,6.3262431000002834,number3,False,False,True,1,1,2019_Nov_07_1551,MA_Theta_Exp,3.0.7,60.171331850314445,
video/Experiment/zh_sp07_Ad_Gr_2_GlobalTheta_NoVideo.avi,globalTheta,noVideo,sp07,Ad,Gr,2,2,5,flow/blocks/GlobalTheta_NoVideo_A.csv,,,,,,,,,0,2,2,2,0,1,1,5,,,,,,,,,-0.4212962962962963,0.2902777777777778,1,0,0,4.39213460000019,call1,-0.0060185185185185185,0.005555555555555556,1,0,0,4.857681999999841,colour2,0.37175925925925923,0.31666666666666665,1,0,0,6.406217000000197,number1,False,False,False,1,1,2019_Nov_07_1551,MA_Theta_Exp,3.0.7,60.171331850314445,
video/Experiment/zh_sp01_Ad_Ge_1_GlobalTheta_NoVideo.avi,globalTheta,noVideo,sp01,Ad,Ge,1,2,5,flow/blocks/GlobalTheta_NoVideo_A.csv,,,,,,,,,0,2,2,2,0,2,2,0,,,,,,,,,-0.3851851851851852,0.33194444444444443,1,0,0,5.984444899999744,call1,0.03425925925925926,0.09444444444444444,1,0,0,7.186683900000389,colour2,0.38842592592592595,0.2763888888888889,1,0,0,7.690071800000169,number1,False,False,True,1,1,2019_Nov_07_1551,MA_Theta_Exp,3.0.7,60.171331850314445,
video/Experiment/zh_sp07_Ad_Gr_3_GlobalTheta_NoVideo.avi,globalTheta,noVideo,sp07,Ad,Gr,3,2,5,flow/blocks/GlobalTheta_NoVideo_A.csv,,,,,,,,,0,2,2,2,0,3,3,6,,,,,,,,,-0.43657407407407406,0.3388888888888889,1,0,0,4.482208299999911,call1,-0.01712962962962963,0.10138888888888889,1,0,0,4.955105999999887,colour2,0.3578703703703704,-0.0875,1,0,0,5.499977899999976,number3,False,False,True,1,1,2019_Nov_07_1551,MA_Theta_Exp,3.0.7,60.171331850314445,
video/Experiment/zh_sp07_Dr_Ge_4_GlobalTheta_NoVideo.avi,globalTheta,noVideo,sp07,Dr,Ge,4,2,5,flow/blocks/GlobalTheta_NoVideo_A.csv,,,,,,,,,0,2,2,2,0,4,4,19,,,,,,,,,-0.42268518518518516,0.12916666666666668,1,0,0,5.95570379999981,call2,0.038425925925925926,-0.09861111111111111,1,0,0,8.238049399999909,colour3,0.3537037037037037,-0.3,1,0,0,8.90908249999984,number4,False,False,True,1,1,2019_Nov_07_1551,MA_Theta_Exp,3.0.7,60.171331850314445,
video/Experiment/zh_sp07_Ad_Ro_2_GlobalTheta_NoVideo.avi,globalTheta,noVideo,sp07,Ad,Ro,2,2,5,flow/blocks/GlobalTheta_NoVideo_A.csv,,,,,,,,,0,2,2,2,0,5,5,9,,,,,,,,,-0.37962962962962965,0.2972222222222222,1,0,0,4.492223000000195,call1,-0.014351851851851852,-0.12638888888888888,1,0,0,5.11038120000012,colour3,0.43425925925925923,0.30277777777777776,1,0,0,5.712796600000274,number1,False,False,False,1,1,2019_Nov_07_1551,MA_Theta_Exp,3.0.7,60.171331850314445,
video/Experiment/zh_sp07_Dr_We_3_GlobalTheta_NoVideo.avi,globalTheta,noVideo,sp07,Dr,We,3,2,5,flow/blocks/GlobalTheta_NoVideo_A.csv,,,,,,,,,0,2,2,2,0,6,6,30,,,,,,,,,-0.3976851851851852,0.3013888888888889,1,0,0,4.119664300000295,call1,0.009259259259259259,-0.3541666666666667,1,0,0,4.7987889999999425,colour4,0.3773148148148148,-0.1388888888888889,1,0,0,5.26561700000002,number3,False,False,True,1,1,2019_Nov_07_1551,MA_Theta_Exp,3.0.7,60.171331850314445,
video/Experiment/zh_sp07_Dr_Ge_1_GlobalTheta_NoVideo.avi,globalTheta,noVideo,sp07,Dr,Ge,1,2,5,flow/blocks/GlobalTheta_NoVideo_A.csv,,,,,,,,,0,2,2,2,0,7,7,16,,,,,,,,,-0.3560185185185185,0.2263888888888889,1,0,0,4.344150399999762,call1,0.11898148148148148,0.2611111111111111,1,0,0,4.938125900000159,colour1,0.3912037037037037,0.32916666666666666,1,0,0,5.826594399999976,number1,False,False,True,1,1,2019_Nov_07_1551,MA_Theta_Exp,3.0.7,60.171331850314445,
video/Experiment/zh_sp01_Ad_Gr_1_GlobalTheta_NoVideo.avi,globalTheta,noVideo,sp01,Ad,Gr,1,2,5,flow/blocks/GlobalTheta_NoVideo_A.csv,,,,,,,,,0,2,2,2,0,8,8,4,,,,,,,,,-0.39351851851851855,0.2625,1,0,0,5.131612300000143,call1,0.04537037037037037,0.1375,1,0,0,5.710937100000137,colour2,0.399537037037037,0.31527777777777777,1,0,0,6.199803299999985,number1,False,False,True,1,1,2019_Nov_07_1551,MA_Theta_Exp,3.0.7,60.171331850314445,
video/Experiment/zh_sp01_Dr_We_1_GlobalTheta_NoVideo.avi,globalTheta,noVideo,sp01,Dr,We,1,2,5,flow/blocks/GlobalTheta_NoVideo_A.csv,,,,,,,,,0,2,2,2,0,9,9,28,,,,,,,,,-0.44907407407407407,0.10138888888888889,1,0,0,4.977575599999909,call2,0.037037037037037035,-0.3,1,0,0,5.678071499999987,colour4,0.44814814814814813,0.2986111111111111,1,0,0,6.379195199999685,number1,False,False,True,1,1,2019_Nov_07_1551,MA_Theta_Exp,3.0.7,60.171331850314445,
video/Experiment/zh_sp01_Ad_We_2_GlobalTheta_NoVideo.avi,globalTheta,noVideo,sp01,Ad,We,2,2,5,flow/blocks/GlobalTheta_NoVideo_A.csv,,,,,,,,,0,2,2,2,0,10,10,13,,,,,,,,,-0.40046296296296297,0.3375,1,0,0,5.124100100000305,call1,0.009259259259259259,-0.31527777777777777,1,0,0,5.95369189999974,colour4,0.3925925925925926,0.28888888888888886,1,0,0,6.55372559999978,number1,False,False,False,1,1,2019_Nov_07_1551,MA_Theta_Exp,3.0.7,60.171331850314445,
video/Experiment/zh_sp01_Dr_Ro_2_GlobalTheta_NoVideo.avi,globalTheta,noVideo,sp01,Dr,Ro,2,2,5,flow/blocks/GlobalTheta_NoVideo_A.csv,,,,,,,,,0,2,2,2,0,11,11,25,,,,,,,,,-0.4046296296296296,0.13194444444444445,1,0,0,5.719296300000224,call2,0.0412037037037037,-0.09166666666666666,1,0,0,7.151034400000299,colour3,0.3939814814814815,0.08194444444444444,1,0,0,7.649054100000285,number2,False,False,True,1,1,2019_Nov_07_1551,MA_Theta_Exp,3.0.7,60.171331850314445,
video/Experiment/zh_sp01_Dr_Gr_2_GlobalTheta_NoVideo.avi,globalTheta,noVideo,sp01,Dr,Gr,2,2,5,flow/blocks/GlobalTheta_NoVideo_A.csv,,,,,,,,,0,2,2,2,0,12,12,21,,,,,,,,,-0.37962962962962965,0.1111111111111111,1,0,0,5.027609100000063,call2,-0.06851851851851852,0.1,1,0,0,5.39429599999994,colour2,0.31342592592592594,0.10555555555555556,1,0,0,5.79405399999996,number2,False,False,True,1,1,2019_Nov_07_1551,MA_Theta_Exp,3.0.7,60.171331850314445,
video/Experiment/zh_sp01_Dr_We_2_GlobalTheta_NoVideo.avi,globalTheta,noVideo,sp01,Dr,We,2,2,5,flow/blocks/GlobalTheta_NoVideo_A.csv,,,,,,,,,0,2,2,2,0,13,13,29,,,,,,,,,-0.3712962962962963,0.11666666666666667,1,0,0,5.100115499999902,call2,0.05092592592592592,-0.2861111111111111,1,0,0,5.630298999999923,colour4,0.4023148148148148,0.12361111111111112,1,0,0,7.229362600000059,number2,False,False,True,1,1,2019_Nov_07_1551,MA_Theta_Exp,3.0.7,60.171331850314445,
video/Experiment/zh_sp07_Dr_Ro_4_GlobalTheta_NoVideo.avi,globalTheta,noVideo,sp07,Dr,Ro,4,2,5,flow/blocks/GlobalTheta_NoVideo_A.csv,,,,,,,,,0,2,2,2,0,14,14,27,,,,,,,,,-0.38657407407407407,0.3375,1,0,0,4.605447699999786,call1,-0.014351851851851852,-0.10694444444444444,1,0,0,5.1856769000000895,colour3,0.3648148148148148,-0.3277777777777778,1,0,0,5.660414700000274,number4,False,False,True,1,1,2019_Nov_07_1551,MA_Theta_Exp,3.0.7,60.171331850314445,
video/Experiment/zh_sp01_Dr_Ge_3_GlobalTheta_NoVideo.avi,globalTheta,noVideo,sp01,Dr,Ge,3,2,5,flow/blocks/GlobalTheta_NoVideo_A.csv,,,,,,,,,0,2,2,2,0,15,15,18,,,,,,,,,-0.3976851851851852,0.0763888888888889,1,0,0,5.158414600000015,call2,-0.0032407407407407406,0.3277777777777778,1,0,0,6.522569799999928,colour1,0.3925925925925926,-0.0375,1,0,0,7.27307860000019,number3,False,False,True,1,1,2019_Nov_07_1551,MA_Theta_Exp,3.0.7,60.171331850314445,
video/Experiment/zh_sp07_Dr_Ge_2_GlobalTheta_NoVideo.avi,globalTheta,noVideo,sp07,Dr,Ge,2,2,5,flow/blocks/GlobalTheta_NoVideo_A.csv,,,,,,,,,0,2,2,2,0,16,16,17,,,,,,,,,-0.3962962962962963,0.30972222222222223,1,0,0,4.6001704000000245,call1,0.006481481481481481,0.275,1,0,0,4.983478300000115,colour1,0.48148148148148145,0.30416666666666664,1,0,0,5.433370100000047,number1,False,False,False,1,1,2019_Nov_07_1551,MA_Theta_Exp,3.0.7,60.171331850314445,
video/Experiment/zh_sp01_Dr_Gr_1_GlobalTheta_NoVideo.avi,globalTheta,noVideo,sp01,Dr,Gr,1,2,5,flow/blocks/GlobalTheta_NoVideo_A.csv,,,,,,,,,0,2,2,2,0,17,17,20,,,,,,,,,-0.3685185185185185,0.2791666666666667,1,0,0,5.7234793000002355,call1,0.01898148148148148,0.06527777777777778,1,0,0,6.1599756999999045,colour2,0.3773148148148148,0.2569444444444444,1,0,0,6.568777500000124,number1,False,False,True,1,1,2019_Nov_07_1551,MA_Theta_Exp,3.0.7,60.171331850314445,
video/Experiment/zh_sp07_Dr_Gr_4_GlobalTheta_NoVideo.avi,globalTheta,noVideo,sp07,Dr,Gr,4,2,5,flow/blocks/GlobalTheta_NoVideo_A.csv,,,,,,,,,0,2,2,2,0,18,18,23,,,,,,,,,-0.4101851851851852,0.06666666666666667,1,0,0,4.523889500000223,call2,0.023148148148148147,0.07777777777777778,1,0,0,4.992090800000369,colour2,0.4148148148148148,-0.10138888888888889,1,0,0,5.563546899999892,number3,False,False,False,1,1,2019_Nov_07_1551,MA_Theta_Exp,3.0.7,60.171331850314445,
video/Experiment/zh_sp01_Ad_Ge_3_GlobalTheta_NoVideo.avi,globalTheta,noVideo,sp01,Ad,Ge,3,2,5,flow/blocks/GlobalTheta_NoVideo_A.csv,,,,,,,,,0,2,2,2,0,19,19,2,,,,,,,,,-0.4393518518518518,0.28888888888888886,1,0,0,4.827998399999615,call1,0.052314814814814814,0.2875,1,0,0,5.81088150000005,colour1,0.3925925925925926,-0.12916666666666668,1,0,0,6.52724709999984,number3,False,False,True,1,1,2019_Nov_07_1551,MA_Theta_Exp,3.0.7,60.171331850314445,
video/Experiment/zh_sp01_Ad_Ge_2_GlobalTheta_NoVideo.avi,globalTheta,noVideo,sp01,Ad,Ge,2,2,5,flow/blocks/GlobalTheta_NoVideo_A.csv,,,,,,,,,0,2,2,2,0,20,20,1,,,,,,,,,-0.4074074074074074,0.3138888888888889,1,0,0,4.923955699999624,call1,0.027314814814814816,0.2638888888888889,1,0,0,5.441835799999808,colour1,0.36203703703703705,0.10277777777777777,1,0,0,5.923891100000219,number2,False,False,True,1,1,2019_Nov_07_1551,MA_Theta_Exp,3.0.7,60.171331850314445,
video/Experiment/zh_sp07_Ad_Ge_4_GlobalTheta_NoVideo.avi,globalTheta,noVideo,sp07,Ad,Ge,4,2,5,flow/blocks/GlobalTheta_NoVideo_A.csv,,,,,,,,,0,2,2,2,0,21,21,3,,,,,,,,,-0.4101851851851852,0.26666666666666666,1,0,0,4.830300799999804,call1,0.014814814814814815,0.26666666666666666,1,0,0,5.612887799999953,colour1,0.4134259259259259,-0.3013888888888889,1,0,0,6.198148299999957,number4,False,False,True,1,1,2019_Nov_07_1551,MA_Theta_Exp,3.0.7,60.171331850314445,
video/Experiment/zh_sp07_Dr_We_4_GlobalTheta_NoVideo.avi,globalTheta,noVideo,sp07,Dr,We,4,2,5,flow/blocks/GlobalTheta_NoVideo_A.csv,,,,,,,,,0,2,2,2,0,22,22,31,,,,,,,,,-0.4532407407407407,0.30277777777777776,1,0,0,5.2489292000000205,call1,-0.05462962962962963,-0.34305555555555556,1,0,0,5.869811100000334,colour4,0.3314814814814815,-0.3277777777777778,1,0,0,6.2831411000001935,number4,False,False,True,1,1,2019_Nov_07_1551,MA_Theta_Exp,3.0.7,60.171331850314445,
video/Experiment/zh_sp01_Dr_Ro_1_GlobalTheta_NoVideo.avi,globalTheta,noVideo,sp01,Dr,Ro,1,2,5,flow/blocks/GlobalTheta_NoVideo_A.csv,,,,,,,,,0,2,2,2,0,23,23,24,,,,,,,,,-0.39490740740740743,0.2986111111111111,1,0,0,5.3709883999999875,call1,-0.03657407407407407,-0.075,1,0,0,5.965042599999833,colour3,0.4009259259259259,0.2972222222222222,1,0,0,6.765841900000396,number1,False,False,True,1,1,2019_Nov_07_1551,MA_Theta_Exp,3.0.7,60.171331850314445,
video/Experiment/zh_sp07_Ad_Ro_3_GlobalTheta_NoVideo.avi,globalTheta,noVideo,sp07,Ad,Ro,3,2,5,flow/blocks/GlobalTheta_NoVideo_A.csv,,,,,,,,,0,2,2,2,0,24,24,10,,,,,,,,,-0.362962962962963,0.3625,1,0,0,4.296161199999915,call1,-0.03657407407407407,0.12083333333333333,1,0,0,4.747347200000149,colour2,0.4162037037037037,-0.125,1,0,0,5.412289800000053,number3,False,False,True,1,1,2019_Nov_07_1551,MA_Theta_Exp,3.0.7,60.171331850314445,
video/Experiment/zh_sp07_Ad_We_4_GlobalTheta_NoVideo.avi,globalTheta,noVideo,sp07,Ad,We,4,2,5,flow/blocks/GlobalTheta_NoVideo_A.csv,,,,,,,,,0,2,2,2,0,25,25,15,,,,,,,,,-0.39351851851851855,0.30277777777777776,1,0,0,4.499393699999928,call1,-0.06712962962962964,-0.37916666666666665,1,0,0,5.21605610000006,colour4,0.3425925925925926,-0.12916666666666668,1,0,0,5.7389533999999,number3,False,False,False,1,1,2019_Nov_07_1551,MA_Theta_Exp,3.0.7,60.171331850314445,
video/Experiment/zh_sp07_Ad_Gr_4_GlobalTheta_NoVideo.avi,globalTheta,noVideo,sp07,Ad,Gr,4,2,5,flow/blocks/GlobalTheta_NoVideo_A.csv,,,,,,,,,0,2,2,2,0,26,26,7,,,,,,,,,-0.41712962962962963,0.3138888888888889,1,0,0,4.1099254999999175,call1,-0.06296296296296296,0.06666666666666667,1,0,0,4.572779500000252,colour2,0.38287037037037036,-0.27361111111111114,1,0,0,5.106812199999695,number4,False,False,True,1,1,2019_Nov_07_1551,MA_Theta_Exp,3.0.7,60.171331850314445,
video/Experiment/zh_sp07_Ad_Ro_1_GlobalTheta_NoVideo.avi,globalTheta,noVideo,sp07,Ad,Ro,1,2,5,flow/blocks/GlobalTheta_NoVideo_A.csv,,,,,,,,,0,2,2,2,0,27,27,8,,,,,,,,,-0.4310185185185185,0.3277777777777778,1,0,0,4.3738406000002215,call1,-0.07962962962962963,0.3236111111111111,1,0,0,4.774430800000118,colour1,0.4217592592592593,0.2722222222222222,1,0,0,5.209643600000163,number1,False,False,True,1,1,2019_Nov_07_1551,MA_Theta_Exp,3.0.7,60.171331850314445,
video/Experiment/zh_sp01_Ad_Ro_4_GlobalTheta_NoVideo.avi,globalTheta,noVideo,sp01,Ad,Ro,4,2,5,flow/blocks/GlobalTheta_NoVideo_A.csv,,,,,,,,,0,2,2,2,0,28,28,11,,,,,,,,,-0.40185185185185185,0.32222222222222224,1,0,0,5.073725700000068,call1,-0.021296296296296296,-0.10138888888888889,1,0,0,5.557116899999983,colour3,0.3773148148148148,-0.3138888888888889,1,0,0,6.027970200000254,number4,False,False,True,1,1,2019_Nov_07_1551,MA_Theta_Exp,3.0.7,60.171331850314445,
video/Experiment/zh_sp07_Ad_We_1_GlobalTheta_NoVideo.avi,globalTheta,noVideo,sp07,Ad,We,1,2,5,flow/blocks/GlobalTheta_NoVideo_A.csv,,,,,,,,,0,2,2,2,0,29,29,12,,,,,,,,,-0.350462962962963,0.32916666666666666,1,0,0,4.512281499999972,call1,-0.02546296296296296,-0.3111111111111111,1,0,0,5.217867099999694,colour4,0.3800925925925926,0.31805555555555554,1,0,0,5.843556400000125,number1,False,False,True,1,1,2019_Nov_07_1551,MA_Theta_Exp,3.0.7,60.171331850314445,
video/Experiment/zh_sp01_Dr_Ro_3_GlobalTheta_NoVideo.avi,globalTheta,noVideo,sp01,Dr,Ro,3,2,5,flow/blocks/GlobalTheta_NoVideo_A.csv,,,,,,,,,0,2,2,2,0,30,30,26,,,,,,,,,-0.42962962962962964,0.11388888888888889,1,0,0,4.777529300000424,call2,0.003703703703703704,-0.06388888888888888,1,0,0,5.526621400000295,colour3,0.4009259259259259,-0.0875,1,0,0,7.048847900000055,number3,False,False,True,1,1,2019_Nov_07_1551,MA_Theta_Exp,3.0.7,60.171331850314445,
video/Experiment/zh_sp01_Ad_We_3_GlobalTheta_NoVideo.avi,globalTheta,noVideo,sp01,Ad,We,3,2,5,flow/blocks/GlobalTheta_NoVideo_A.csv,,,,,,,,,0,2,2,2,0,31,31,14,,,,,,,,,-0.3907407407407407,0.3055555555555556,1,0,0,4.939996000000065,call1,0.0412037037037037,-0.3375,1,0,0,6.040046600000096,colour4,0.4023148148148148,-0.13472222222222222,1,0,0,6.589339599999676,number3,False,False,True,1,1,2019_Nov_07_1551,MA_Theta_Exp,3.0.7,60.171331850314445,
video/Experiment/zh_sp07_Dr_We_3_NVocInAudio_GlobalThetaInVideo.avi,vocoded,plusVideo,sp07,Dr,We,3,3,1,flow/blocks/NVocInAudio_GlobalThetaInVideo_A.csv,,,,,,,,,0,3,3,3,0,0,0,30,,,,,,,,,-0.4212962962962963,0.15,1,0,0,4.279129099999864,call2,-0.010185185185185186,-0.37916666666666665,1,0,0,5.017322400000012,colour4,0.36064814814814816,-0.08194444444444444,1,0,0,5.596171099999992,number3,False,False,True,1,1,2019_Nov_07_1551,MA_Theta_Exp,3.0.7,60.171331850314445,
video/Experiment/zh_sp07_Ad_Ge_3_NVocInAudio_GlobalThetaInVideo.avi,vocoded,plusVideo,sp07,Ad,Ge,3,3,1,flow/blocks/NVocInAudio_GlobalThetaInVideo_A.csv,,,,,,,,,0,3,3,3,0,1,1,2,,,,,,,,,-0.45046296296296295,0.32083333333333336,1,0,0,5.427031200000329,call1,0.003703703703703704,0.3527777777777778,1,0,0,6.093760400000065,colour1,0.39537037037037037,-0.10138888888888889,1,0,0,6.659737600000426,number3,False,False,True,1,1,2019_Nov_07_1551,MA_Theta_Exp,3.0.7,60.171331850314445,
video/Experiment/zh_sp01_Ad_Gr_2_NVocInAudio_GlobalThetaInVideo.avi,vocoded,plusVideo,sp01,Ad,Gr,2,3,1,flow/blocks/NVocInAudio_GlobalThetaInVideo_A.csv,,,,,,,,,0,3,3,3,0,2,2,5,,,,,,,,,-0.4462962962962963,0.3263888888888889,1,0,0,5.04067299999997,call1,0.005092592592592593,0.12083333333333333,1,0,0,5.542268400000012,colour2,0.4134259259259259,0.09583333333333334,1,0,0,5.939970699999776,number2,False,False,True,1,1,2019_Nov_07_1551,MA_Theta_Exp,3.0.7,60.171331850314445,
video/Experiment/zh_sp07_Ad_Ro_4_NVocInAudio_GlobalThetaInVideo.avi,vocoded,plusVideo,sp07,Ad,Ro,4,3,1,flow/blocks/NVocInAudio_GlobalThetaInVideo_A.csv,,,,,,,,,0,3,3,3,0,3,3,11,,,,,,,,,-0.42407407407407405,0.3013888888888889,1,0,0,4.752960599999824,call1,0.006481481481481481,-0.10555555555555556,1,0,0,5.286365899999964,colour3,0.36064814814814816,-0.33055555555555555,1,0,0,5.846524600000066,number4,False,False,True,1,1,2019_Nov_07_1551,MA_Theta_Exp,3.0.7,60.171331850314445,
video/Experiment/zh_sp01_Ad_We_3_NVocInAudio_GlobalThetaInVideo.avi,vocoded,plusVideo,sp01,Ad,We,3,3,1,flow/blocks/NVocInAudio_GlobalThetaInVideo_A.csv,,,,,,,,,0,3,3,3,0,4,4,14,,,,,,,,,-0.4074074074074074,0.30694444444444446,1,0,0,4.91845289999992,call1,0.010648148148148148,-0.3611111111111111,1,0,0,5.5510003999997934,colour4,0.36342592592592593,-0.10138888888888889,1,0,0,6.051794900000004,number3,False,False,True,1,1,2019_Nov_07_1551,MA_Theta_Exp,3.0.7,60.171331850314445,
video/Experiment/zh_sp01_Dr_Gr_1_NVocInAudio_GlobalThetaInVideo.avi,vocoded,plusVideo,sp01,Dr,Gr,1,3,1,flow/blocks/NVocInAudio_GlobalThetaInVideo_A.csv,,,,,,,,,0,3,3,3,0,5,5,20,,,,,,,,,-0.4337962962962963,0.10972222222222222,1,0,0,5.105767700000342,call2,-0.07546296296296297,0.06666666666666667,1,0,0,5.523096800000076,colour2,0.37453703703703706,0.24583333333333332,1,0,0,5.972642799999903,number1,False,False,True,1,1,2019_Nov_07_1551,MA_Theta_Exp,3.0.7,60.171331850314445,
video/Experiment/zh_sp07_Ad_We_1_NVocInAudio_GlobalThetaInVideo.avi,vocoded,plusVideo,sp07,Ad,We,1,3,1,flow/blocks/NVocInAudio_GlobalThetaInVideo_A.csv,,,,,,,,,0,3,3,3,0,6,6,12,,,,,,,,,-0.3337962962962963,0.3125,1,0,0,4.425030999999763,call1,-0.010185185185185186,-0.3680555555555556,1,0,0,5.108975399999963,colour4,0.41898148148148145,0.30277777777777776,1,0,0,5.8094584000000395,number1,False,False,True,1,1,2019_Nov_07_1551,MA_Theta_Exp,3.0.7,60.171331850314445,
video/Experiment/zh_sp07_Ad_Ro_2_NVocInAudio_GlobalThetaInVideo.avi,vocoded,plusVideo,sp07,Ad,Ro,2,3,1,flow/blocks/NVocInAudio_GlobalThetaInVideo_A.csv,,,,,,,,,0,3,3,3,0,7,7,9,,,,,,,,,-0.3699074074074074,0.32916666666666666,1,0,0,4.342176999999992,call1,0.02175925925925926,-0.07361111111111111,1,0,0,4.852153499999986,colour3,0.3537037037037037,0.14027777777777778,1,0,0,5.303785899999639,number2,False,False,True,1,1,2019_Nov_07_1551,MA_Theta_Exp,3.0.7,60.171331850314445,
video/Experiment/zh_sp01_Dr_We_4_NVocInAudio_GlobalThetaInVideo.avi,vocoded,plusVideo,sp01,Dr,We,4,3,1,flow/blocks/NVocInAudio_GlobalThetaInVideo_A.csv,,,,,,,,,0,3,3,3,0,8,8,31,,,,,,,,,-0.3699074074074074,0.29305555555555557,1,0,0,5.489310399999795,call1,0.016203703703703703,-0.3236111111111111,1,0,0,6.42326950000006,colour4,0.4009259259259259,-0.2972222222222222,1,0,0,6.866776399999708,number4,False,False,True,1,1,2019_Nov_07_1551,MA_Theta_Exp,3.0.7,60.171331850314445,
video/Experiment/zh_sp01_Ad_Ge_4_NVocInAudio_GlobalThetaInVideo.avi,vocoded,plusVideo,sp01,Ad,Ge,4,3,1,flow/blocks/NVocInAudio_GlobalThetaInVideo_A.csv,,,,,,,,,0,3,3,3,0,9,9,3,,,,,,,,,-0.4351851851851852,0.31805555555555554,1,0,0,5.037212000000181,call1,-0.05740740740740741,0.28055555555555556,1,0,0,5.454180599999745,colour1,0.4689814814814815,-0.3402777777777778,1,0,0,6.1197423000003255,number4,False,False,True,1,1,2019_Nov_07_1551,MA_Theta_Exp,3.0.7,60.171331850314445,
video/Experiment/zh_sp07_Ad_Ro_1_NVocInAudio_GlobalThetaInVideo.avi,vocoded,plusVideo,sp07,Ad,Ro,1,3,1,flow/blocks/NVocInAudio_GlobalThetaInVideo_A.csv,,,,,,,,,0,3,3,3,0,10,10,8,,,,,,,,,-0.3699074074074074,0.3277777777777778,1,0,0,4.370964300000196,call1,-0.022685185185185187,-0.075,1,0,0,4.844734499999959,colour3,0.39814814814814814,0.28888888888888886,1,0,0,5.387805599999865,number1,False,False,True,1,1,2019_Nov_07_1551,MA_Theta_Exp,3.0.7,60.171331850314445,
video/Experiment/zh_sp07_Ad_Ro_3_NVocInAudio_GlobalThetaInVideo.avi,vocoded,plusVideo,sp07,Ad,Ro,3,3,1,flow/blocks/NVocInAudio_GlobalThetaInVideo_A.csv,,,,,,,,,0,3,3,3,0,11,11,10,,,,,,,,,-0.36574074074074076,0.30972222222222223,1,0,0,4.366631299999881,call1,-0.02546296296296296,-0.05416666666666667,1,0,0,4.916753299999982,colour3,0.42453703703703705,-0.07083333333333333,1,0,0,5.455830800000058,number3,False,False,True,1,1,2019_Nov_07_1551,MA_Theta_Exp,3.0.7,60.171331850314445,
video/Experiment/zh_sp07_Dr_Ge_3_NVocInAudio_GlobalThetaInVideo.avi,vocoded,plusVideo,sp07,Dr,Ge,3,3,1,flow/blocks/NVocInAudio_GlobalThetaInVideo_A.csv,,,,,,,,,0,3,3,3,0,12,12,18,,,,,,,,,-0.42962962962962964,0.1125,1,0,0,5.3891458000002785,call2,0.03148148148148148,-0.12638888888888888,1,0,0,6.922138099999756,colour3,0.48009259259259257,-0.12361111111111112,1,0,0,7.376103200000216,number3,False,False,True,1,1,2019_Nov_07_1551,MA_Theta_Exp,3.0.7,60.171331850314445,
video/Experiment/zh_sp01_Dr_Gr_4_NVocInAudio_GlobalThetaInVideo.avi,vocoded,plusVideo,sp01,Dr,Gr,4,3,1,flow/blocks/NVocInAudio_GlobalThetaInVideo_A.csv,,,,,,,,,0,3,3,3,0,13,13,23,,,,,,,,,-0.34074074074074073,0.10972222222222222,1,0,0,5.173383199999989,call2,0.020370370370370372,0.07083333333333333,1,0,0,5.6046424999999545,colour2,0.46620370370370373,-0.33055555555555555,1,0,0,6.121018899999854,number4,False,False,True,1,1,2019_Nov_07_1551,MA_Theta_Exp,3.0.7,60.171331850314445,
video/Experiment/zh_sp07_Ad_Ge_1_NVocInAudio_GlobalThetaInVideo.avi,vocoded,plusVideo,sp07,Ad,Ge,1,3,1,flow/blocks/NVocInAudio_GlobalThetaInVideo_A.csv,,,,,,,,,0,3,3,3,0,14,14,0,,,,,,,,,-0.40185185185185185,0.28055555555555556,1,0,0,4.38879820000011,call1,-0.06851851851851852,0.32916666666666666,1,0,0,4.876463200000217,colour1,0.38564814814814813,0.28888888888888886,1,0,0,5.357767599999988,number1,False,False,True,1,1,2019_Nov_07_1551,MA_Theta_Exp,3.0.7,60.171331850314445,
video/Experiment/zh_sp01_Dr_Ge_2_NVocInAudio_GlobalThetaInVideo.avi,vocoded,plusVideo,sp01,Dr,Ge,2,3,1,flow/blocks/NVocInAudio_GlobalThetaInVideo_A.csv,,,,,,,,,0,3,3,3,0,15,15,17,,,,,,,,,-0.39351851851851855,0.10833333333333334,1,0,0,5.058890799999972,call2,0.03981481481481482,0.33194444444444443,1,0,0,5.65886780000028,colour1,0.4564814814814815,0.07916666666666666,1,0,0,6.163563000000067,number2,False,False,True,1,1,2019_Nov_07_1551,MA_Theta_Exp,3.0.7,60.171331850314445,
video/Experiment/zh_sp01_Dr_Gr_2_NVocInAudio_GlobalThetaInVideo.avi,vocoded,plusVideo,sp01,Dr,Gr,2,3,1,flow/blocks/NVocInAudio_GlobalThetaInVideo_A.csv,,,,,,,,,0,3,3,3,0,16,16,21,,,,,,,,,-0.4337962962962963,0.10138888888888889,1,0,0,5.0916041000000405,call2,0.03287037037037037,0.10972222222222222,1,0,0,5.523248499999681,colour2,0.38981481481481484,0.12916666666666668,1,0,0,5.955993000000035,number2,False,False,True,1,1,2019_Nov_07_1551,MA_Theta_Exp,3.0.7,60.171331850314445,
video/Experiment/zh_sp01_Ad_We_2_NVocInAudio_GlobalThetaInVideo.avi,vocoded,plusVideo,sp01,Ad,We,2,3,1,flow/blocks/NVocInAudio_GlobalThetaInVideo_A.csv,,,,,,,,,0,3,3,3,0,17,17,13,,,,,,,,,-0.39490740740740743,0.2902777777777778,1,0,0,4.9998388000003615,call1,-0.001851851851851852,-0.32916666666666666,1,0,0,5.6014916999997695,colour4,0.34120370370370373,0.11666666666666667,1,0,0,6.171973699999853,number2,False,False,True,1,1,2019_Nov_07_1551,MA_Theta_Exp,3.0.7,60.171331850314445,
video/Experiment/zh_sp07_Dr_Gr_3_NVocInAudio_GlobalThetaInVideo.avi,vocoded,plusVideo,sp07,Dr,Gr,3,3,1,flow/blocks/NVocInAudio_GlobalThetaInVideo_A.csv,,,,,,,,,0,3,3,3,0,18,18,22,,,,,,,,,-0.3976851851851852,0.08194444444444444,1,0,0,5.513339000000087,call2,0.02175925925925926,0.09583333333333334,1,0,0,6.406085399999938,colour2,0.4287037037037037,-0.11666666666666667,1,0,0,7.018669999999929,number3,False,False,True,1,1,2019_Nov_07_1551,MA_Theta_Exp,3.0.7,60.171331850314445,
video/Experiment/zh_sp01_Ad_Ge_2_NVocInAudio_GlobalThetaInVideo.avi,vocoded,plusVideo,sp01,Ad,Ge,2,3,1,flow/blocks/NVocInAudio_GlobalThetaInVideo_A.csv,,,,,,,,,0,3,3,3,0,19,19,1,,,,,,,,,-0.4115740740740741,0.275,1,0,0,5.500622399999884,call1,-0.03796296296296296,0.13055555555555556,1,0,0,6.099885600000107,colour2,0.39814814814814814,0.12083333333333333,1,0,0,7.16737860000012,number2,False,False,True,1,1,2019_Nov_07_1551,MA_Theta_Exp,3.0.7,60.171331850314445,
video/Experiment/zh_sp01_Dr_Ge_1_NVocInAudio_GlobalThetaInVideo.avi,vocoded,plusVideo,sp01,Dr,Ge,1,3,1,flow/blocks/NVocInAudio_GlobalThetaInVideo_A.csv,,,,,,,,,0,3,3,3,0,20,20,16,,,,,,,,,-0.3990740740740741,0.14027777777777778,1,0,0,4.900262699999985,call2,-0.046296296296296294,0.3277777777777778,1,0,0,5.450189199999841,colour1,0.41203703703703703,0.3375,1,0,0,5.966495099999975,number1,False,False,True,1,1,2019_Nov_07_1551,MA_Theta_Exp,3.0.7,60.171331850314445,
video/Experiment/zh_sp07_Dr_We_1_NVocInAudio_GlobalThetaInVideo.avi,vocoded,plusVideo,sp07,Dr,We,1,3,1,flow/blocks/NVocInAudio_GlobalThetaInVideo_A.csv,,,,,,,,,0,3,3,3,0,21,21,28,,,,,,,,,-0.3921296296296296,0.12222222222222222,1,0,0,4.596765799999957,call2,-0.031018518518518518,-0.2986111111111111,1,0,0,5.175423200000296,colour4,0.4064814814814815,0.2916666666666667,1,0,0,5.825392400000055,number1,False,False,True,1,1,2019_Nov_07_1551,MA_Theta_Exp,3.0.7,60.171331850314445,
video/Experiment/zh_sp01_Dr_Ro_3_NVocInAudio_GlobalThetaInVideo.avi,vocoded,plusVideo,sp01,Dr,Ro,3,3,1,flow/blocks/NVocInAudio_GlobalThetaInVideo_A.csv,,,,,,,,,0,3,3,3,0,22,22,26,,,,,,,,,-0.43657407407407406,0.09722222222222222,1,0,0,5.030685000000176,call2,-0.010185185185185186,-0.12083333333333333,1,0,0,6.241634299999987,colour3,0.4550925925925926,-0.09305555555555556,1,0,0,6.691700900000342,number3,False,False,True,1,1,2019_Nov_07_1551,MA_Theta_Exp,3.0.7,60.171331850314445,
video/Experiment/zh_sp01_Ad_We_4_NVocInAudio_GlobalThetaInVideo.avi,vocoded,plusVideo,sp01,Ad,We,4,3,1,flow/blocks/NVocInAudio_GlobalThetaInVideo_A.csv,,,,,,,,,0,3,3,3,0,23,23,15,,,,,,,,,-0.4115740740740741,0.2861111111111111,1,0,0,5.014317199999823,call1,-0.011574074074074073,-0.37222222222222223,1,0,0,5.641913299999942,colour4,0.43842592592592594,-0.35694444444444445,1,0,0,6.041743000000224,number4,False,False,True,1,1,2019_Nov_07_1551,MA_Theta_Exp,3.0.7,60.171331850314445,
video/Experiment/zh_sp07_Dr_Ro_1_NVocInAudio_GlobalThetaInVideo.avi,vocoded,plusVideo,sp07,Dr,Ro,1,3,1,flow/blocks/NVocInAudio_GlobalThetaInVideo_A.csv,,,,,,,,,0,3,3,3,0,24,24,24,,,,,,,,,-0.362962962962963,0.05694444444444444,1,0,0,4.495726300000115,call2,0.012037037037037037,-0.1,1,0,0,5.080910000000131,colour3,0.39537037037037037,0.30416666666666664,1,0,0,5.645656400000007,number1,False,False,True,1,1,2019_Nov_07_1551,MA_Theta_Exp,3.0.7,60.171331850314445,
video/Experiment/zh_sp07_Ad_Gr_1_NVocInAudio_GlobalThetaInVideo.avi,vocoded,plusVideo,sp07,Ad,Gr,1,3,1,flow/blocks/NVocInAudio_GlobalThetaInVideo_A.csv,,,,,,,,,0,3,3,3,0,25,25,4,,,,,,,,,-0.3560185185185185,0.30416666666666664,1,0,0,4.398125400000026,call1,0.023148148148148147,0.0625,1,0,0,4.850131199999851,colour2,0.37453703703703706,0.3,1,0,0,5.494516199999907,number1,False,False,True,1,1,2019_Nov_07_1551,MA_Theta_Exp,3.0.7,60.171331850314445,
video/Experiment/zh_sp01_Dr_We_2_NVocInAudio_GlobalThetaInVideo.avi,vocoded,plusVideo,sp01,Dr,We,2,3,1,flow/blocks/NVocInAudio_GlobalThetaInVideo_A.csv,,,,,,,,,0,3,3,3,0,26,26,29,,,,,,,,,-0.38935185185185184,0.07916666666666666,1,0,0,5.045368099999905,call2,-0.033796296296296297,-0.3347222222222222,1,0,0,5.630805699999655,colour4,0.4412037037037037,0.06666666666666667,1,0,0,6.1879414,number2,False,False,True,1,1,2019_Nov_07_1551,MA_Theta_Exp,3.0.7,60.171331850314445,
video/Experiment/zh_sp01_Dr_Ro_2_NVocInAudio_GlobalThetaInVideo.avi,vocoded,plusVideo,sp01,Dr,Ro,2,3,1,flow/blocks/NVocInAudio_GlobalThetaInVideo_A.csv,,,,,,,,,0,3,3,3,0,27,27,25,,,,,,,,,-0.4101851851851852,0.09861111111111111,1,0,0,5.111073000000033,call2,-0.05462962962962963,-0.0875,1,0,0,5.577811499999825,colour3,0.3175925925925926,0.13194444444444445,1,0,0,5.9983916999999565,number2,False,False,True,1,1,2019_Nov_07_1551,MA_Theta_Exp,3.0.7,60.171331850314445,
video/Experiment/zh_sp07_Ad_Gr_3_NVocInAudio_GlobalThetaInVideo.avi,vocoded,plusVideo,sp07,Ad,Gr,3,3,1,flow/blocks/NVocInAudio_GlobalThetaInVideo_A.csv,,,,,,,,,0,3,3,3,0,28,28,6,,,,,,,,,-0.3421296296296296,0.3486111111111111,1,0,0,4.610882899999979,call1,-0.02824074074074074,0.13333333333333333,1,0,0,5.050649799999974,colour2,0.3912037037037037,-0.09444444444444444,1,0,0,5.509531600000173,number3,False,False,True,1,1,2019_Nov_07_1551,MA_Theta_Exp,3.0.7,60.171331850314445,
video/Experiment/zh_sp07_Dr_Ge_4_NVocInAudio_GlobalThetaInVideo.avi,vocoded,plusVideo,sp07,Dr,Ge,4,3,1,flow/blocks/NVocInAudio_GlobalThetaInVideo_A.csv,,,,,,,,,0,3,3,3,0,29,29,19,,,,,,,,,-0.3837962962962963,0.10416666666666667,1,0,0,4.6196021999999175,call2,-0.032407407407407406,0.275,1,0,0,5.13408550000031,colour1,0.37175925925925923,-0.30277777777777776,1,0,0,5.8190811999998004,number4,False,False,True,1,1,2019_Nov_07_1551,MA_Theta_Exp,3.0.7,60.171331850314445,
video/Experiment/zh_sp01_Ad_Gr_4_NVocInAudio_GlobalThetaInVideo.avi,vocoded,plusVideo,sp01,Ad,Gr,4,3,1,flow/blocks/NVocInAudio_GlobalThetaInVideo_A.csv,,,,,,,,,0,3,3,3,0,30,30,7,,,,,,,,,-0.36574074074074076,0.3347222222222222,1,0,0,5.011351300000115,call1,0.016203703703703703,0.06388888888888888,1,0,0,5.411407899999631,colour2,0.41898148148148145,-0.4083333333333333,1,0,0,5.947444899999937,number4,False,False,True,1,1,2019_Nov_07_1551,MA_Theta_Exp,3.0.7,60.171331850314445,
video/Experiment/zh_sp07_Dr_Ro_4_NVocInAudio_GlobalThetaInVideo.avi,vocoded,plusVideo,sp07,Dr,Ro,4,3,1,flow/blocks/NVocInAudio_GlobalThetaInVideo_A.csv,,,,,,,,,0,3,3,3,0,31,31,27,,,,,,,,,-0.4310185185185185,0.11805555555555555,1,0,0,4.424490800000058,call2,0.03148148148148148,-0.03194444444444444,1,0,0,4.962171300000136,colour3,0.38564814814814813,-0.3138888888888889,1,0,0,5.4577618000002985,number4,False,False,True,1,1,2019_Nov_07_1551,MA_Theta_Exp,3.0.7,60.171331850314445,
video/Experiment/zh_sp01_Dr_We_1_NoThetaInAudio_NoVideo.avi,noTheta,noVideo,sp01,Dr,We,1,4,4,flow/blocks/NoThetaInAudio_NoVideo_A.csv,,,,,,,,,0,4,4,4,0,0,0,28,,,,,,,,,-0.42268518518518516,0.10277777777777777,1,0,0,5.097988200000145,call2,0.000925925925925926,-0.26666666666666666,1,0,0,6.081395100000009,colour4,0.3578703703703704,0.30694444444444446,1,0,0,6.7304926000001615,number1,False,False,True,1,1,2019_Nov_07_1551,MA_Theta_Exp,3.0.7,60.171331850314445,
video/Experiment/zh_sp07_Dr_Gr_2_NoThetaInAudio_NoVideo.avi,noTheta,noVideo,sp07,Dr,Gr,2,4,4,flow/blocks/NoThetaInAudio_NoVideo_A.csv,,,,,,,,,0,4,4,4,0,1,1,21,,,,,,,,,-0.3907407407407407,0.09861111111111111,1,0,0,4.642541900000197,call2,0.03425925925925926,0.12083333333333333,1,0,0,5.074760499999684,colour2,0.4425925925925926,0.09583333333333334,1,0,0,5.428386800000226,number2,False,False,True,1,1,2019_Nov_07_1551,MA_Theta_Exp,3.0.7,60.171331850314445,
video/Experiment/zh_sp07_Ad_Ro_1_NoThetaInAudio_NoVideo.avi,noTheta,noVideo,sp07,Ad,Ro,1,4,4,flow/blocks/NoThetaInAudio_NoVideo_A.csv,,,,,,,,,0,4,4,4,0,2,2,8,,,,,,,,,-0.37546296296296294,0.32222222222222224,1,0,0,4.159484999999677,call1,0.006481481481481481,-0.13055555555555556,1,0,0,4.709796099999949,colour3,0.4050925925925926,0.31666666666666665,1,0,0,5.231836299999941,number1,False,False,True,1,1,2019_Nov_07_1551,MA_Theta_Exp,3.0.7,60.171331850314445,
video/Experiment/zh_sp07_Ad_Ro_2_NoThetaInAudio_NoVideo.avi,noTheta,noVideo,sp07,Ad,Ro,2,4,4,flow/blocks/NoThetaInAudio_NoVideo_A.csv,,,,,,,,,0,4,4,4,0,3,3,9,,,,,,,,,-0.40185185185185185,0.3111111111111111,1,0,0,4.313188900000114,call1,-0.03518518518518519,-0.044444444444444446,1,0,0,4.722848300000351,colour3,0.40370370370370373,0.15138888888888888,1,0,0,5.168268299999909,number2,False,False,True,1,1,2019_Nov_07_1551,MA_Theta_Exp,3.0.7,60.171331850314445,
video/Experiment/zh_sp01_Dr_Ro_4_NoThetaInAudio_NoVideo.avi,noTheta,noVideo,sp01,Dr,Ro,4,4,4,flow/blocks/NoThetaInAudio_NoVideo_A.csv,,,,,,,,,0,4,4,4,0,4,4,27,,,,,,,,,-0.43657407407407406,0.14722222222222223,1,0,0,4.855381200000011,call2,-0.0824074074074074,-0.0625,1,0,0,5.222085100000186,colour3,0.3912037037037037,-0.31805555555555554,1,0,0,5.723406600000089,number4,False,False,True,1,1,2019_Nov_07_1551,MA_Theta_Exp,3.0.7,60.171331850314445,
video/Experiment/zh_sp07_Dr_Gr_1_NoThetaInAudio_NoVideo.avi,noTheta,noVideo,sp07,Dr,Gr,1,4,4,flow/blocks/NoThetaInAudio_NoVideo_A.csv,,,,,,,,,0,4,4,4,0,5,5,20,,,,,,,,,-0.4449074074074074,0.10138888888888889,1,0,0,4.337775999999849,call2,-0.010185185185185186,0.08888888888888889,1,0,0,4.706527499999993,colour2,0.3537037037037037,0.25555555555555554,1,0,0,5.182992999999897,number1,False,False,True,1,1,2019_Nov_07_1551,MA_Theta_Exp,3.0.7,60.171331850314445,
video/Experiment/zh_sp01_Dr_Ro_3_NoThetaInAudio_NoVideo.avi,noTheta,noVideo,sp01,Dr,Ro,3,4,4,flow/blocks/NoThetaInAudio_NoVideo_A.csv,,,,,,,,,0,4,4,4,0,6,6,26,,,,,,,,,-0.38935185185185184,0.09444444444444444,1,0,0,4.857735199999752,call2,-0.05740740740740741,-0.09861111111111111,1,0,0,5.258993500000088,colour3,0.4398148148148148,-0.07361111111111111,1,0,0,5.674527699999999,number3,False,False,True,1,1,2019_Nov_07_1551,MA_Theta_Exp,3.0.7,60.171331850314445,
video/Experiment/zh_sp07_Dr_Ge_1_NoThetaInAudio_NoVideo.avi,noTheta,noVideo,sp07,Dr,Ge,1,4,4,flow/blocks/NoThetaInAudio_NoVideo_A.csv,,,,,,,,,0,4,4,4,0,7,7,16,,,,,,,,,-0.3712962962962963,0.325,1,0,0,4.249909399999979,call1,-0.05740740740740741,0.32222222222222224,1,0,0,4.616062099999908,colour1,0.3662037037037037,0.32916666666666666,1,0,0,5.015809900000022,number1,False,False,True,1,1,2019_Nov_07_1551,MA_Theta_Exp,3.0.7,60.171331850314445,
video/Experiment/zh_sp07_Ad_Ge_4_NoThetaInAudio_NoVideo.avi,noTheta,noVideo,sp07,Ad,Ge,4,4,4,flow/blocks/NoThetaInAudio_NoVideo_A.csv,,,,,,,,,0,4,4,4,0,8,8,3,,,,,,,,,-0.3560185185185185,0.32222222222222224,1,0,0,4.606415199999901,call1,-0.021296296296296296,0.31666666666666665,1,0,0,5.074163899999803,colour1,0.3925925925925926,-0.24305555555555555,1,0,0,5.556996400000116,number4,False,False,True,1,1,2019_Nov_07_1551,MA_Theta_Exp,3.0.7,60.171331850314445,
video/Experiment/zh_sp01_Ad_We_2_NoThetaInAudio_NoVideo.avi,noTheta,noVideo,sp01,Ad,We,2,4,4,flow/blocks/NoThetaInAudio_NoVideo_A.csv,,,,,,,,,0,4,4,4,0,9,9,13,,,,,,,,,-0.42962962962962964,0.30416666666666664,1,0,0,4.90516770000022,call1,-0.014351851851851852,-0.35,1,0,0,5.524516400000266,colour4,0.40370370370370373,0.07222222222222222,1,0,0,6.0510873999996875,number2,False,False,True,1,1,2019_Nov_07_1551,MA_Theta_Exp,3.0.7,60.171331850314445,
video/Experiment/zh_sp07_Dr_Ge_4_NoThetaInAudio_NoVideo.avi,noTheta,noVideo,sp07,Dr,Ge,4,4,4,flow/blocks/NoThetaInAudio_NoVideo_A.csv,,,,,,,,,0,4,4,4,0,10,10,19,,,,,,,,,-0.38935185185185184,0.2986111111111111,1,0,0,4.717249199999969,call1,-0.018518518518518517,0.2763888888888889,1,0,0,5.068661199999951,colour1,0.3800925925925926,-0.29444444444444445,1,0,0,5.7335401000000275,number4,False,False,True,1,1,2019_Nov_07_1551,MA_Theta_Exp,3.0.7,60.171331850314445,
video/Experiment/zh_sp01_Dr_We_2_NoThetaInAudio_NoVideo.avi,noTheta,noVideo,sp01,Dr,We,2,4,4,flow/blocks/NoThetaInAudio_NoVideo_A.csv,,,,,,,,,0,4,4,4,0,11,11,29,,,,,,,,,-0.350462962962963,0.14027777777777778,1,0,0,5.218722000000071,call2,0.0023148148148148147,-0.3277777777777778,1,0,0,6.485027599999739,colour4,0.41064814814814815,0.1361111111111111,1,0,0,7.1410743000001276,number2,False,False,True,1,1,2019_Nov_07_1551,MA_Theta_Exp,3.0.7,60.171331850314445,
video/Experiment/zh_sp01_Ad_We_4_NoThetaInAudio_NoVideo.avi,noTheta,noVideo,sp01,Ad,We,4,4,4,flow/blocks/NoThetaInAudio_NoVideo_A.csv,,,,,,,,,0,4,4,4,0,12,12,15,,,,,,,,,-0.40324074074074073,0.3263888888888889,1,0,0,4.871064599999954,call1,0.005092592592592593,-0.3,1,0,0,5.372567599999911,colour4,0.45231481481481484,-0.28888888888888886,1,0,0,5.874014500000158,number4,False,False,True,1,1,2019_Nov_07_1551,MA_Theta_Exp,3.0.7,60.171331850314445,
video/Experiment/zh_sp01_Dr_Gr_4_NoThetaInAudio_NoVideo.avi,noTheta,noVideo,sp01,Dr,Gr,4,4,4,flow/blocks/NoThetaInAudio_NoVideo_A.csv,,,,,,,,,0,4,4,4,0,13,13,23,,,,,,,,,-0.4074074074074074,0.1,1,0,0,5.253677199999856,call2,0.037037037037037035,0.12777777777777777,1,0,0,5.789469300000292,colour2,0.3925925925925926,-0.2847222222222222,1,0,0,6.302979300000061,number4,False,False,True,1,1,2019_Nov_07_1551,MA_Theta_Exp,3.0.7,60.171331850314445,
video/Experiment/zh_sp01_Ad_We_3_NoThetaInAudio_NoVideo.avi,noTheta,noVideo,sp01,Ad,We,3,4,4,flow/blocks/NoThetaInAudio_NoVideo_A.csv,,,,,,,,,0,4,4,4,0,14,14,14,,,,,,,,,-0.3699074074074074,0.35694444444444445,1,0,0,5.024906099999953,call1,0.03564814814814815,-0.31527777777777777,1,0,0,5.657828800000061,colour4,0.42314814814814816,-0.07222222222222222,1,0,0,6.109002700000019,number3,False,False,True,1,1,2019_Nov_07_1551,MA_Theta_Exp,3.0.7,60.171331850314445,
video/Experiment/zh_sp01_Ad_Ro_4_NoThetaInAudio_NoVideo.avi,noTheta,noVideo,sp01,Ad,Ro,4,4,4,flow/blocks/NoThetaInAudio_NoVideo_A.csv,,,,,,,,,0,4,4,4,0,15,15,11,,,,,,,,,-0.425462962962963,0.3125,1,0,0,5.489254300000084,call1,-0.02546296296296296,-0.125,1,0,0,6.105693099999826,colour3,0.3814814814814815,-0.3611111111111111,1,0,0,6.656489299999976,number4,False,False,True,1,1,2019_Nov_07_1551,MA_Theta_Exp,3.0.7,60.171331850314445,
video/Experiment/zh_sp01_Ad_We_1_NoThetaInAudio_NoVideo.avi,noTheta,noVideo,sp01,Ad,We,1,4,4,flow/blocks/NoThetaInAudio_NoVideo_A.csv,,,,,,,,,0,4,4,4,0,16,16,12,,,,,,,,,-0.3726851851851852,0.325,1,0,0,5.27997890000006,call1,-0.001851851851851852,-0.3138888888888889,1,0,0,5.862365899999986,colour4,0.41064814814814815,0.29305555555555557,1,0,0,6.445255800000268,number1,False,False,True,1,1,2019_Nov_07_1551,MA_Theta_Exp,3.0.7,60.171331850314445,
video/Experiment/zh_sp07_Ad_Ge_2_NoThetaInAudio_NoVideo.avi,noTheta,noVideo,sp07,Ad,Ge,2,4,4,flow/blocks/NoThetaInAudio_NoVideo_A.csv,,,,,,,,,0,4,4,4,0,17,17,1,,,,,,,,,-0.39490740740740743,0.33055555555555555,1,0,0,4.346897900000386,call1,0.03425925925925926,0.31805555555555554,1,0,0,4.730172800000219,colour1,0.4050925925925926,0.06805555555555555,1,0,0,5.1154725999999755,number2,False,False,True,1,1,2019_Nov_07_1551,MA_Theta_Exp,3.0.7,60.171331850314445,
video/Experiment/zh_sp07_Ad_Ge_1_NoThetaInAudio_NoVideo.avi,noTheta,noVideo,sp07,Ad,Ge,1,4,4,flow/blocks/NoThetaInAudio_NoVideo_A.csv,,,,,,,,,0,4,4,4,0,18,18,0,,,,,,,,,-0.36157407407407405,0.30277777777777776,1,0,0,4.309396399999969,call1,0.016203703703703703,0.2916666666666667,1,0,0,4.675549500000216,colour1,0.38287037037037036,0.3055555555555556,1,0,0,5.025616100000207,number1,False,False,True,1,1,2019_Nov_07_1551,MA_Theta_Exp,3.0.7,60.171331850314445,
video/Experiment/zh_sp01_Ad_Ro_3_NoThetaInAudio_NoVideo.avi,noTheta,noVideo,sp01,Ad,Ro,3,4,4,flow/blocks/NoThetaInAudio_NoVideo_A.csv,,,,,,,,,0,4,4,4,0,19,19,10,,,,,,,,,-0.41435185185185186,0.27361111111111114,1,0,0,4.865874399999939,call1,-0.049074074074074076,-0.0125,1,0,0,5.364612900000338,colour3,0.46620370370370373,-0.09444444444444444,1,0,0,6.482225000000199,number3,False,False,True,1,1,2019_Nov_07_1551,MA_Theta_Exp,3.0.7,60.171331850314445,
video/Experiment/zh_sp07_Ad_Gr_1_NoThetaInAudio_NoVideo.avi,noTheta,noVideo,sp07,Ad,Gr,1,4,4,flow/blocks/NoThetaInAudio_NoVideo_A.csv,,,,,,,,,0,4,4,4,0,20,20,4,,,,,,,,,-0.3699074074074074,0.30277777777777776,1,0,0,4.492530500000157,call1,-0.026851851851851852,0.07083333333333333,1,0,0,4.976080599999932,colour2,0.38425925925925924,0.3138888888888889,1,0,0,5.444894500000373,number1,False,False,True,1,1,2019_Nov_07_1551,MA_Theta_Exp,3.0.7,60.171331850314445,
video/Experiment/zh_sp07_Ad_Gr_2_NoThetaInAudio_NoVideo.avi,noTheta,noVideo,sp07,Ad,Gr,2,4,4,flow/blocks/NoThetaInAudio_NoVideo_A.csv,,,,,,,,,0,4,4,4,0,21,21,5,,,,,,,,,-0.38101851851851853,0.3138888888888889,1,0,0,4.4326083000000835,call1,-0.033796296296296297,0.075,1,0,0,4.872118599999794,colour2,0.43425925925925923,0.10555555555555556,1,0,0,5.313152100000025,number2,False,False,True,1,1,2019_Nov_07_1551,MA_Theta_Exp,3.0.7,60.171331850314445,
video/Experiment/zh_sp07_Dr_Ro_1_NoThetaInAudio_NoVideo.avi,noTheta,noVideo,sp07,Dr,Ro,1,4,4,flow/blocks/NoThetaInAudio_NoVideo_A.csv,,,,,,,,,0,4,4,4,0,22,22,24,,,,,,,,,-0.412962962962963,0.059722222222222225,1,0,0,4.274503399999958,call2,-0.040740740740740744,-0.10416666666666667,1,0,0,4.677714000000378,colour3,0.4273148148148148,0.30972222222222223,1,0,0,5.155498499999794,number1,False,False,True,1,1,2019_Nov_07_1551,MA_Theta_Exp,3.0.7,60.171331850314445,
video/Experiment/zh_sp01_Ad_Ge_3_NoThetaInAudio_NoVideo.avi,noTheta,noVideo,sp01,Ad,Ge,3,4,4,flow/blocks/NoThetaInAudio_NoVideo_A.csv,,,,,,,,,0,4,4,4,0,23,23,2,,,,,,,,,-0.4185185185185185,0.30833333333333335,1,0,0,4.9287773000000925,call1,-0.03935185185185185,0.2625,1,0,0,5.3118131999999605,colour1,0.3787037037037037,-0.1111111111111111,1,0,0,5.830515599999671,number3,False,False,True,1,1,2019_Nov_07_1551,MA_Theta_Exp,3.0.7,60.171331850314445,
video/Experiment/zh_sp07_Dr_Gr_3_NoThetaInAudio_NoVideo.avi,noTheta,noVideo,sp07,Dr,Gr,3,4,4,flow/blocks/NoThetaInAudio_NoVideo_A.csv,,,,,,,,,0,4,4,4,0,24,24,22,,,,,,,,,-0.3574074074074074,0.07083333333333333,1,0,0,4.493283899999824,call2,0.00787037037037037,0.09861111111111111,1,0,0,4.86008240000001,colour2,0.44675925925925924,-0.175,1,0,0,5.309884799999963,number3,False,False,True,1,1,2019_Nov_07_1551,MA_Theta_Exp,3.0.7,60.171331850314445,
video/Experiment/zh_sp01_Dr_Ge_3_NoThetaInAudio_NoVideo.avi,noTheta,noVideo,sp01,Dr,Ge,3,4,4,flow/blocks/NoThetaInAudio_NoVideo_A.csv,,,,,,,,,0,4,4,4,0,25,25,18,,,,,,,,,-0.38796296296296295,0.09027777777777778,1,0,0,5.044296000000031,call2,0.009259259259259259,0.2652777777777778,1,0,0,5.51080200000024,colour1,0.4398148148148148,-0.15694444444444444,1,0,0,6.294836699999905,number3,False,False,True,1,1,2019_Nov_07_1551,MA_Theta_Exp,3.0.7,60.171331850314445,
video/Experiment/zh_sp07_Dr_We_4_NoThetaInAudio_NoVideo.avi,noTheta,noVideo,sp07,Dr,We,4,4,4,flow/blocks/NoThetaInAudio_NoVideo_A.csv,,,,,,,,,0,4,4,4,0,26,26,31,,,,,,,,,-0.37546296296296294,0.08472222222222223,1,0,0,4.38509490000024,call2,0.03148148148148148,-0.32916666666666666,1,0,0,5.8831663000000844,colour4,0.449537037037037,-0.3263888888888889,1,0,0,7.082489500000065,number4,False,False,True,1,1,2019_Nov_07_1551,MA_Theta_Exp,3.0.7,60.171331850314445,
video/Experiment/zh_sp07_Ad_Gr_4_NoThetaInAudio_NoVideo.avi,noTheta,noVideo,sp07,Ad,Gr,4,4,4,flow/blocks/NoThetaInAudio_NoVideo_A.csv,,,,,,,,,0,4,4,4,0,27,27,7,,,,,,,,,-0.3699074074074074,0.2777777777777778,1,0,0,4.439566199999717,call1,-0.001851851851851852,0.06666666666666667,1,0,0,4.823040299999775,colour2,0.45231481481481484,-0.34305555555555556,1,0,0,5.522506599999815,number4,False,False,True,1,1,2019_Nov_07_1551,MA_Theta_Exp,3.0.7,60.171331850314445,
video/Experiment/zh_sp01_Dr_We_3_NoThetaInAudio_NoVideo.avi,noTheta,noVideo,sp01,Dr,We,3,4,4,flow/blocks/NoThetaInAudio_NoVideo_A.csv,,,,,,,,,0,4,4,4,0,28,28,30,,,,,,,,,-0.3837962962962963,0.08472222222222223,1,0,0,5.543131799999628,call2,0.000925925925925926,-0.2875,1,0,0,6.0802936000000045,colour4,0.4398148148148148,-0.11388888888888889,1,0,0,6.696544200000062,number3,False,False,True,1,1,2019_Nov_07_1551,MA_Theta_Exp,3.0.7,60.171331850314445,
video/Experiment/zh_sp01_Dr_Ro_2_NoThetaInAudio_NoVideo.avi,noTheta,noVideo,sp01,Dr,Ro,2,4,4,flow/blocks/NoThetaInAudio_NoVideo_A.csv,,,,,,,,,0,4,4,4,0,29,29,25,,,,,,,,,-0.3921296296296296,0.10972222222222222,1,0,0,5.078558299999713,call2,-0.007407407407407408,-0.12222222222222222,1,0,0,6.085396500000115,colour3,0.4537037037037037,0.05,1,0,0,6.531803700000182,number2,False,False,True,1,1,2019_Nov_07_1551,MA_Theta_Exp,3.0.7,60.171331850314445,
video/Experiment/zh_sp07_Dr_Ge_2_NoThetaInAudio_NoVideo.avi,noTheta,noVideo,sp07,Dr,Ge,2,4,4,flow/blocks/NoThetaInAudio_NoVideo_A.csv,,,,,,,,,0,4,4,4,0,30,30,17,,,,,,,,,-0.4199074074074074,0.11666666666666667,1,0,0,4.386297099999865,call2,-0.02824074074074074,0.2611111111111111,1,0,0,4.819977799999833,colour1,0.37453703703703706,0.13055555555555556,1,0,0,5.242728700000043,number2,False,False,True,1,1,2019_Nov_07_1551,MA_Theta_Exp,3.0.7,60.171331850314445,
video/Experiment/zh_sp01_Ad_Gr_3_NoThetaInAudio_NoVideo.avi,noTheta,noVideo,sp01,Ad,Gr,3,4,4,flow/blocks/NoThetaInAudio_NoVideo_A.csv,,,,,,,,,0,4,4,4,0,31,31,6,,,,,,,,,-0.3726851851851852,0.28888888888888886,1,0,0,5.073721100000057,call1,0.03148148148148148,-0.14305555555555555,1,0,0,7.439528200000041,colour3,0.49537037037037035,-0.16111111111111112,1,0,0,7.9732647000000725,number3,False,False,True,1,1,2019_Nov_07_1551,MA_Theta_Exp,3.0.7,60.171331850314445,
video/Experiment/zh_sp07_Un_We_2_NVocInAudio_GlobalThetaInVideo.avi,vocoded,plusVideo,sp07,Un,We,2,0,1,flow/blocks/NVocInAudio_GlobalThetaInVideo_B.csv,,,,,,,,,,,,,,,,,0,0,0,0,0,0,0,29,-0.4115740740740741,-0.2916666666666667,1,0,0,4.977366400000392,call4,0.02175925925925926,-0.3263888888888889,1,0,0,5.360818200000267,colour4,0.32175925925925924,0.020833333333333332,1,0,0,5.838626200000363,number2,False,False,True,1,1,2019_Nov_07_1551,MA_Theta_Exp,3.0.7,60.171331850314445,
video/Experiment/zh_sp07_Un_Gr_2_NVocInAudio_GlobalThetaInVideo.avi,vocoded,plusVideo,sp07,Un,Gr,2,0,1,flow/blocks/NVocInAudio_GlobalThetaInVideo_B.csv,,,,,,,,,,,,,,,,,0,0,0,0,0,1,1,21,-0.41712962962962963,-0.3013888888888889,1,0,0,4.575529799999913,call4,0.05092592592592592,0.1,1,0,0,5.941727399999763,colour2,0.4787037037037037,0.10972222222222222,1,0,0,6.35913279999977,number2,False,False,True,1,1,2019_Nov_07_1551,MA_Theta_Exp,3.0.7,60.171331850314445,
video/Experiment/zh_sp01_Ti_Ro_4_NVocInAudio_GlobalThetaInVideo.avi,vocoded,plusVideo,sp01,Ti,Ro,4,0,1,flow/blocks/NVocInAudio_GlobalThetaInVideo_B.csv,,,,,,,,,,,,,,,,,0,0,0,0,0,2,2,11,-0.45601851851851855,-0.18472222222222223,1,0,0,5.125594199999796,call3,-0.05185185185185185,-0.08472222222222223,1,0,0,5.609102800000073,colour3,0.38425925925925924,-0.3402777777777778,1,0,0,6.109143099999983,number4,False,False,True,1,1,2019_Nov_07_1551,MA_Theta_Exp,3.0.7,60.171331850314445,
video/Experiment/zh_sp07_Ti_Gr_4_NVocInAudio_GlobalThetaInVideo.avi,vocoded,plusVideo,sp07,Ti,Gr,4,0,1,flow/blocks/NVocInAudio_GlobalThetaInVideo_B.csv,,,,,,,,,,,,,,,,,0,0,0,0,0,3,3,7,-0.4615740740740741,-0.11388888888888889,1,0,0,4.85987329999989,call3,0.017592592592592594,0.05694444444444444,1,0,0,5.410053099999914,colour2,0.41759259259259257,-0.31666666666666665,1,0,0,5.876151299999947,number4,False,False,True,1,1,2019_Nov_07_1551,MA_Theta_Exp,3.0.7,60.171331850314445,
video/Experiment/zh_sp01_Un_We_4_NVocInAudio_GlobalThetaInVideo.avi,vocoded,plusVideo,sp01,Un,We,4,0,1,flow/blocks/NVocInAudio_GlobalThetaInVideo_B.csv,,,,,,,,,,,,,,,,,0,0,0,0,0,4,4,31,-0.4101851851851852,-0.3125,1,0,0,5.10570800000005,call4,-0.04490740740740741,-0.3458333333333333,1,0,0,5.538187499999822,colour4,0.39814814814814814,-0.29444444444444445,1,0,0,6.438621899999816,number4,False,False,True,1,1,2019_Nov_07_1551,MA_Theta_Exp,3.0.7,60.171331850314445,
video/Experiment/zh_sp01_Un_Ge_3_NVocInAudio_GlobalThetaInVideo.avi,vocoded,plusVideo,sp01,Un,Ge,3,0,1,flow/blocks/NVocInAudio_GlobalThetaInVideo_B.csv,,,,,,,,,,,,,,,,,0,0,0,0,0,5,5,18,-0.38657407407407407,-0.3125,1,0,0,4.91752839999981,call4,-0.008796296296296297,0.35694444444444445,1,0,0,5.601159800000005,colour1,0.38564814814814813,-0.07777777777777778,1,0,0,6.234715600000072,number3,False,False,True,1,1,2019_Nov_07_1551,MA_Theta_Exp,3.0.7,60.171331850314445,
video/Experiment/zh_sp01_Un_We_3_NVocInAudio_GlobalThetaInVideo.avi,vocoded,plusVideo,sp01,Un,We,3,0,1,flow/blocks/NVocInAudio_GlobalThetaInVideo_B.csv,,,,,,,,,,,,,,,,,0,0,0,0,0,6,6,30,-0.3851851851851852,-0.29583333333333334,1,0,0,4.919881400000122,call4,0.024537037037037038,-0.2972222222222222,1,0,0,5.386767599999985,colour4,0.42314814814814816,-0.14027777777777778,1,0,0,6.320193600000039,number3,False,False,True,1,1,2019_Nov_07_1551,MA_Theta_Exp,3.0.7,60.171331850314445,
video/Experiment/zh_sp07_Ti_Ge_3_NVocInAudio_GlobalThetaInVideo.avi,vocoded,plusVideo,sp07,Ti,Ge,3,0,1,flow/blocks/NVocInAudio_GlobalThetaInVideo_B.csv,,,,,,,,,,,,,,,,,0,0,0,0,0,7,7,2,-0.3726851851851852,-0.08611111111111111,1,0,0,4.946438299999954,call3,0.03564814814814815,0.31805555555555554,1,0,0,5.565093100000013,colour1,0.41898148148148145,-0.06944444444444445,1,0,0,6.180237000000034,number3,False,False,True,1,1,2019_Nov_07_1551,MA_Theta_Exp,3.0.7,60.171331850314445,
video/Experiment/zh_sp07_Un_Ge_1_NVocInAudio_GlobalThetaInVideo.avi,vocoded,plusVideo,sp07,Un,Ge,1,0,1,flow/blocks/NVocInAudio_GlobalThetaInVideo_B.csv,,,,,,,,,,,,,,,,,0,0,0,0,0,8,8,16,-0.37824074074074077,-0.30972222222222223,1,0,0,4.429987299999993,call4,0.04814814814814815,0.34444444444444444,1,0,0,5.330507399999988,colour1,0.43425925925925923,0.30416666666666664,1,0,0,5.996068099999775,number1,False,False,True,1,1,2019_Nov_07_1551,MA_Theta_Exp,3.0.7,60.171331850314445,
video/Experiment/zh_sp07_Un_Gr_3_NVocInAudio_GlobalThetaInVideo.avi,vocoded,plusVideo,sp07,Un,Gr,3,0,1,flow/blocks/NVocInAudio_GlobalThetaInVideo_B.csv,,,,,,,,,,,,,,,,,0,0,0,0,0,9,9,22,-0.38935185185185184,-0.35138888888888886,1,0,0,4.324760499999684,call4,-0.004629629629629629,0.10555555555555556,1,0,0,4.926505300000372,colour2,0.45231481481481484,-0.09861111111111111,1,0,0,5.447036400000343,number3,False,False,True,1,1,2019_Nov_07_1551,MA_Theta_Exp,3.0.7,60.171331850314445,
video/Experiment/zh_sp01_Un_We_1_NVocInAudio_GlobalThetaInVideo.avi,vocoded,plusVideo,sp01,Un,We,1,0,1,flow/blocks/NVocInAudio_GlobalThetaInVideo_B.csv,,,,,,,,,,,,,,,,,0,0,0,0,0,10,10,28,-0.42407407407407405,-0.30416666666666664,1,0,0,5.092498499999692,call4,-0.02546296296296296,-0.30972222222222223,1,0,0,5.509253499999886,colour4,0.4203703703703704,0.2791666666666667,1,0,0,6.142506499999854,number1,False,False,True,1,1,2019_Nov_07_1551,MA_Theta_Exp,3.0.7,60.171331850314445,
video/Experiment/zh_sp07_Ti_Ge_4_NVocInAudio_GlobalThetaInVideo.avi,vocoded,plusVideo,sp07,Ti,Ge,4,0,1,flow/blocks/NVocInAudio_GlobalThetaInVideo_B.csv,,,,,,,,,,,,,,,,,0,0,0,0,0,11,11,3,-0.4060185185185185,-0.1486111111111111,1,0,0,4.36875289999989,call3,0.028703703703703703,0.3055555555555556,1,0,0,4.871590499999911,colour1,0.41064814814814815,-0.2902777777777778,1,0,0,5.535507099999904,number4,False,False,True,1,1,2019_Nov_07_1551,MA_Theta_Exp,3.0.7,60.171331850314445,
video/Experiment/zh_sp07_Ti_Ro_2_NVocInAudio_GlobalThetaInVideo.avi,vocoded,plusVideo,sp07,Ti,Ro,2,0,1,flow/blocks/NVocInAudio_GlobalThetaInVideo_B.csv,,,,,,,,,,,,,,,,,0,0,0,0,0,12,12,9,-0.38101851851851853,-0.12777777777777777,1,0,0,4.5625004999997145,call3,-0.09074074074074075,-0.0875,1,0,0,4.995897899999818,colour3,0.4050925925925926,0.10555555555555556,1,0,0,6.117392500000278,number2,False,False,True,1,1,2019_Nov_07_1551,MA_Theta_Exp,3.0.7,60.171331850314445,
video/Experiment/zh_sp01_Ti_Ro_3_NVocInAudio_GlobalThetaInVideo.avi,vocoded,plusVideo,sp01,Ti,Ro,3,0,1,flow/blocks/NVocInAudio_GlobalThetaInVideo_B.csv,,,,,,,,,,,,,,,,,0,0,0,0,0,13,13,10,-0.38796296296296295,-0.13333333333333333,1,0,0,4.883660800000143,call3,0.027314814814814816,-0.09583333333333334,1,0,0,5.3499534999996285,colour3,0.43703703703703706,-0.10416666666666667,1,0,0,5.802553099999841,number3,False,False,True,1,1,2019_Nov_07_1551,MA_Theta_Exp,3.0.7,60.171331850314445,
video/Experiment/zh_sp01_Ti_Gr_1_NVocInAudio_GlobalThetaInVideo.avi,vocoded,plusVideo,sp01,Ti,Gr,1,0,1,flow/blocks/NVocInAudio_GlobalThetaInVideo_B.csv,,,,,,,,,,,,,,,,,0,0,0,0,0,14,14,4,-0.3921296296296296,-0.11388888888888889,1,0,0,5.089884699999857,call3,-0.000462962962962963,0.10416666666666667,1,0,0,5.534664299999804,colour2,0.3787037037037037,0.30972222222222223,1,0,0,5.968529799999942,number1,False,False,True,1,1,2019_Nov_07_1551,MA_Theta_Exp,3.0.7,60.171331850314445,
video/Experiment/zh_sp07_Un_Ge_2_NVocInAudio_GlobalThetaInVideo.avi,vocoded,plusVideo,sp07,Un,Ge,2,0,1,flow/blocks/NVocInAudio_GlobalThetaInVideo_B.csv,,,,,,,,,,,,,,,,,0,0,0,0,0,15,15,17,-0.3990740740740741,-0.30416666666666664,1,0,0,4.240692799999579,call4,0.07175925925925926,0.30833333333333335,1,0,0,4.92392289999998,colour1,0.41759259259259257,0.05277777777777778,1,0,0,5.408943400000226,number2,False,False,True,1,1,2019_Nov_07_1551,MA_Theta_Exp,3.0.7,60.171331850314445,
video/Experiment/zh_sp07_Un_Gr_4_NVocInAudio_GlobalThetaInVideo.avi,vocoded,plusVideo,sp07,Un,Gr,4,0,1,flow/blocks/NVocInAudio_GlobalThetaInVideo_B.csv,,,,,,,,,,,,,,,,,0,0,0,0,0,16,16,23,-0.40324074074074073,-0.33611111111111114,1,0,0,4.7043023999999605,call4,-0.03796296296296296,0.1486111111111111,1,0,0,5.3211474999998245,colour2,0.4217592592592593,-0.30833333333333335,1,0,0,5.907868100000087,number4,False,False,True,1,1,2019_Nov_07_1551,MA_Theta_Exp,3.0.7,60.171331850314445,
video/Experiment/zh_sp07_Un_Ro_1_NVocInAudio_GlobalThetaInVideo.avi,vocoded,plusVideo,sp07,Un,Ro,1,0,1,flow/blocks/NVocInAudio_GlobalThetaInVideo_B.csv,,,,,,,,,,,,,,,,,0,0,0,0,0,17,17,24,-0.425462962962963,-0.3458333333333333,1,0,0,5.3103658999998515,call4,-0.012962962962962963,-0.1486111111111111,1,0,0,5.811211400000047,colour3,0.36898148148148147,0.2986111111111111,1,0,0,6.313409899999897,number1,False,False,True,1,1,2019_Nov_07_1551,MA_Theta_Exp,3.0.7,60.171331850314445,
video/Experiment/zh_sp01_Un_Ge_4_NVocInAudio_GlobalThetaInVideo.avi,vocoded,plusVideo,sp01,Un,Ge,4,0,1,flow/blocks/NVocInAudio_GlobalThetaInVideo_B.csv,,,,,,,,,,,,,,,,,0,0,0,0,0,18,18,19,-0.3921296296296296,-0.30972222222222223,1,0,0,5.114919999999984,call4,-0.024074074074074074,0.3458333333333333,1,0,0,5.681781799999953,colour1,0.42314814814814816,-0.3472222222222222,1,0,0,6.381195099999786,number4,False,False,True,1,1,2019_Nov_07_1551,MA_Theta_Exp,3.0.7,60.171331850314445,
video/Experiment/zh_sp01_Un_Ro_4_NVocInAudio_GlobalThetaInVideo.avi,vocoded,plusVideo,sp01,Un,Ro,4,0,1,flow/blocks/NVocInAudio_GlobalThetaInVideo_B.csv,,,,,,,,,,,,,,,,,0,0,0,0,0,19,19,27,-0.3768518518518518,-0.3333333333333333,1,0,0,5.167838899999879,call4,0.009259259259259259,0.26666666666666666,1,0,0,6.249649599999884,colour1,0.37592592592592594,-0.2625,1,0,0,6.834110399999645,number4,False,False,True,1,1,2019_Nov_07_1551,MA_Theta_Exp,3.0.7,60.171331850314445,
video/Experiment/zh_sp01_Ti_Ge_2_NVocInAudio_GlobalThetaInVideo.avi,vocoded,plusVideo,sp01,Ti,Ge,2,0,1,flow/blocks/NVocInAudio_GlobalThetaInVideo_B.csv,,,,,,,,,,,,,,,,,0,0,0,0,0,20,20,1,-0.4115740740740741,-0.13472222222222222,1,0,0,5.078771399999823,call3,0.00787037037037037,0.3111111111111111,1,0,0,5.61674929999981,colour1,0.4064814814814815,0.10833333333333334,1,0,0,6.014340100000027,number2,False,False,True,1,1,2019_Nov_07_1551,MA_Theta_Exp,3.0.7,60.171331850314445,
video/Experiment/zh_sp07_Ti_We_1_NVocInAudio_GlobalThetaInVideo.avi,vocoded,plusVideo,sp07,Ti,We,1,0,1,flow/blocks/NVocInAudio_GlobalThetaInVideo_B.csv,,,,,,,,,,,,,,,,,0,0,0,0,0,21,21,12,-0.42407407407407405,-0.0875,1,0,0,4.262331499999618,call3,-0.024074074074074074,-0.3277777777777778,1,0,0,4.695671800000127,colour4,0.35648148148148145,0.2361111111111111,1,0,0,5.2620701999999255,number1,False,False,True,1,1,2019_Nov_07_1551,MA_Theta_Exp,3.0.7,60.171331850314445,
video/Experiment/zh_sp07_Ti_Gr_3_NVocInAudio_GlobalThetaInVideo.avi,vocoded,plusVideo,sp07,Ti,Gr,3,0,1,flow/blocks/NVocInAudio_GlobalThetaInVideo_B.csv,,,,,,,,,,,,,,,,,0,0,0,0,0,22,22,6,-0.37407407407407406,-0.10694444444444444,1,0,0,4.343416000000161,call3,-0.05324074074074074,0.09722222222222222,1,0,0,4.810396100000162,colour2,0.37453703703703706,-0.06944444444444445,1,0,0,5.3289151000003585,number3,False,False,True,1,1,2019_Nov_07_1551,MA_Theta_Exp,3.0.7,60.171331850314445,
video/Experiment/zh_sp07_Ti_We_3_NVocInAudio_GlobalThetaInVideo.avi,vocoded,plusVideo,sp07,Ti,We,3,0,1,flow/blocks/NVocInAudio_GlobalThetaInVideo_B.csv,,,,,,,,,,,,,,,,,0,0,0,0,0,23,23,14,-0.4351851851851852,-0.09305555555555556,1,0,0,4.472120999999788,call3,-0.000462962962962963,-0.30833333333333335,1,0,0,4.986107499999889,colour4,0.42314814814814816,-0.05138888888888889,1,0,0,5.502963800000089,number3,False,False,True,1,1,2019_Nov_07_1551,MA_Theta_Exp,3.0.7,60.171331850314445,
video/Experiment/zh_sp01_Ti_We_2_NVocInAudio_GlobalThetaInVideo.avi,vocoded,plusVideo,sp01,Ti,We,2,0,1,flow/blocks/NVocInAudio_GlobalThetaInVideo_B.csv,,,,,,,,,,,,,,,,,0,0,0,0,0,24,24,13,-0.4351851851851852,-0.0875,1,0,0,5.031464400000004,call3,-0.04490740740740741,-0.3,1,0,0,5.481930999999804,colour4,0.3800925925925926,0.04722222222222222,1,0,0,5.9480138000003535,number2,False,False,True,1,1,2019_Nov_07_1551,MA_Theta_Exp,3.0.7,60.171331850314445,
video/Experiment/zh_sp01_Un_Ro_2_NVocInAudio_GlobalThetaInVideo.avi,vocoded,plusVideo,sp01,Un,Ro,2,0,1,flow/blocks/NVocInAudio_GlobalThetaInVideo_B.csv,,,,,,,,,,,,,,,,,0,0,0,0,0,25,25,25,-0.412962962962963,-0.3416666666666667,1,0,0,5.143001500000082,call4,-0.08101851851851852,-0.1111111111111111,1,0,0,5.576520300000084,colour3,0.462037037037037,0.14583333333333334,1,0,0,6.127772399999685,number2,False,False,True,1,1,2019_Nov_07_1551,MA_Theta_Exp,3.0.7,60.171331850314445,
video/Experiment/zh_sp07_Ti_Gr_2_NVocInAudio_GlobalThetaInVideo.avi,vocoded,plusVideo,sp07,Ti,Gr,2,0,1,flow/blocks/NVocInAudio_GlobalThetaInVideo_B.csv,,,,,,,,,,,,,,,,,0,0,0,0,0,26,26,5,-0.45046296296296295,-0.10972222222222222,1,0,0,4.7318663000000925,call3,0.038425925925925926,0.1,1,0,0,5.2465572000000975,colour2,0.4787037037037037,0.14305555555555555,1,0,0,5.646714299999985,number2,False,False,True,1,1,2019_Nov_07_1551,MA_Theta_Exp,3.0.7,60.171331850314445,
video/Experiment/zh_sp01_Ti_Ro_1_NVocInAudio_GlobalThetaInVideo.avi,vocoded,plusVideo,sp01,Ti,Ro,1,0,1,flow/blocks/NVocInAudio_GlobalThetaInVideo_B.csv,,,,,,,,,,,,,,,,,0,0,0,0,0,27,27,8,-0.40046296296296297,-0.13194444444444445,1,0,0,5.220878900000116,call3,0.037037037037037035,-0.1,1,0,0,5.587556500000119,colour3,0.4217592592592593,0.24166666666666667,1,0,0,6.059459900000093,number1,False,False,True,1,1,2019_Nov_07_1551,MA_Theta_Exp,3.0.7,60.171331850314445,
video/Experiment/zh_sp01_Un_Ro_3_NVocInAudio_GlobalThetaInVideo.avi,vocoded,plusVideo,sp01,Un,Ro,3,0,1,flow/blocks/NVocInAudio_GlobalThetaInVideo_B.csv,,,,,,,,,,,,,,,,,0,0,0,0,0,28,28,26,-0.3574074074074074,-0.34305555555555556,1,0,0,5.5043498,call4,-0.018518518518518517,-0.10833333333333334,1,0,0,5.927425099999709,colour3,0.37453703703703706,-0.14305555555555555,1,0,0,6.371293799999876,number3,False,False,True,1,1,2019_Nov_07_1551,MA_Theta_Exp,3.0.7,60.171331850314445,
video/Experiment/zh_sp01_Un_Gr_1_NVocInAudio_GlobalThetaInVideo.avi,vocoded,plusVideo,sp01,Un,Gr,1,0,1,flow/blocks/NVocInAudio_GlobalThetaInVideo_B.csv,,,,,,,,,,,,,,,,,0,0,0,0,0,29,29,20,-0.39351851851851855,-0.33194444444444443,1,0,0,5.15440129999979,call4,0.053703703703703705,0.06944444444444445,1,0,0,5.656075599999895,colour2,0.3662037037037037,0.28888888888888886,1,0,0,6.23794369999996,number1,False,False,True,1,1,2019_Nov_07_1551,MA_Theta_Exp,3.0.7,60.171331850314445,
video/Experiment/zh_sp01_Ti_Ge_1_NVocInAudio_GlobalThetaInVideo.avi,vocoded,plusVideo,sp01,Ti,Ge,1,0,1,flow/blocks/NVocInAudio_GlobalThetaInVideo_B.csv,,,,,,,,,,,,,,,,,0,0,0,0,0,30,30,0,-0.4393518518518518,-0.14166666666666666,1,0,0,5.189151600000059,call3,0.024537037037037038,0.2875,1,0,0,5.689817699999821,colour1,0.4148148148148148,0.34444444444444444,1,0,0,6.110641000000214,number1,False,False,True,1,1,2019_Nov_07_1551,MA_Theta_Exp,3.0.7,60.171331850314445,
video/Experiment/zh_sp07_Ti_We_4_NVocInAudio_GlobalThetaInVideo.avi,vocoded,plusVideo,sp07,Ti,We,4,0,1,flow/blocks/NVocInAudio_GlobalThetaInVideo_B.csv,,,,,,,,,,,,,,,,,0,0,0,0,0,31,31,15,-0.41574074074074074,-0.10972222222222222,1,0,0,4.412456099999872,call3,0.060648148148148145,-0.35694444444444445,1,0,0,4.912392400000044,colour4,0.43703703703703706,-0.26666666666666666,1,0,0,5.3628303000000415,number4,False,False,True,1,1,2019_Nov_07_1551,MA_Theta_Exp,3.0.7,60.171331850314445,
video/Experiment/zh_sp01_Ti_Gr_3_NoThetaInAudio_NoVideo.avi,noTheta,noVideo,sp01,Ti,Gr,3,1,4,flow/blocks/NoThetaInAudio_NoVideo_B.csv,,,,,,,,,,,,,,,,,0,1,1,1,0,0,0,6,-0.40046296296296297,-0.07083333333333333,1,0,0,4.893607299999985,call3,-0.012962962962962963,0.10694444444444444,1,0,0,5.356831600000078,colour2,0.37037037037037035,-0.13055555555555556,1,0,0,6.939918000000034,number3,False,False,True,1,1,2019_Nov_07_1551,MA_Theta_Exp,3.0.7,60.171331850314445,
video/Experiment/zh_sp07_Un_Ro_1_NoThetaInAudio_NoVideo.avi,noTheta,noVideo,sp07,Un,Ro,1,1,4,flow/blocks/NoThetaInAudio_NoVideo_B.csv,,,,,,,,,,,,,,,,,0,1,1,1,0,1,1,24,-0.3837962962962963,-0.4097222222222222,1,0,0,4.499699299999975,call4,0.0023148148148148147,-0.08055555555555556,1,0,0,5.952105700000175,colour3,0.3509259259259259,0.21805555555555556,1,0,0,6.436044699999911,number1,False,False,True,1,1,2019_Nov_07_1551,MA_Theta_Exp,3.0.7,60.171331850314445,
video/Experiment/zh_sp07_Un_Gr_3_NoThetaInAudio_NoVideo.avi,noTheta,noVideo,sp07,Un,Gr,3,1,4,flow/blocks/NoThetaInAudio_NoVideo_B.csv,,,,,,,,,,,,,,,,,0,1,1,1,0,2,2,22,-0.3962962962962963,-0.12777777777777777,1,0,0,4.473868300000049,call3,-0.032407407407407406,0.09166666666666666,1,0,0,4.961081500000091,colour2,0.3537037037037037,-0.07916666666666666,1,0,0,5.394911599999887,number3,False,False,True,1,1,2019_Nov_07_1551,MA_Theta_Exp,3.0.7,60.171331850314445,
video/Experiment/zh_sp01_Ti_Ge_3_NoThetaInAudio_NoVideo.avi,noTheta,noVideo,sp01,Ti,Ge,3,1,4,flow/blocks/NoThetaInAudio_NoVideo_B.csv,,,,,,,,,,,,,,,,,0,1,1,1,0,3,3,2,-0.42962962962962964,-0.1125,1,0,0,5.019878600000084,call3,0.02175925925925926,0.29444444444444445,1,0,0,5.586331900000005,colour1,0.3578703703703704,-0.04583333333333333,1,0,0,6.119872900000246,number3,False,False,True,1,1,2019_Nov_07_1551,MA_Theta_Exp,3.0.7,60.171331850314445,
video/Experiment/zh_sp07_Un_Gr_4_NoThetaInAudio_NoVideo.avi,noTheta,noVideo,sp07,Un,Gr,4,1,4,flow/blocks/NoThetaInAudio_NoVideo_B.csv,,,,,,,,,,,,,,,,,0,1,1,1,0,4,4,23,-0.32685185185185184,-0.3,1,0,0,4.331076999999823,call4,-0.022685185185185187,0.05138888888888889,1,0,0,4.768150699999751,colour2,0.35648148148148145,-0.2375,1,0,0,5.212310400000206,number4,False,False,True,1,1,2019_Nov_07_1551,MA_Theta_Exp,3.0.7,60.171331850314445,
video/Experiment/zh_sp01_Un_Ro_2_NoThetaInAudio_NoVideo.avi,noTheta,noVideo,sp01,Un,Ro,2,1,4,flow/blocks/NoThetaInAudio_NoVideo_B.csv,,,,,,,,,,,,,,,,,0,1,1,1,0,5,5,25,-0.40185185185185185,-0.3013888888888889,1,0,0,4.969306599999982,call4,0.0023148148148148147,-0.1388888888888889,1,0,0,5.430700599999909,colour3,0.337037037037037,0.09722222222222222,1,0,0,5.883039300000291,number2,False,False,True,1,1,2019_Nov_07_1551,MA_Theta_Exp,3.0.7,60.171331850314445,
video/Experiment/zh_sp01_Ti_Ro_1_NoThetaInAudio_NoVideo.avi,noTheta,noVideo,sp01,Ti,Ro,1,1,4,flow/blocks/NoThetaInAudio_NoVideo_B.csv,,,,,,,,,,,,,,,,,0,1,1,1,0,6,6,8,-0.4546296296296296,-0.11666666666666667,1,0,0,5.0740326000000096,call3,-0.0712962962962963,-0.09305555555555556,1,0,0,5.50484490000008,colour3,0.3787037037037037,0.26666666666666666,1,0,0,6.271863899999971,number1,False,False,True,1,1,2019_Nov_07_1551,MA_Theta_Exp,3.0.7,60.171331850314445,
video/Experiment/zh_sp01_Un_Ge_1_NoThetaInAudio_NoVideo.avi,noTheta,noVideo,sp01,Un,Ge,1,1,4,flow/blocks/NoThetaInAudio_NoVideo_B.csv,,,,,,,,,,,,,,,,,0,1,1,1,0,7,7,16,-0.3685185185185185,-0.35833333333333334,1,0,0,5.265541300000223,call4,0.05787037037037037,0.2791666666666667,1,0,0,5.951348699999926,colour1,0.4078703703703704,0.35833333333333334,1,0,0,6.365189599999667,number1,False,False,True,1,1,2019_Nov_07_1551,MA_Theta_Exp,3.0.7,60.171331850314445,
video/Experiment/zh_sp01_Un_We_4_NoThetaInAudio_NoVideo.avi,noTheta,noVideo,sp01,Un,We,4,1,4,flow/blocks/NoThetaInAudio_NoVideo_B.csv,,,,,,,,,,,,,,,,,0,1,1,1,0,8,8,31,-0.41435185185185186,-0.09444444444444444,1,0,0,4.94602709999981,call3,-0.000462962962962963,-0.30694444444444446,1,0,0,5.3957102999997915,colour4,0.3537037037037037,-0.2722222222222222,1,0,0,5.8168840000003,number4,False,False,True,1,1,2019_Nov_07_1551,MA_Theta_Exp,3.0.7,60.171331850314445,
video/Experiment/zh_sp01_Ti_Ro_4_NoThetaInAudio_NoVideo.avi,noTheta,noVideo,sp01,Ti,Ro,4,1,4,flow/blocks/NoThetaInAudio_NoVideo_B.csv,,,,,,,,,,,,,,,,,0,1,1,1,0,9,9,11,-0.33935185185185185,-0.09444444444444444,1,0,0,5.0222217000000455,call3,-0.0060185185185185185,-0.07222222222222222,1,0,0,5.391113399999995,colour3,0.4300925925925926,-0.30277777777777776,1,0,0,5.853836799999954,number4,False,False,True,1,1,2019_Nov_07_1551,MA_Theta_Exp,3.0.7,60.171331850314445,
video/Experiment/zh_sp07_Un_Gr_2_NoThetaInAudio_NoVideo.avi,noTheta,noVideo,sp07,Un,Gr,2,1,4,flow/blocks/NoThetaInAudio_NoVideo_B.csv,,,,,,,,,,,,,,,,,0,1,1,1,0,10,10,21,-0.37962962962962965,-0.35833333333333334,1,0,0,4.448389399999996,call4,0.005092592592592593,0.0625,1,0,0,4.943572000000131,colour2,0.32314814814814813,0.14583333333333334,1,0,0,5.393591600000036,number2,False,False,True,1,1,2019_Nov_07_1551,MA_Theta_Exp,3.0.7,60.171331850314445,
video/Experiment/zh_sp01_Ti_Ge_1_NoThetaInAudio_NoVideo.avi,noTheta,noVideo,sp01,Ti,Ge,1,1,4,flow/blocks/NoThetaInAudio_NoVideo_B.csv,,,,,,,,,,,,,,,,,0,1,1,1,0,11,11,0,-0.4546296296296296,-0.13472222222222222,1,0,0,5.381678799999918,call3,-0.010185185185185186,0.30416666666666664,1,0,0,5.953382899999724,colour1,0.43148148148148147,0.3111111111111111,1,0,0,6.433144899999661,number1,False,False,True,1,1,2019_Nov_07_1551,MA_Theta_Exp,3.0.7,60.171331850314445,
video/Experiment/zh_sp07_Un_We_3_NoThetaInAudio_NoVideo.avi,noTheta,noVideo,sp07,Un,We,3,1,4,flow/blocks/NoThetaInAudio_NoVideo_B.csv,,,,,,,,,,,,,,,,,0,1,1,1,0,12,12,30,-0.362962962962963,-0.3375,1,0,0,4.713320700000168,call4,0.10231481481481482,-0.3194444444444444,1,0,0,5.115825400000176,colour4,0.45231481481481484,-0.05138888888888889,1,0,0,6.6461396999998215,number3,False,False,True,1,1,2019_Nov_07_1551,MA_Theta_Exp,3.0.7,60.171331850314445,
