videoFile,condition,video,speaker,callSign,colour,number,seq,id,block,exp.thisRepN,exp.thisTrialN,exp.thisN,exp.thisIndex,training.thisRepN,training.thisTrialN,training.thisN,training.thisIndex,firstHalf.thisRepN,firstHalf.thisTrialN,firstHalf.thisN,firstHalf.thisIndex,blocksA.thisRepN,blocksA.thisTrialN,blocksA.thisN,blocksA.thisIndex,secondHalf.thisRepN,secondHalf.thisTrialN,secondHalf.thisN,secondHalf.thisIndex,blocksB.thisRepN,blocksB.thisTrialN,blocksB.thisN,blocksB.thisIndex,mouseClickOnCall.x,mouseClickOnCall.y,mouseClickOnCall.leftButton,mouseClickOnCall.midButton,mouseClickOnCall.rightButton,mouseClickOnCall.time,mouseClickOnCall.clicked_name,mouseClickOnColour.x,mouseClickOnColour.y,mouseClickOnColour.leftButton,mouseClickOnColour.midButton,mouseClickOnColour.rightButton,mouseClickOnColour.time,mouseClickOnColour.clicked_name,mouseClickOnNumber.x,mouseClickOnNumber.y,mouseClickOnNumber.leftButton,mouseClickOnNumber.midButton,mouseClickOnNumber.rightButton,mouseClickOnNumber.time,mouseClickOnNumber.clicked_name,callSignCorrect,colourCorrect,numberCorrect,participant,order,date,expName,psychopyVersion,frameRate,
video/Training/zh_sp01_Ad_We_4_NVocInAudio_NoVideo.avi,vocoded,noVideo,sp01,Ad,We,4,,,,,,,,0,0,0,0,,,,,,,,,,,,,,,,,-0.3972222222222222,0.2962962962962963,1,0,0,5.636262699961662,call1,0.011111111111111112,-0.3138888888888889,1,0,0,7.002678900025785,colour4,0.3763888888888889,-0.3106481481481482,1,0,0,7.674552100012079,number4,True,True,True,20,5,2019_Nov_14_1601,MA_Theta_Exp,3.0.7,59.97343176291655,
video/Training/zh_sp07_Ad_Ge_3_NVocInAudio_NoVideo.avi,vocoded,noVideo,sp07,Ad,Ge,3,,,,,,,,0,1,1,1,,,,,,,,,,,,,,,,,-0.3875,0.2833333333333333,1,0,0,5.284549599979073,call1,0.013888888888888888,0.2847222222222222,1,0,0,6.25156020000577,colour1,0.39861111111111114,-0.10694444444444444,1,0,0,7.566940799995791,number3,True,True,True,20,5,2019_Nov_14_1601,MA_Theta_Exp,3.0.7,59.97343176291655,
video/Training/zh_sp01_Dr_Ro_3_NVocInAudio_GlobalThetaInVideo.avi,vocoded,plusVideo,sp01,Dr,Ro,3,,,,,,,,0,2,2,2,,,,,,,,,,,,,,,,,-0.38333333333333336,0.07546296296296297,1,0,0,5.774118300003465,call2,0.013888888888888888,-0.07361111111111111,1,0,0,7.608496200002264,colour3,0.3888888888888889,-0.059722222222222225,1,0,0,8.420540100021753,number3,True,True,True,20,5,2019_Nov_14_1601,MA_Theta_Exp,3.0.7,59.97343176291655,
video/Training/zh_sp07_Dr_Gr_4_NVocInAudio_GlobalThetaInVideo.avi,vocoded,plusVideo,sp07,Dr,Gr,4,,,,,,,,0,3,3,3,,,,,,,,,,,,,,,,,-0.37083333333333335,0.14166666666666666,1,0,0,4.6718077000114135,call2,-0.044444444444444446,0.08657407407407407,1,0,0,5.262544299999718,colour2,0.36527777777777776,-0.2898148148148148,1,0,0,5.931202800013125,number4,True,True,True,20,5,2019_Nov_14_1601,MA_Theta_Exp,3.0.7,59.97343176291655,
video/Training/zh_sp01_Ti_Gr_2_NoThetaInAudio_NoVideo.avi,noTheta,noVideo,sp01,Ti,Gr,2,,,,,,,,0,4,4,4,,,,,,,,,,,,,,,,,-0.34444444444444444,0.3125,1,0,0,5.7597171000088565,call1,0.027777777777777776,-0.12037037037037036,1,0,0,7.808522699982859,colour3,0.3958333333333333,0.09166666666666666,1,0,0,8.460803799971472,number2,False,False,True,20,5,2019_Nov_14_1601,MA_Theta_Exp,3.0.7,59.97343176291655,
video/Training/zh_sp07_Ti_Ro_1_NoThetaInAudio_NoVideo.avi,noTheta,noVideo,sp07,Ti,Ro,1,,,,,,,,0,5,5,5,,,,,,,,,,,,,,,,,-0.36527777777777776,-0.1527777777777778,1,0,0,4.628187199996319,call3,-0.001388888888888889,-0.12037037037037036,1,0,0,5.375895900011528,colour3,0.375,0.30694444444444446,1,0,0,6.586507500032894,number1,True,True,True,20,5,2019_Nov_14_1601,MA_Theta_Exp,3.0.7,59.97343176291655,
video/Training/zh_sp01_Un_Ge_1_NoThetaInAudio_GlobalThetaInVideo.avi,noTheta,plusVideo,sp01,Un,Ge,1,,,,,,,,0,6,6,6,,,,,,,,,,,,,,,,,-0.38333333333333336,-0.32222222222222224,1,0,0,5.360673199989833,call4,-0.020833333333333332,0.2638888888888889,1,0,0,6.496122999989893,colour1,0.39305555555555555,0.31851851851851853,1,0,0,7.228936800034717,number1,True,True,True,20,5,2019_Nov_14_1601,MA_Theta_Exp,3.0.7,59.97343176291655,
video/Training/zh_sp07_Un_We_2_NoThetaInAudio_GlobalThetaInVideo.avi,noTheta,plusVideo,sp07,Un,We,2,,,,,,,,0,7,7,7,,,,,,,,,,,,,,,,,-0.38055555555555554,-0.325,1,0,0,4.582789300009608,call4,0.0375,-0.3425925925925926,1,0,0,5.497222499980126,colour4,0.39444444444444443,0.05694444444444444,1,0,0,6.38556049996987,number2,True,True,True,20,5,2019_Nov_14_1601,MA_Theta_Exp,3.0.7,59.97343176291655,
video/Training/zh_sp01_Ad_Ge_1_GlobalTheta_NoVideo.avi,globalTheta,noVideo,sp01,Ad,Ge,1,,,,,,,,0,8,8,8,,,,,,,,,,,,,,,,,-0.36944444444444446,0.2791666666666667,1,0,0,5.921399699989706,call1,-0.05694444444444444,0.25972222222222224,1,0,0,6.89061150001362,colour1,0.42777777777777776,0.2375,1,0,0,7.784890300012194,number1,True,True,True,20,5,2019_Nov_14_1601,MA_Theta_Exp,3.0.7,59.97343176291655,
video/Training/zh_sp07_Ad_Ro_3_GlobalTheta_NoVideo.avi,globalTheta,noVideo,sp07,Ad,Ro,3,,,,,,,,0,9,9,9,,,,,,,,,,,,,,,,,-0.4013888888888889,0.3597222222222222,1,0,0,4.558957900037058,call1,-0.04861111111111111,-0.29814814814814816,1,0,0,6.981399799988139,colour4,0.37777777777777777,-0.125,1,0,0,7.659445800003596,number3,True,False,True,20,5,2019_Nov_14_1601,MA_Theta_Exp,3.0.7,59.97343176291655,
video/Experiment/zh_sp07_Ad_Gr_1_NoThetaInAudio_NoVideo.avi,noTheta,noVideo,sp07,Ad,Gr,1,0,4,flow/blocks/NoThetaInAudio_NoVideo_A.csv,,,,,,,,,0,0,0,0,0,0,0,4,,,,,,,,,-0.3736111111111111,0.28055555555555556,1,0,0,4.804634000000078,call1,-0.008333333333333333,0.10046296296296296,1,0,0,5.685062200005632,colour2,0.42916666666666664,0.2861111111111111,1,0,0,6.518169000046328,number1,True,True,True,20,5,2019_Nov_14_1601,MA_Theta_Exp,3.0.7,59.97343176291655,
video/Experiment/zh_sp01_Ad_We_1_NoThetaInAudio_NoVideo.avi,noTheta,noVideo,sp01,Ad,We,1,0,4,flow/blocks/NoThetaInAudio_NoVideo_A.csv,,,,,,,,,0,0,0,0,0,1,1,12,,,,,,,,,-0.42916666666666664,0.2861111111111111,1,0,0,5.589136900031008,call1,0.015277777777777777,-0.3509259259259259,1,0,0,6.746655499970075,colour4,0.4152777777777778,0.26805555555555555,1,0,0,7.700935400032904,number1,True,True,True,20,5,2019_Nov_14_1601,MA_Theta_Exp,3.0.7,59.97343176291655,
video/Experiment/zh_sp07_Dr_Ge_1_NoThetaInAudio_NoVideo.avi,noTheta,noVideo,sp07,Dr,Ge,1,0,4,flow/blocks/NoThetaInAudio_NoVideo_A.csv,,,,,,,,,0,0,0,0,0,2,2,16,,,,,,,,,-0.3819444444444444,-0.3425925925925926,1,0,0,5.486696799984202,call4,0.04027777777777778,0.2916666666666667,1,0,0,6.834784799953923,colour1,0.3875,0.3138888888888889,1,0,0,7.617552000039723,number1,False,True,True,20,5,2019_Nov_14_1601,MA_Theta_Exp,3.0.7,59.97343176291655,
video/Experiment/zh_sp07_Dr_Gr_3_NoThetaInAudio_NoVideo.avi,noTheta,noVideo,sp07,Dr,Gr,3,0,4,flow/blocks/NoThetaInAudio_NoVideo_A.csv,,,,,,,,,0,0,0,0,0,3,3,22,,,,,,,,,-0.3888888888888889,0.13333333333333333,1,0,0,4.961076999956276,call2,0.034722222222222224,0.07685185185185185,1,0,0,5.95232570002554,colour2,0.3736111111111111,-0.13425925925925927,1,0,0,6.836618000001181,number3,True,True,True,20,5,2019_Nov_14_1601,MA_Theta_Exp,3.0.7,59.97343176291655,
video/Experiment/zh_sp01_Dr_Gr_4_NoThetaInAudio_NoVideo.avi,noTheta,noVideo,sp01,Dr,Gr,4,0,4,flow/blocks/NoThetaInAudio_NoVideo_A.csv,,,,,,,,,0,0,0,0,0,4,4,23,,,,,,,,,-0.43194444444444446,0.075,1,0,0,5.83526260004146,call2,0.027777777777777776,0.09351851851851851,1,0,0,7.501431700016838,colour2,0.4013888888888889,-0.3287037037037037,1,0,0,8.549162000010256,number4,True,True,True,20,5,2019_Nov_14_1601,MA_Theta_Exp,3.0.7,59.97343176291655,
video/Experiment/zh_sp01_Ad_We_2_NoThetaInAudio_NoVideo.avi,noTheta,noVideo,sp01,Ad,We,2,0,4,flow/blocks/NoThetaInAudio_NoVideo_A.csv,,,,,,,,,0,0,0,0,0,5,5,13,,,,,,,,,-0.3638888888888889,0.27361111111111114,1,0,0,5.476465200015809,call1,-0.008333333333333333,-0.3486111111111111,1,0,0,6.751251399982721,colour4,0.4152777777777778,0.09444444444444444,1,0,0,8.070265999995172,number2,True,True,True,20,5,2019_Nov_14_1601,MA_Theta_Exp,3.0.7,59.97343176291655,
video/Experiment/zh_sp07_Dr_Ro_1_NoThetaInAudio_NoVideo.avi,noTheta,noVideo,sp07,Dr,Ro,1,0,4,flow/blocks/NoThetaInAudio_NoVideo_A.csv,,,,,,,,,0,0,0,0,0,6,6,24,,,,,,,,,-0.4,0.06666666666666667,1,0,0,4.457829199964181,call2,0.013888888888888888,-0.15694444444444444,1,0,0,5.527800399984699,colour3,0.39166666666666666,0.30416666666666664,1,0,0,6.457395999983419,number1,True,True,True,20,5,2019_Nov_14_1601,MA_Theta_Exp,3.0.7,59.97343176291655,
video/Experiment/zh_sp01_Ad_We_3_NoThetaInAudio_NoVideo.avi,noTheta,noVideo,sp01,Ad,We,3,0,4,flow/blocks/NoThetaInAudio_NoVideo_A.csv,,,,,,,,,0,0,0,0,0,7,7,14,,,,,,,,,-0.4166666666666667,0.26944444444444443,1,0,0,5.248521199973766,call1,0.018055555555555554,-0.32037037037037036,1,0,0,6.281936299987137,colour4,0.41805555555555557,-0.07361111111111111,1,0,0,7.299107099999674,number3,True,True,True,20,5,2019_Nov_14_1601,MA_Theta_Exp,3.0.7,59.97343176291655,
video/Experiment/zh_sp07_Ad_Ge_4_NoThetaInAudio_NoVideo.avi,noTheta,noVideo,sp07,Ad,Ge,4,0,4,flow/blocks/NoThetaInAudio_NoVideo_A.csv,,,,,,,,,0,0,0,0,0,8,8,3,,,,,,,,,-0.4,0.32685185185185184,1,0,0,4.994758000015281,call1,-0.016666666666666666,0.2972222222222222,1,0,0,6.50831050000852,colour1,0.44166666666666665,-0.3453703703703704,1,0,0,7.776615300041158,number4,True,True,True,20,5,2019_Nov_14_1601,MA_Theta_Exp,3.0.7,59.97343176291655,
video/Experiment/zh_sp01_Ad_Ro_4_NoThetaInAudio_NoVideo.avi,noTheta,noVideo,sp01,Ad,Ro,4,0,4,flow/blocks/NoThetaInAudio_NoVideo_A.csv,,,,,,,,,0,0,0,0,0,9,9,11,,,,,,,,,-0.4111111111111111,0.3226851851851852,1,0,0,5.886632100038696,call1,0.013888888888888888,-0.06342592592592593,1,0,0,6.740092699998058,colour3,0.4263888888888889,-0.337037037037037,1,0,0,7.623032699979376,number4,True,True,True,20,5,2019_Nov_14_1601,MA_Theta_Exp,3.0.7,59.97343176291655,
video/Experiment/zh_sp07_Dr_We_4_NoThetaInAudio_NoVideo.avi,noTheta,noVideo,sp07,Dr,We,4,0,4,flow/blocks/NoThetaInAudio_NoVideo_A.csv,,,,,,,,,0,0,0,0,0,10,10,31,,,,,,,,,-0.4305555555555556,0.08055555555555556,1,0,0,6.358008900017012,call2,-0.015277777777777777,-0.37592592592592594,1,0,0,7.543377299967688,colour4,0.41805555555555557,-0.36342592592592593,1,0,0,8.132734000042547,number4,True,True,True,20,5,2019_Nov_14_1601,MA_Theta_Exp,3.0.7,59.97343176291655,
video/Experiment/zh_sp01_Ad_Gr_3_NoThetaInAudio_NoVideo.avi,noTheta,noVideo,sp01,Ad,Gr,3,0,4,flow/blocks/NoThetaInAudio_NoVideo_A.csv,,,,,,,,,0,0,0,0,0,11,11,6,,,,,,,,,-0.3680555555555556,0.2712962962962963,1,0,0,5.259652999986429,call1,-0.006944444444444444,0.11157407407407408,1,0,0,7.7761240000254475,colour2,0.45555555555555555,-0.1361111111111111,1,0,0,8.675724299973808,number3,True,True,True,20,5,2019_Nov_14_1601,MA_Theta_Exp,3.0.7,59.97343176291655,
video/Experiment/zh_sp01_Dr_We_2_NoThetaInAudio_NoVideo.avi,noTheta,noVideo,sp01,Dr,We,2,0,4,flow/blocks/NoThetaInAudio_NoVideo_A.csv,,,,,,,,,0,0,0,0,0,12,12,29,,,,,,,,,-0.39305555555555555,-0.35833333333333334,1,0,0,5.19303729996318,call4,0.022222222222222223,-0.2884259259259259,1,0,0,6.527117100020405,colour4,0.38055555555555554,0.09074074074074075,1,0,0,7.673262900032569,number2,False,True,True,20,5,2019_Nov_14_1601,MA_Theta_Exp,3.0.7,59.97343176291655,
video/Experiment/zh_sp07_Ad_Ge_1_NoThetaInAudio_NoVideo.avi,noTheta,noVideo,sp07,Ad,Ge,1,0,4,flow/blocks/NoThetaInAudio_NoVideo_A.csv,,,,,,,,,0,0,0,0,0,13,13,0,,,,,,,,,-0.3763888888888889,-0.32314814814814813,1,0,0,6.309885900001973,call4,0.011111111111111112,0.32083333333333336,1,0,0,7.445875399978831,colour1,0.4236111111111111,0.2847222222222222,1,0,0,8.14727060002042,number1,False,True,True,20,5,2019_Nov_14_1601,MA_Theta_Exp,3.0.7,59.97343176291655,
video/Experiment/zh_sp01_Dr_Ro_3_NoThetaInAudio_NoVideo.avi,noTheta,noVideo,sp01,Dr,Ro,3,0,4,flow/blocks/NoThetaInAudio_NoVideo_A.csv,,,,,,,,,0,0,0,0,0,14,14,26,,,,,,,,,-0.3902777777777778,-0.31527777777777777,1,0,0,5.076486799982376,call4,0.029166666666666667,-0.09583333333333334,1,0,0,6.378754000004847,colour3,0.425,-0.09814814814814815,1,0,0,7.262686399975792,number3,False,True,True,20,5,2019_Nov_14_1601,MA_Theta_Exp,3.0.7,59.97343176291655,
video/Experiment/zh_sp01_Ad_Ge_3_NoThetaInAudio_NoVideo.avi,noTheta,noVideo,sp01,Ad,Ge,3,0,4,flow/blocks/NoThetaInAudio_NoVideo_A.csv,,,,,,,,,0,0,0,0,0,15,15,2,,,,,,,,,-0.4083333333333333,0.2916666666666667,1,0,0,4.944260199961718,call1,0.058333333333333334,0.30416666666666664,1,0,0,6.254532499995548,colour1,0.4111111111111111,-0.1175925925925926,1,0,0,7.020790299982764,number3,True,True,True,20,5,2019_Nov_14_1601,MA_Theta_Exp,3.0.7,59.97343176291655,
video/Experiment/zh_sp07_Dr_Gr_1_NoThetaInAudio_NoVideo.avi,noTheta,noVideo,sp07,Dr,Gr,1,0,4,flow/blocks/NoThetaInAudio_NoVideo_A.csv,,,,,,,,,0,0,0,0,0,16,16,20,,,,,,,,,-0.4166666666666667,0.10555555555555556,1,0,0,4.679868199978955,call2,-0.04027777777777778,0.08657407407407407,1,0,0,5.512238800001796,colour2,0.4013888888888889,0.3638888888888889,1,0,0,6.196672899997793,number1,True,True,True,20,5,2019_Nov_14_1601,MA_Theta_Exp,3.0.7,59.97343176291655,
video/Experiment/zh_sp07_Ad_Ge_2_NoThetaInAudio_NoVideo.avi,noTheta,noVideo,sp07,Ad,Ge,2,0,4,flow/blocks/NoThetaInAudio_NoVideo_A.csv,,,,,,,,,0,0,0,0,0,17,17,1,,,,,,,,,-0.36666666666666664,0.2708333333333333,1,0,0,4.7746861999621615,call1,0.03611111111111111,0.25462962962962965,1,0,0,5.541008300031535,colour1,0.44722222222222224,0.07407407407407407,1,0,0,6.50804970000172,number2,True,True,True,20,5,2019_Nov_14_1601,MA_Theta_Exp,3.0.7,59.97343176291655,
video/Experiment/zh_sp07_Dr_Ge_2_NoThetaInAudio_NoVideo.avi,noTheta,noVideo,sp07,Dr,Ge,2,0,4,flow/blocks/NoThetaInAudio_NoVideo_A.csv,,,,,,,,,0,0,0,0,0,18,18,17,,,,,,,,,-0.38055555555555554,0.10833333333333334,1,0,0,4.900378999998793,call2,-0.004166666666666667,0.3013888888888889,1,0,0,5.6684920999687165,colour1,0.39166666666666666,0.11435185185185186,1,0,0,6.3887430999893695,number2,True,True,True,20,5,2019_Nov_14_1601,MA_Theta_Exp,3.0.7,59.97343176291655,
video/Experiment/zh_sp07_Ad_Ro_2_NoThetaInAudio_NoVideo.avi,noTheta,noVideo,sp07,Ad,Ro,2,0,4,flow/blocks/NoThetaInAudio_NoVideo_A.csv,,,,,,,,,0,0,0,0,0,19,19,9,,,,,,,,,-0.35833333333333334,0.2611111111111111,1,0,0,4.609427499992307,call1,0.0375,-0.1398148148148148,1,0,0,5.682036700018216,colour3,0.36666666666666664,0.11666666666666667,1,0,0,6.46496140002273,number2,True,True,True,20,5,2019_Nov_14_1601,MA_Theta_Exp,3.0.7,59.97343176291655,
video/Experiment/zh_sp01_Dr_We_1_NoThetaInAudio_NoVideo.avi,noTheta,noVideo,sp01,Dr,We,1,0,4,flow/blocks/NoThetaInAudio_NoVideo_A.csv,,,,,,,,,0,0,0,0,0,20,20,28,,,,,,,,,-0.3819444444444444,-0.33194444444444443,1,0,0,6.293919699965045,call4,-0.041666666666666664,-0.35509259259259257,1,0,0,7.175783600017894,colour4,0.3861111111111111,0.2833333333333333,1,0,0,8.793940500007011,number1,False,True,True,20,5,2019_Nov_14_1601,MA_Theta_Exp,3.0.7,59.97343176291655,
video/Experiment/zh_sp01_Dr_Ro_2_NoThetaInAudio_NoVideo.avi,noTheta,noVideo,sp01,Dr,Ro,2,0,4,flow/blocks/NoThetaInAudio_NoVideo_A.csv,,,,,,,,,0,0,0,0,0,21,21,25,,,,,,,,,-0.43472222222222223,-0.3486111111111111,1,0,0,5.784954999980982,call4,-0.020833333333333332,-0.11666666666666667,1,0,0,6.551053100032732,colour3,0.38472222222222224,0.030555555555555555,1,0,0,7.298723799991421,number2,False,True,True,20,5,2019_Nov_14_1601,MA_Theta_Exp,3.0.7,59.97343176291655,
video/Experiment/zh_sp07_Dr_Ge_4_NoThetaInAudio_NoVideo.avi,noTheta,noVideo,sp07,Dr,Ge,4,0,4,flow/blocks/NoThetaInAudio_NoVideo_A.csv,,,,,,,,,0,0,0,0,0,22,22,19,,,,,,,,,-0.325,-0.10787037037037037,1,0,0,5.651381300005596,call3,-0.05694444444444444,0.2462962962962963,1,0,0,7.010635899961926,colour1,0.38055555555555554,-0.31203703703703706,1,0,0,7.981292999989819,number4,False,True,True,20,5,2019_Nov_14_1601,MA_Theta_Exp,3.0.7,59.97343176291655,
video/Experiment/zh_sp07_Ad_Ro_1_NoThetaInAudio_NoVideo.avi,noTheta,noVideo,sp07,Ad,Ro,1,0,4,flow/blocks/NoThetaInAudio_NoVideo_A.csv,,,,,,,,,0,0,0,0,0,23,23,8,,,,,,,,,-0.3375,0.26666666666666666,1,0,0,4.2202706999960355,call1,0.0375,-0.09675925925925925,1,0,0,5.119493200036231,colour3,0.4375,0.28194444444444444,1,0,0,5.906827900034841,number1,True,True,True,20,5,2019_Nov_14_1601,MA_Theta_Exp,3.0.7,59.97343176291655,
video/Experiment/zh_sp07_Ad_Gr_2_NoThetaInAudio_NoVideo.avi,noTheta,noVideo,sp07,Ad,Gr,2,0,4,flow/blocks/NoThetaInAudio_NoVideo_A.csv,,,,,,,,,0,0,0,0,0,24,24,5,,,,,,,,,-0.4111111111111111,0.3236111111111111,1,0,0,4.728731599985622,call1,-0.006944444444444444,0.11712962962962963,1,0,0,5.71174440003233,colour2,0.4125,0.075,1,0,0,6.878853000001982,number2,True,True,True,20,5,2019_Nov_14_1601,MA_Theta_Exp,3.0.7,59.97343176291655,
video/Experiment/zh_sp01_Ad_Ro_3_NoThetaInAudio_NoVideo.avi,noTheta,noVideo,sp01,Ad,Ro,3,0,4,flow/blocks/NoThetaInAudio_NoVideo_A.csv,,,,,,,,,0,0,0,0,0,25,25,10,,,,,,,,,-0.3972222222222222,0.31574074074074077,1,0,0,5.408064899966121,call1,-0.019444444444444445,0.34305555555555556,1,0,0,6.464246599993203,colour1,0.36944444444444446,-0.10787037037037037,1,0,0,7.469616299960762,number3,True,False,True,20,5,2019_Nov_14_1601,MA_Theta_Exp,3.0.7,59.97343176291655,
video/Experiment/zh_sp01_Ad_We_4_NoThetaInAudio_NoVideo.avi,noTheta,noVideo,sp01,Ad,We,4,0,4,flow/blocks/NoThetaInAudio_NoVideo_A.csv,,,,,,,,,0,0,0,0,0,26,26,15,,,,,,,,,-0.3875,0.2625,1,0,0,5.238829799985979,call1,0.009722222222222222,-0.32592592592592595,1,0,0,6.383530699997209,colour4,0.4486111111111111,-0.3125,1,0,0,7.410729800001718,number4,True,True,True,20,5,2019_Nov_14_1601,MA_Theta_Exp,3.0.7,59.97343176291655,
video/Experiment/zh_sp07_Dr_Gr_2_NoThetaInAudio_NoVideo.avi,noTheta,noVideo,sp07,Dr,Gr,2,0,4,flow/blocks/NoThetaInAudio_NoVideo_A.csv,,,,,,,,,0,0,0,0,0,27,27,21,,,,,,,,,-0.375,-0.31527777777777777,1,0,0,6.382161199988332,call4,0.013888888888888888,-0.30648148148148147,1,0,0,7.098691000021063,colour4,0.3541666666666667,0.12083333333333333,1,0,0,7.954349000006914,number2,False,False,True,20,5,2019_Nov_14_1601,MA_Theta_Exp,3.0.7,59.97343176291655,
video/Experiment/zh_sp01_Dr_Ge_3_NoThetaInAudio_NoVideo.avi,noTheta,noVideo,sp01,Dr,Ge,3,0,4,flow/blocks/NoThetaInAudio_NoVideo_A.csv,,,,,,,,,0,0,0,0,0,28,28,18,,,,,,,,,-0.3861111111111111,-0.3106481481481482,1,0,0,5.644582399982028,call4,0.0625,0.32916666666666666,1,0,0,6.802805300045293,colour1,0.38472222222222224,-0.09398148148148149,1,0,0,7.676433500018902,number3,False,True,True,20,5,2019_Nov_14_1601,MA_Theta_Exp,3.0.7,59.97343176291655,
video/Experiment/zh_sp01_Dr_Ro_4_NoThetaInAudio_NoVideo.avi,noTheta,noVideo,sp01,Dr,Ro,4,0,4,flow/blocks/NoThetaInAudio_NoVideo_A.csv,,,,,,,,,0,0,0,0,0,29,29,27,,,,,,,,,-0.37222222222222223,-0.3300925925925926,1,0,0,6.31214120000368,call4,0.034722222222222224,0.30416666666666664,1,0,0,7.863390700018499,colour1,0.375,-0.3398148148148148,1,0,0,8.620778099983,number4,False,False,True,20,5,2019_Nov_14_1601,MA_Theta_Exp,3.0.7,59.97343176291655,
video/Experiment/zh_sp01_Dr_We_3_NoThetaInAudio_NoVideo.avi,noTheta,noVideo,sp01,Dr,We,3,0,4,flow/blocks/NoThetaInAudio_NoVideo_A.csv,,,,,,,,,0,0,0,0,0,30,30,30,,,,,,,,,-0.3486111111111111,0.0875,1,0,0,5.246796399995219,call2,0.0375,-0.337037037037037,1,0,0,6.558282399957534,colour4,0.4097222222222222,-0.13055555555555556,1,0,0,7.497363700007554,number3,True,True,True,20,5,2019_Nov_14_1601,MA_Theta_Exp,3.0.7,59.97343176291655,
video/Experiment/zh_sp07_Ad_Gr_4_NoThetaInAudio_NoVideo.avi,noTheta,noVideo,sp07,Ad,Gr,4,0,4,flow/blocks/NoThetaInAudio_NoVideo_A.csv,,,,,,,,,0,0,0,0,0,31,31,7,,,,,,,,,-0.4444444444444444,0.30833333333333335,1,0,0,4.414347200014163,call1,0.011111111111111112,0.12129629629629629,1,0,0,5.397011700028088,colour2,0.37222222222222223,-0.30092592592592593,1,0,0,6.379476699978113,number4,True,True,True,20,5,2019_Nov_14_1601,MA_Theta_Exp,3.0.7,59.97343176291655,
video/Experiment/zh_sp01_Dr_Gr_4_NVocInAudio_NoVideo.avi,vocoded,noVideo,sp01,Dr,Gr,4,1,2,flow/blocks/NVocInAudio_NoVideo_A.csv,,,,,,,,,0,1,1,1,0,0,0,23,,,,,,,,,-0.4236111111111111,0.0875,1,0,0,5.050332099955995,call2,0.019444444444444445,0.1449074074074074,1,0,0,6.065956300008111,colour2,0.3611111111111111,-0.3398148148148148,1,0,0,7.18648979999125,number4,True,True,True,20,5,2019_Nov_14_1601,MA_Theta_Exp,3.0.7,59.97343176291655,
video/Experiment/zh_sp01_Dr_We_3_NVocInAudio_NoVideo.avi,vocoded,noVideo,sp01,Dr,We,3,1,2,flow/blocks/NVocInAudio_NoVideo_A.csv,,,,,,,,,0,1,1,1,0,1,1,30,,,,,,,,,-0.43472222222222223,0.13333333333333333,1,0,0,4.922185899980832,call2,0.020833333333333332,-0.2662037037037037,1,0,0,6.006116600008681,colour4,0.4097222222222222,-0.09305555555555556,1,0,0,6.617819299979601,number3,True,True,True,20,5,2019_Nov_14_1601,MA_Theta_Exp,3.0.7,59.97343176291655,
video/Experiment/zh_sp01_Ad_Gr_3_NVocInAudio_NoVideo.avi,vocoded,noVideo,sp01,Ad,Gr,3,1,2,flow/blocks/NVocInAudio_NoVideo_A.csv,,,,,,,,,0,1,1,1,0,2,2,6,,,,,,,,,-0.38472222222222224,0.2652777777777778,1,0,0,5.361008600040805,call1,-0.025,0.10046296296296296,1,0,0,6.1496643999707885,colour2,0.375,-0.060648148148148145,1,0,0,6.7973922999808565,number3,True,True,True,20,5,2019_Nov_14_1601,MA_Theta_Exp,3.0.7,59.97343176291655,
video/Experiment/zh_sp07_Dr_Ge_4_NVocInAudio_NoVideo.avi,vocoded,noVideo,sp07,Dr,Ge,4,1,2,flow/blocks/NVocInAudio_NoVideo_A.csv,,,,,,,,,0,1,1,1,0,3,3,19,,,,,,,,,-0.3680555555555556,0.059722222222222225,1,0,0,4.424220299988519,call2,0.006944444444444444,0.28888888888888886,1,0,0,5.419136899989098,colour1,0.4236111111111111,-0.2773148148148148,1,0,0,6.1748114000074565,number4,True,True,True,20,5,2019_Nov_14_1601,MA_Theta_Exp,3.0.7,59.97343176291655,
video/Experiment/zh_sp07_Ad_Ro_1_NVocInAudio_NoVideo.avi,vocoded,noVideo,sp07,Ad,Ro,1,1,2,flow/blocks/NVocInAudio_NoVideo_A.csv,,,,,,,,,0,1,1,1,0,4,4,8,,,,,,,,,-0.3888888888888889,0.2611111111111111,1,0,0,4.424051600042731,call1,0.041666666666666664,-0.12453703703703704,1,0,0,5.293150699988473,colour3,0.4083333333333333,0.34305555555555556,1,0,0,6.0405756999971345,number1,True,True,True,20,5,2019_Nov_14_1601,MA_Theta_Exp,3.0.7,59.97343176291655,
video/Experiment/zh_sp01_Dr_We_4_NVocInAudio_NoVideo.avi,vocoded,noVideo,sp01,Dr,We,4,1,2,flow/blocks/NVocInAudio_NoVideo_A.csv,,,,,,,,,0,1,1,1,0,5,5,31,,,,,,,,,-0.4111111111111111,0.06666666666666667,1,0,0,5.112041400047019,call2,-0.025,-0.32314814814814813,1,0,0,6.009772899968084,colour4,0.37083333333333335,-0.32731481481481484,1,0,0,6.808242600003723,number4,True,True,True,20,5,2019_Nov_14_1601,MA_Theta_Exp,3.0.7,59.97343176291655,
video/Experiment/zh_sp07_Dr_Ge_2_NVocInAudio_NoVideo.avi,vocoded,noVideo,sp07,Dr,Ge,2,1,2,flow/blocks/NVocInAudio_NoVideo_A.csv,,,,,,,,,0,1,1,1,0,6,6,17,,,,,,,,,-0.36666666666666664,0.0625,1,0,0,4.77268469997216,call2,0.058333333333333334,0.33194444444444443,1,0,0,5.770918700029142,colour1,0.3875,0.06851851851851852,1,0,0,6.555489299993496,number2,True,True,True,20,5,2019_Nov_14_1601,MA_Theta_Exp,3.0.7,59.97343176291655,
video/Experiment/zh_sp07_Dr_Gr_1_NVocInAudio_NoVideo.avi,vocoded,noVideo,sp07,Dr,Gr,1,1,2,flow/blocks/NVocInAudio_NoVideo_A.csv,,,,,,,,,0,1,1,1,0,7,7,20,,,,,,,,,-0.43333333333333335,0.08888888888888889,1,0,0,4.51984290004475,call2,-0.044444444444444446,0.06851851851851852,1,0,0,5.151739399996586,colour2,0.4263888888888889,0.2763888888888889,1,0,0,6.000907799985725,number1,True,True,True,20,5,2019_Nov_14_1601,MA_Theta_Exp,3.0.7,59.97343176291655,
video/Experiment/zh_sp07_Ad_Ge_4_NVocInAudio_NoVideo.avi,vocoded,noVideo,sp07,Ad,Ge,4,1,2,flow/blocks/NVocInAudio_NoVideo_A.csv,,,,,,,,,0,1,1,1,0,8,8,3,,,,,,,,,-0.375,0.30972222222222223,1,0,0,4.636186500021722,call1,-0.04027777777777778,0.33194444444444443,1,0,0,5.5275913999648765,colour1,0.3527777777777778,-0.2912037037037037,1,0,0,6.412646799988579,number4,True,True,True,20,5,2019_Nov_14_1601,MA_Theta_Exp,3.0.7,59.97343176291655,
video/Experiment/zh_sp01_Ad_We_4_NVocInAudio_NoVideo.avi,vocoded,noVideo,sp01,Ad,We,4,1,2,flow/blocks/NVocInAudio_NoVideo_A.csv,,,,,,,,,0,1,1,1,0,9,9,15,,,,,,,,,-0.41944444444444445,0.2638888888888889,1,0,0,4.8829024999868125,call1,-0.020833333333333332,-0.2953703703703704,1,0,0,5.825529100024141,colour4,0.36944444444444446,-0.29305555555555557,1,0,0,6.656816100003198,number4,True,True,True,20,5,2019_Nov_14_1601,MA_Theta_Exp,3.0.7,59.97343176291655,
video/Experiment/zh_sp07_Ad_Ge_1_NVocInAudio_NoVideo.avi,vocoded,noVideo,sp07,Ad,Ge,1,1,2,flow/blocks/NVocInAudio_NoVideo_A.csv,,,,,,,,,0,1,1,1,0,10,10,0,,,,,,,,,-0.4013888888888889,0.30694444444444446,1,0,0,4.353783399972599,call1,0.034722222222222224,0.3226851851851852,1,0,0,5.138228400028311,colour1,0.3861111111111111,0.325,1,0,0,5.985831400030293,number1,True,True,True,20,5,2019_Nov_14_1601,MA_Theta_Exp,3.0.7,59.97343176291655,
video/Experiment/zh_sp07_Dr_Ge_3_NVocInAudio_NoVideo.avi,vocoded,noVideo,sp07,Dr,Ge,3,1,2,flow/blocks/NVocInAudio_NoVideo_A.csv,,,,,,,,,0,1,1,1,0,11,11,18,,,,,,,,,-0.3763888888888889,0.075,1,0,0,4.493273100000806,call2,-0.03888888888888889,0.30694444444444446,1,0,0,5.2894948000321165,colour1,0.3638888888888889,-0.11064814814814815,1,0,0,6.105667600000743,number3,True,True,True,20,5,2019_Nov_14_1601,MA_Theta_Exp,3.0.7,59.97343176291655,
video/Experiment/zh_sp01_Ad_Ge_2_NVocInAudio_NoVideo.avi,vocoded,noVideo,sp01,Ad,Ge,2,1,2,flow/blocks/NVocInAudio_NoVideo_A.csv,,,,,,,,,0,1,1,1,0,12,12,1,,,,,,,,,-0.4097222222222222,0.2916666666666667,1,0,0,5.216644900036044,call1,-0.006944444444444444,0.2824074074074074,1,0,0,6.011347899970133,colour1,0.38333333333333336,0.11296296296296296,1,0,0,6.7134786999667995,number2,True,True,True,20,5,2019_Nov_14_1601,MA_Theta_Exp,3.0.7,59.97343176291655,
video/Experiment/zh_sp01_Dr_Ro_1_NVocInAudio_NoVideo.avi,vocoded,noVideo,sp01,Dr,Ro,1,1,2,flow/blocks/NVocInAudio_NoVideo_A.csv,,,,,,,,,0,1,1,1,0,13,13,24,,,,,,,,,-0.40694444444444444,0.12222222222222222,1,0,0,5.1692304000025615,call2,0.013888888888888888,-0.11203703703703703,1,0,0,6.058665799966548,colour3,0.3972222222222222,0.3125,1,0,0,6.96844270004658,number1,True,True,True,20,5,2019_Nov_14_1601,MA_Theta_Exp,3.0.7,59.97343176291655,
video/Experiment/zh_sp01_Ad_Ge_3_NVocInAudio_NoVideo.avi,vocoded,noVideo,sp01,Ad,Ge,3,1,2,flow/blocks/NVocInAudio_NoVideo_A.csv,,,,,,,,,0,1,1,1,0,14,14,2,,,,,,,,,-0.3763888888888889,0.2847222222222222,1,0,0,5.414586800034158,call1,0.004166666666666667,0.26851851851851855,1,0,0,6.131700499972794,colour1,0.3638888888888889,-0.1111111111111111,1,0,0,6.883766200044192,number3,True,True,True,20,5,2019_Nov_14_1601,MA_Theta_Exp,3.0.7,59.97343176291655,
video/Experiment/zh_sp07_Ad_Ro_2_NVocInAudio_NoVideo.avi,vocoded,noVideo,sp07,Ad,Ro,2,1,2,flow/blocks/NVocInAudio_NoVideo_A.csv,,,,,,,,,0,1,1,1,0,15,15,9,,,,,,,,,-0.3402777777777778,0.2833333333333333,1,0,0,4.695344600011595,call1,-0.019444444444444445,-0.07453703703703704,1,0,0,5.58346779999556,colour3,0.41388888888888886,0.09583333333333334,1,0,0,6.709740600024816,number2,True,True,True,20,5,2019_Nov_14_1601,MA_Theta_Exp,3.0.7,59.97343176291655,
video/Experiment/zh_sp01_Ad_Gr_4_NVocInAudio_NoVideo.avi,vocoded,noVideo,sp01,Ad,Gr,4,1,2,flow/blocks/NVocInAudio_NoVideo_A.csv,,,,,,,,,0,1,1,1,0,16,16,7,,,,,,,,,-0.3402777777777778,0.28888888888888886,1,0,0,5.289670299971476,call1,0.011111111111111112,0.07546296296296297,1,0,0,6.138105200021528,colour2,0.41944444444444445,-0.3175925925925926,1,0,0,7.044615599967074,number4,True,True,True,20,5,2019_Nov_14_1601,MA_Theta_Exp,3.0.7,59.97343176291655,
video/Experiment/zh_sp01_Ad_We_2_NVocInAudio_NoVideo.avi,vocoded,noVideo,sp01,Ad,We,2,1,2,flow/blocks/NVocInAudio_NoVideo_A.csv,,,,,,,,,0,1,1,1,0,17,17,13,,,,,,,,,-0.3458333333333333,0.2763888888888889,1,0,0,5.2453397999634035,call1,0.04027777777777778,-0.30787037037037035,1,0,0,6.1460676999995485,colour4,0.43472222222222223,0.09166666666666666,1,0,0,7.102564300002996,number2,True,True,True,20,5,2019_Nov_14_1601,MA_Theta_Exp,3.0.7,59.97343176291655,
video/Experiment/zh_sp07_Ad_Gr_1_NVocInAudio_NoVideo.avi,vocoded,noVideo,sp07,Ad,Gr,1,1,2,flow/blocks/NVocInAudio_NoVideo_A.csv,,,,,,,,,0,1,1,1,0,18,18,4,,,,,,,,,-0.41944444444444445,0.26666666666666666,1,0,0,4.8146773999906145,call1,-0.018055555555555554,0.09768518518518518,1,0,0,5.881265499978326,colour2,0.41805555555555557,0.35324074074074074,1,0,0,7.8253339000511914,number1,True,True,True,20,5,2019_Nov_14_1601,MA_Theta_Exp,3.0.7,59.97343176291655,
video/Experiment/zh_sp01_Ad_Ro_3_NVocInAudio_NoVideo.avi,vocoded,noVideo,sp01,Ad,Ro,3,1,2,flow/blocks/NVocInAudio_NoVideo_A.csv,,,,,,,,,0,1,1,1,0,19,19,10,,,,,,,,,-0.425,0.2833333333333333,1,0,0,5.019824400020298,call1,0.02361111111111111,-0.11203703703703703,1,0,0,6.317683400004171,colour3,0.39444444444444443,-0.09722222222222222,1,0,0,7.329392500047106,number3,True,True,True,20,5,2019_Nov_14_1601,MA_Theta_Exp,3.0.7,59.97343176291655,
video/Experiment/zh_sp07_Dr_We_2_NVocInAudio_NoVideo.avi,vocoded,noVideo,sp07,Dr,We,2,1,2,flow/blocks/NVocInAudio_NoVideo_A.csv,,,,,,,,,0,1,1,1,0,20,20,29,,,,,,,,,-0.3736111111111111,0.1111111111111111,1,0,0,4.809422299964353,call2,0.03888888888888889,-0.32083333333333336,1,0,0,6.126743800006807,colour4,0.35,0.10277777777777777,1,0,0,7.008527799975127,number2,True,True,True,20,5,2019_Nov_14_1601,MA_Theta_Exp,3.0.7,59.97343176291655,
video/Experiment/zh_sp07_Dr_We_1_NVocInAudio_NoVideo.avi,vocoded,noVideo,sp07,Dr,We,1,1,2,flow/blocks/NVocInAudio_NoVideo_A.csv,,,,,,,,,0,1,1,1,0,21,21,28,,,,,,,,,-0.3736111111111111,0.07361111111111111,1,0,0,4.76118359999964,call2,-0.075,-0.2773148148148148,1,0,0,5.696824899991043,colour4,0.40555555555555556,0.3074074074074074,1,0,0,6.8284745999844745,number1,True,True,True,20,5,2019_Nov_14_1601,MA_Theta_Exp,3.0.7,59.97343176291655,
video/Experiment/zh_sp01_Ad_Gr_2_NVocInAudio_NoVideo.avi,vocoded,noVideo,sp01,Ad,Gr,2,1,2,flow/blocks/NVocInAudio_NoVideo_A.csv,,,,,,,,,0,1,1,1,0,22,22,5,,,,,,,,,-0.3611111111111111,0.3194444444444444,1,0,0,5.228887200006284,call1,0.002777777777777778,0.07824074074074074,1,0,0,6.212969700049143,colour2,0.4125,0.09305555555555556,1,0,0,7.257529099995736,number2,True,True,True,20,5,2019_Nov_14_1601,MA_Theta_Exp,3.0.7,59.97343176291655,
video/Experiment/zh_sp01_Dr_Ro_4_NVocInAudio_NoVideo.avi,vocoded,noVideo,sp01,Dr,Ro,4,1,2,flow/blocks/NVocInAudio_NoVideo_A.csv,,,,,,,,,0,1,1,1,0,23,23,27,,,,,,,,,-0.41805555555555557,0.0875,1,0,0,5.213132700009737,call2,0.034722222222222224,-0.1300925925925926,1,0,0,6.132446100004017,colour3,0.39444444444444443,-0.3384259259259259,1,0,0,7.152743900020141,number4,True,True,True,20,5,2019_Nov_14_1601,MA_Theta_Exp,3.0.7,59.97343176291655,
video/Experiment/zh_sp01_Dr_Ro_3_NVocInAudio_NoVideo.avi,vocoded,noVideo,sp01,Dr,Ro,3,1,2,flow/blocks/NVocInAudio_NoVideo_A.csv,,,,,,,,,0,1,1,1,0,24,24,26,,,,,,,,,-0.3625,0.09861111111111111,1,0,0,5.1721735000028275,call2,-0.03194444444444444,-0.11898148148148148,1,0,0,5.99129009997705,colour3,0.37777777777777777,-0.12916666666666668,1,0,0,7.055213699990418,number3,True,True,True,20,5,2019_Nov_14_1601,MA_Theta_Exp,3.0.7,59.97343176291655,
video/Experiment/zh_sp07_Ad_We_1_NVocInAudio_NoVideo.avi,vocoded,noVideo,sp07,Ad,We,1,1,2,flow/blocks/NVocInAudio_NoVideo_A.csv,,,,,,,,,0,1,1,1,0,25,25,12,,,,,,,,,-0.4097222222222222,0.30972222222222223,1,0,0,4.505840900004841,call1,0.03333333333333333,-0.3189814814814815,1,0,0,5.524686999968253,colour4,0.4444444444444444,0.33055555555555555,1,0,0,6.578138799988665,number1,True,True,True,20,5,2019_Nov_14_1601,MA_Theta_Exp,3.0.7,59.97343176291655,
video/Experiment/zh_sp07_Dr_Ro_2_NVocInAudio_NoVideo.avi,vocoded,noVideo,sp07,Dr,Ro,2,1,2,flow/blocks/NVocInAudio_NoVideo_A.csv,,,,,,,,,0,1,1,1,0,26,26,25,,,,,,,,,-0.39305555555555555,0.0875,1,0,0,4.561239300004672,call2,-0.030555555555555555,-0.09675925925925925,1,0,0,5.505411599995568,colour3,0.40694444444444444,0.08055555555555556,1,0,0,6.420549399976153,number2,True,True,True,20,5,2019_Nov_14_1601,MA_Theta_Exp,3.0.7,59.97343176291655,
video/Experiment/zh_sp07_Dr_Gr_2_NVocInAudio_NoVideo.avi,vocoded,noVideo,sp07,Dr,Gr,2,1,2,flow/blocks/NVocInAudio_NoVideo_A.csv,,,,,,,,,0,1,1,1,0,27,27,21,,,,,,,,,-0.33611111111111114,0.06527777777777778,1,0,0,4.610958400007803,call2,-0.013888888888888888,0.04583333333333333,1,0,0,5.445037900004536,colour2,0.44722222222222224,0.021296296296296296,1,0,0,6.328813400003128,number2,True,True,True,20,5,2019_Nov_14_1601,MA_Theta_Exp,3.0.7,59.97343176291655,
video/Experiment/zh_sp07_Ad_Ro_4_NVocInAudio_NoVideo.avi,vocoded,noVideo,sp07,Ad,Ro,4,1,2,flow/blocks/NVocInAudio_NoVideo_A.csv,,,,,,,,,0,1,1,1,0,28,28,11,,,,,,,,,-0.3972222222222222,0.2902777777777778,1,0,0,4.685488999995869,call1,-0.015277777777777777,-0.09814814814814815,1,0,0,5.834740299964324,colour3,0.3597222222222222,-0.3189814814814815,1,0,0,6.856636400043499,number4,True,True,True,20,5,2019_Nov_14_1601,MA_Theta_Exp,3.0.7,59.97343176291655,
video/Experiment/zh_sp07_Dr_Gr_3_NVocInAudio_NoVideo.avi,vocoded,noVideo,sp07,Dr,Gr,3,1,2,flow/blocks/NVocInAudio_NoVideo_A.csv,,,,,,,,,0,1,1,1,0,29,29,22,,,,,,,,,-0.3736111111111111,0.12916666666666668,1,0,0,4.715219000005163,call2,0.004166666666666667,0.0587962962962963,1,0,0,5.60962910001399,colour2,0.4444444444444444,-0.1037037037037037,1,0,0,6.464700400014408,number3,True,True,True,20,5,2019_Nov_14_1601,MA_Theta_Exp,3.0.7,59.97343176291655,
video/Experiment/zh_sp01_Dr_Ge_1_NVocInAudio_NoVideo.avi,vocoded,noVideo,sp01,Dr,Ge,1,1,2,flow/blocks/NVocInAudio_NoVideo_A.csv,,,,,,,,,0,1,1,1,0,30,30,16,,,,,,,,,-0.3486111111111111,0.06388888888888888,1,0,0,5.365879699995276,call2,0.027777777777777776,0.33055555555555555,1,0,0,6.200401099980809,colour1,0.3763888888888889,0.31666666666666665,1,0,0,7.061475099995732,number1,True,True,True,20,5,2019_Nov_14_1601,MA_Theta_Exp,3.0.7,59.97343176291655,
video/Experiment/zh_sp01_Ad_We_3_NVocInAudio_NoVideo.avi,vocoded,noVideo,sp01,Ad,We,3,1,2,flow/blocks/NVocInAudio_NoVideo_A.csv,,,,,,,,,0,1,1,1,0,31,31,14,,,,,,,,,-0.3541666666666667,0.26805555555555555,1,0,0,5.020938400004525,call1,0.016666666666666666,-0.337037037037037,1,0,0,5.936924700043164,colour4,0.39444444444444443,-0.11944444444444445,1,0,0,6.805887499998789,number3,True,True,True,20,5,2019_Nov_14_1601,MA_Theta_Exp,3.0.7,59.97343176291655,
video/Experiment/zh_sp07_Ad_Ro_1_NoThetaInAudio_GlobalThetaInVideo.avi,noTheta,plusVideo,sp07,Ad,Ro,1,2,3,flow/blocks/NoThetaInAudio_GlobalThetaInVideo_A.csv,,,,,,,,,0,2,2,2,0,0,0,8,,,,,,,,,-0.35833333333333334,0.26944444444444443,1,0,0,4.676527699979488,call1,0.03333333333333333,-0.10231481481481482,1,0,0,6.071672199992463,colour3,0.4263888888888889,0.2513888888888889,1,0,0,6.988453399972059,number1,True,True,True,20,5,2019_Nov_14_1601,MA_Theta_Exp,3.0.7,59.97343176291655,
video/Experiment/zh_sp01_Dr_Ge_2_NoThetaInAudio_GlobalThetaInVideo.avi,noTheta,plusVideo,sp01,Dr,Ge,2,2,3,flow/blocks/NoThetaInAudio_GlobalThetaInVideo_A.csv,,,,,,,,,0,2,2,2,0,1,1,17,,,,,,,,,-0.37777777777777777,0.019444444444444445,1,0,0,5.306418499967549,call2,0.02361111111111111,0.2611111111111111,1,0,0,6.321676600025967,colour1,0.4305555555555556,0.08796296296296297,1,0,0,7.53648329997668,number2,True,True,True,20,5,2019_Nov_14_1601,MA_Theta_Exp,3.0.7,59.97343176291655,
video/Experiment/zh_sp01_Dr_We_3_NoThetaInAudio_GlobalThetaInVideo.avi,noTheta,plusVideo,sp01,Dr,We,3,2,3,flow/blocks/NoThetaInAudio_GlobalThetaInVideo_A.csv,,,,,,,,,0,2,2,2,0,2,2,30,,,,,,,,,-0.3680555555555556,0.04722222222222222,1,0,0,5.049062800011598,call2,0.05416666666666667,-0.37037037037037035,1,0,0,6.0784536999999546,colour4,0.3611111111111111,-0.10972222222222222,1,0,0,6.9330350999953225,number3,True,True,True,20,5,2019_Nov_14_1601,MA_Theta_Exp,3.0.7,59.97343176291655,
video/Experiment/zh_sp07_Dr_Ro_3_NoThetaInAudio_GlobalThetaInVideo.avi,noTheta,plusVideo,sp07,Dr,Ro,3,2,3,flow/blocks/NoThetaInAudio_GlobalThetaInVideo_A.csv,,,,,,,,,0,2,2,2,0,3,3,26,,,,,,,,,-0.3888888888888889,0.10555555555555556,1,0,0,4.4840537999989465,call2,0.009722222222222222,-0.09675925925925925,1,0,0,5.298073599988129,colour3,0.45555555555555555,-0.09305555555555556,1,0,0,5.969225100008771,number3,True,True,True,20,5,2019_Nov_14_1601,MA_Theta_Exp,3.0.7,59.97343176291655,
video/Experiment/zh_sp01_Dr_Gr_2_NoThetaInAudio_GlobalThetaInVideo.avi,noTheta,plusVideo,sp01,Dr,Gr,2,2,3,flow/blocks/NoThetaInAudio_GlobalThetaInVideo_A.csv,,,,,,,,,0,2,2,2,0,4,4,21,,,,,,,,,-0.39305555555555555,0.07361111111111111,1,0,0,5.56273720000172,call2,-0.005555555555555556,0.09351851851851851,1,0,0,6.447914099961054,colour2,0.4152777777777778,0.1111111111111111,1,0,0,7.226319000008516,number2,True,True,True,20,5,2019_Nov_14_1601,MA_Theta_Exp,3.0.7,59.97343176291655,
video/Experiment/zh_sp01_Ad_Ge_4_NoThetaInAudio_GlobalThetaInVideo.avi,noTheta,plusVideo,sp01,Ad,Ge,4,2,3,flow/blocks/NoThetaInAudio_GlobalThetaInVideo_A.csv,,,,,,,,,0,2,2,2,0,5,5,3,,,,,,,,,-0.4583333333333333,0.3013888888888889,1,0,0,5.450779300008435,call1,-0.03888888888888889,0.28194444444444444,1,0,0,6.322550099983346,colour1,0.4152777777777778,-0.3106481481481482,1,0,0,7.320779200003017,number4,True,True,True,20,5,2019_Nov_14_1601,MA_Theta_Exp,3.0.7,59.97343176291655,
video/Experiment/zh_sp07_Dr_Gr_4_NoThetaInAudio_GlobalThetaInVideo.avi,noTheta,plusVideo,sp07,Dr,Gr,4,2,3,flow/blocks/NoThetaInAudio_GlobalThetaInVideo_A.csv,,,,,,,,,0,2,2,2,0,6,6,23,,,,,,,,,-0.35138888888888886,0.08611111111111111,1,0,0,4.900902799970936,call2,0.05555555555555555,0.09722222222222222,1,0,0,5.70450760005042,colour2,0.40555555555555556,-0.29814814814814816,1,0,0,6.399275699979626,number4,True,True,True,20,5,2019_Nov_14_1601,MA_Theta_Exp,3.0.7,59.97343176291655,
video/Experiment/zh_sp01_Dr_Ro_2_NoThetaInAudio_GlobalThetaInVideo.avi,noTheta,plusVideo,sp01,Dr,Ro,2,2,3,flow/blocks/NoThetaInAudio_GlobalThetaInVideo_A.csv,,,,,,,,,0,2,2,2,0,7,7,25,,,,,,,,,-0.4152777777777778,0.12361111111111112,1,0,0,5.213469900016207,call2,0.020833333333333332,-0.13148148148148148,1,0,0,6.182358999969438,colour3,0.43472222222222223,0.08194444444444444,1,0,0,7.659438799950294,number2,True,True,True,20,5,2019_Nov_14_1601,MA_Theta_Exp,3.0.7,59.97343176291655,
video/Experiment/zh_sp01_Ad_Gr_3_NoThetaInAudio_GlobalThetaInVideo.avi,noTheta,plusVideo,sp01,Ad,Gr,3,2,3,flow/blocks/NoThetaInAudio_GlobalThetaInVideo_A.csv,,,,,,,,,0,2,2,2,0,8,8,6,,,,,,,,,-0.3472222222222222,0.3263888888888889,1,0,0,5.365745799965225,call1,0.0625,0.07222222222222222,1,0,0,6.530354799993802,colour2,0.475,-0.14537037037037037,1,0,0,7.481950999994297,number3,True,True,True,20,5,2019_Nov_14_1601,MA_Theta_Exp,3.0.7,59.97343176291655,
video/Experiment/zh_sp07_Ad_We_4_NoThetaInAudio_GlobalThetaInVideo.avi,noTheta,plusVideo,sp07,Ad,We,4,2,3,flow/blocks/NoThetaInAudio_GlobalThetaInVideo_A.csv,,,,,,,,,0,2,2,2,0,9,9,15,,,,,,,,,-0.3736111111111111,0.1111111111111111,1,0,0,4.693192499980796,call2,0.06111111111111111,-0.3287037037037037,1,0,0,5.875364900042769,colour4,0.36944444444444446,-0.3787037037037037,1,0,0,6.608636999968439,number4,False,True,True,20,5,2019_Nov_14_1601,MA_Theta_Exp,3.0.7,59.97343176291655,
video/Experiment/zh_sp07_Dr_Ro_1_NoThetaInAudio_GlobalThetaInVideo.avi,noTheta,plusVideo,sp07,Dr,Ro,1,2,3,flow/blocks/NoThetaInAudio_GlobalThetaInVideo_A.csv,,,,,,,,,0,2,2,2,0,10,10,24,,,,,,,,,-0.4166666666666667,0.0763888888888889,1,0,0,4.393766399996821,call2,0.009722222222222222,-0.11342592592592593,1,0,0,5.228290500002913,colour3,0.4305555555555556,0.2652777777777778,1,0,0,5.9615800000028685,number1,True,True,True,20,5,2019_Nov_14_1601,MA_Theta_Exp,3.0.7,59.97343176291655,
video/Experiment/zh_sp01_Dr_Ge_4_NoThetaInAudio_GlobalThetaInVideo.avi,noTheta,plusVideo,sp01,Dr,Ge,4,2,3,flow/blocks/NoThetaInAudio_GlobalThetaInVideo_A.csv,,,,,,,,,0,2,2,2,0,11,11,19,,,,,,,,,-0.3541666666666667,0.044444444444444446,1,0,0,5.1801101000164635,call2,-0.030555555555555555,0.32916666666666666,1,0,0,6.414626499987207,colour1,0.40694444444444444,-0.31342592592592594,1,0,0,7.2668084999895655,number4,True,True,True,20,5,2019_Nov_14_1601,MA_Theta_Exp,3.0.7,59.97343176291655,
video/Experiment/zh_sp07_Ad_We_1_NoThetaInAudio_GlobalThetaInVideo.avi,noTheta,plusVideo,sp07,Ad,We,1,2,3,flow/blocks/NoThetaInAudio_GlobalThetaInVideo_A.csv,,,,,,,,,0,2,2,2,0,12,12,12,,,,,,,,,-0.3347222222222222,0.275,1,0,0,4.515686099999584,call1,-0.002777777777777778,-0.3287037037037037,1,0,0,5.529958800005261,colour4,0.375,0.26666666666666666,1,0,0,6.597194499976467,number1,True,True,True,20,5,2019_Nov_14_1601,MA_Theta_Exp,3.0.7,59.97343176291655,
video/Experiment/zh_sp01_Ad_Gr_1_NoThetaInAudio_GlobalThetaInVideo.avi,noTheta,plusVideo,sp01,Ad,Gr,1,2,3,flow/blocks/NoThetaInAudio_GlobalThetaInVideo_A.csv,,,,,,,,,0,2,2,2,0,13,13,4,,,,,,,,,-0.32916666666666666,0.30416666666666664,1,0,0,5.366285800002515,call1,0.04027777777777778,0.09212962962962963,1,0,0,6.217309100029524,colour2,0.34444444444444444,0.31527777777777777,1,0,0,7.070013199991081,number1,True,True,True,20,5,2019_Nov_14_1601,MA_Theta_Exp,3.0.7,59.97343176291655,
video/Experiment/zh_sp07_Dr_We_2_NoThetaInAudio_GlobalThetaInVideo.avi,noTheta,plusVideo,sp07,Dr,We,2,2,3,flow/blocks/NoThetaInAudio_GlobalThetaInVideo_A.csv,,,,,,,,,0,2,2,2,0,14,14,29,,,,,,,,,-0.38333333333333336,0.1449074074074074,1,0,0,4.559580800007097,call2,0.03611111111111111,-0.32314814814814813,1,0,0,5.547195699997246,colour4,0.38055555555555554,0.13472222222222222,1,0,0,6.560787499998696,number2,True,True,True,20,5,2019_Nov_14_1601,MA_Theta_Exp,3.0.7,59.97343176291655,
video/Experiment/zh_sp01_Dr_Gr_3_NoThetaInAudio_GlobalThetaInVideo.avi,noTheta,plusVideo,sp01,Dr,Gr,3,2,3,flow/blocks/NoThetaInAudio_GlobalThetaInVideo_A.csv,,,,,,,,,0,2,2,2,0,15,15,22,,,,,,,,,-0.3819444444444444,0.11944444444444445,1,0,0,5.4615173999918625,call2,-0.022222222222222223,0.09768518518518518,1,0,0,6.090654999949038,colour2,0.4083333333333333,-0.09259259259259259,1,0,0,7.14032700000098,number3,True,True,True,20,5,2019_Nov_14_1601,MA_Theta_Exp,3.0.7,59.97343176291655,
video/Experiment/zh_sp01_Dr_We_4_NoThetaInAudio_GlobalThetaInVideo.avi,noTheta,plusVideo,sp01,Dr,We,4,2,3,flow/blocks/NoThetaInAudio_GlobalThetaInVideo_A.csv,,,,,,,,,0,2,2,2,0,16,16,31,,,,,,,,,-0.44305555555555554,0.10416666666666667,1,0,0,5.146019900043029,call2,0.04027777777777778,-0.34675925925925927,1,0,0,6.012815899972338,colour4,0.4083333333333333,-0.34305555555555556,1,0,0,7.05984320002608,number4,True,True,True,20,5,2019_Nov_14_1601,MA_Theta_Exp,3.0.7,59.97343176291655,
video/Experiment/zh_sp07_Ad_Ge_2_NoThetaInAudio_GlobalThetaInVideo.avi,noTheta,plusVideo,sp07,Ad,Ge,2,2,3,flow/blocks/NoThetaInAudio_GlobalThetaInVideo_A.csv,,,,,,,,,0,2,2,2,0,17,17,1,,,,,,,,,-0.43333333333333335,0.31805555555555554,1,0,0,4.433717200008687,call1,0.011111111111111112,0.2833333333333333,1,0,0,5.4709511999972165,colour1,0.4027777777777778,0.08935185185185185,1,0,0,6.270070400030818,number2,True,True,True,20,5,2019_Nov_14_1601,MA_Theta_Exp,3.0.7,59.97343176291655,
video/Experiment/zh_sp07_Dr_We_1_NoThetaInAudio_GlobalThetaInVideo.avi,noTheta,plusVideo,sp07,Dr,We,1,2,3,flow/blocks/NoThetaInAudio_GlobalThetaInVideo_A.csv,,,,,,,,,0,2,2,2,0,18,18,28,,,,,,,,,-0.3638888888888889,0.125,1,0,0,4.677215400035493,call2,-0.018055555555555554,-0.3189814814814815,1,0,0,5.6608415999799035,colour4,0.39166666666666666,0.2777777777777778,1,0,0,6.553218600049149,number1,True,True,True,20,5,2019_Nov_14_1601,MA_Theta_Exp,3.0.7,59.97343176291655,
video/Experiment/zh_sp07_Ad_We_3_NoThetaInAudio_GlobalThetaInVideo.avi,noTheta,plusVideo,sp07,Ad,We,3,2,3,flow/blocks/NoThetaInAudio_GlobalThetaInVideo_A.csv,,,,,,,,,0,2,2,2,0,19,19,14,,,,,,,,,-0.35138888888888886,0.28888888888888886,1,0,0,4.810746100032702,call1,0.02638888888888889,-0.3537037037037037,1,0,0,6.096355199988466,colour4,0.4722222222222222,-0.12638888888888888,1,0,0,7.012160500045866,number3,True,True,True,20,5,2019_Nov_14_1601,MA_Theta_Exp,3.0.7,59.97343176291655,
video/Experiment/zh_sp07_Dr_Gr_1_NoThetaInAudio_GlobalThetaInVideo.avi,noTheta,plusVideo,sp07,Dr,Gr,1,2,3,flow/blocks/NoThetaInAudio_GlobalThetaInVideo_A.csv,,,,,,,,,0,2,2,2,0,20,20,20,,,,,,,,,-0.38333333333333336,0.08055555555555556,1,0,0,4.480373500031419,call2,0.004166666666666667,0.09074074074074075,1,0,0,5.613140699977521,colour2,0.39444444444444443,0.3236111111111111,1,0,0,6.368028500000946,number1,True,True,True,20,5,2019_Nov_14_1601,MA_Theta_Exp,3.0.7,59.97343176291655,
video/Experiment/zh_sp01_Ad_Ge_3_NoThetaInAudio_GlobalThetaInVideo.avi,noTheta,plusVideo,sp01,Ad,Ge,3,2,3,flow/blocks/NoThetaInAudio_GlobalThetaInVideo_A.csv,,,,,,,,,0,2,2,2,0,21,21,2,,,,,,,,,-0.3597222222222222,0.3388888888888889,1,0,0,5.041862600017339,call1,-0.025,0.29074074074074074,1,0,0,6.591202399984468,colour1,0.35555555555555557,-0.08287037037037037,1,0,0,7.362727100029588,number3,True,True,True,20,5,2019_Nov_14_1601,MA_Theta_Exp,3.0.7,59.97343176291655,
video/Experiment/zh_sp07_Ad_Ge_1_NoThetaInAudio_GlobalThetaInVideo.avi,noTheta,plusVideo,sp07,Ad,Ge,1,2,3,flow/blocks/NoThetaInAudio_GlobalThetaInVideo_A.csv,,,,,,,,,0,2,2,2,0,22,22,0,,,,,,,,,-0.4097222222222222,0.08055555555555556,1,0,0,4.420936300011817,call2,-0.013888888888888888,0.29583333333333334,1,0,0,5.417832700011786,colour1,0.36666666666666664,0.3087962962962963,1,0,0,6.358613100019284,number1,False,True,True,20,5,2019_Nov_14_1601,MA_Theta_Exp,3.0.7,59.97343176291655,
video/Experiment/zh_sp01_Ad_Ro_3_NoThetaInAudio_GlobalThetaInVideo.avi,noTheta,plusVideo,sp01,Ad,Ro,3,2,3,flow/blocks/NoThetaInAudio_GlobalThetaInVideo_A.csv,,,,,,,,,0,2,2,2,0,23,23,10,,,,,,,,,-0.41388888888888886,0.3013888888888889,1,0,0,5.0849133000010625,call1,0.013888888888888888,-0.09259259259259259,1,0,0,7.368088299990632,colour3,0.3861111111111111,-0.1287037037037037,1,0,0,8.318843899993226,number3,True,True,True,20,5,2019_Nov_14_1601,MA_Theta_Exp,3.0.7,59.97343176291655,
video/Experiment/zh_sp01_Dr_Ge_3_NoThetaInAudio_GlobalThetaInVideo.avi,noTheta,plusVideo,sp01,Dr,Ge,3,2,3,flow/blocks/NoThetaInAudio_GlobalThetaInVideo_A.csv,,,,,,,,,0,2,2,2,0,24,24,18,,,,,,,,,-0.3375,0.09861111111111111,1,0,0,4.981531000055838,call2,0.0125,0.2763888888888889,1,0,0,5.702240500017069,colour1,0.3736111111111111,-0.15648148148148147,1,0,0,6.748643299972173,number3,True,True,True,20,5,2019_Nov_14_1601,MA_Theta_Exp,3.0.7,59.97343176291655,
video/Experiment/zh_sp01_Ad_Ro_2_NoThetaInAudio_GlobalThetaInVideo.avi,noTheta,plusVideo,sp01,Ad,Ro,2,2,3,flow/blocks/NoThetaInAudio_GlobalThetaInVideo_A.csv,,,,,,,,,0,2,2,2,0,25,25,9,,,,,,,,,-0.3819444444444444,0.3435185185185185,1,0,0,5.181837300013285,call1,0.04583333333333333,-0.04675925925925926,1,0,0,6.165827299992088,colour3,0.3611111111111111,0.09583333333333334,1,0,0,7.017787499993574,number2,True,True,True,20,5,2019_Nov_14_1601,MA_Theta_Exp,3.0.7,59.97343176291655,
video/Experiment/zh_sp01_Ad_Ro_4_NoThetaInAudio_GlobalThetaInVideo.avi,noTheta,plusVideo,sp01,Ad,Ro,4,2,3,flow/blocks/NoThetaInAudio_GlobalThetaInVideo_A.csv,,,,,,,,,0,2,2,2,0,26,26,11,,,,,,,,,-0.3736111111111111,0.2708333333333333,1,0,0,5.1290147000108846,call1,0.06388888888888888,-0.07037037037037037,1,0,0,6.1773596000275575,colour3,0.3486111111111111,-0.28425925925925927,1,0,0,7.265806999988854,number4,True,True,True,20,5,2019_Nov_14_1601,MA_Theta_Exp,3.0.7,59.97343176291655,
video/Experiment/zh_sp01_Ad_Gr_2_NoThetaInAudio_GlobalThetaInVideo.avi,noTheta,plusVideo,sp01,Ad,Gr,2,2,3,flow/blocks/NoThetaInAudio_GlobalThetaInVideo_A.csv,,,,,,,,,0,2,2,2,0,27,27,5,,,,,,,,,-0.4027777777777778,0.3055555555555556,1,0,0,5.360479099967051,call1,-0.015277777777777777,0.07407407407407407,1,0,0,6.116927399998531,colour2,0.3263888888888889,0.0875,1,0,0,7.097731499990914,number2,True,True,True,20,5,2019_Nov_14_1601,MA_Theta_Exp,3.0.7,59.97343176291655,
video/Experiment/zh_sp07_Dr_Ro_4_NoThetaInAudio_GlobalThetaInVideo.avi,noTheta,plusVideo,sp07,Dr,Ro,4,2,3,flow/blocks/NoThetaInAudio_GlobalThetaInVideo_A.csv,,,,,,,,,0,2,2,2,0,28,28,27,,,,,,,,,-0.33194444444444443,0.06111111111111111,1,0,0,4.994026999978814,call2,-0.02361111111111111,-0.1439814814814815,1,0,0,6.041448300005868,colour3,0.3888888888888889,-0.337037037037037,1,0,0,6.861328900035005,number4,True,True,True,20,5,2019_Nov_14_1601,MA_Theta_Exp,3.0.7,59.97343176291655,
video/Experiment/zh_sp07_Ad_We_2_NoThetaInAudio_GlobalThetaInVideo.avi,noTheta,plusVideo,sp07,Ad,We,2,2,3,flow/blocks/NoThetaInAudio_GlobalThetaInVideo_A.csv,,,,,,,,,0,2,2,2,0,29,29,13,,,,,,,,,-0.3333333333333333,0.2777777777777778,1,0,0,4.9062337999930605,call1,0.05555555555555555,-0.31203703703703706,1,0,0,5.871581299987156,colour4,0.33194444444444443,0.10694444444444444,1,0,0,6.801152000029106,number2,True,True,True,20,5,2019_Nov_14_1601,MA_Theta_Exp,3.0.7,59.97343176291655,
video/Experiment/zh_sp07_Dr_Ge_1_NoThetaInAudio_GlobalThetaInVideo.avi,noTheta,plusVideo,sp07,Dr,Ge,1,2,3,flow/blocks/NoThetaInAudio_GlobalThetaInVideo_A.csv,,,,,,,,,0,2,2,2,0,30,30,16,,,,,,,,,-0.3472222222222222,0.10694444444444444,1,0,0,4.632765799993649,call2,-0.005555555555555556,0.2569444444444444,1,0,0,5.6335196000291035,colour1,0.37916666666666665,0.2625,1,0,0,6.432251199963503,number1,True,True,True,20,5,2019_Nov_14_1601,MA_Theta_Exp,3.0.7,59.97343176291655,
video/Experiment/zh_sp07_Ad_Gr_4_NoThetaInAudio_GlobalThetaInVideo.avi,noTheta,plusVideo,sp07,Ad,Gr,4,2,3,flow/blocks/NoThetaInAudio_GlobalThetaInVideo_A.csv,,,,,,,,,0,2,2,2,0,31,31,7,,,,,,,,,-0.36944444444444446,0.3226851851851852,1,0,0,4.7420698999776505,call1,0.05555555555555555,0.09351851851851851,1,0,0,5.7463615000015125,colour2,0.43333333333333335,-0.31203703703703706,1,0,0,6.748502100002952,number4,True,True,True,20,5,2019_Nov_14_1601,MA_Theta_Exp,3.0.7,59.97343176291655,
video/Experiment/zh_sp07_Ad_Gr_4_GlobalTheta_NoVideo.avi,globalTheta,noVideo,sp07,Ad,Gr,4,3,5,flow/blocks/GlobalTheta_NoVideo_A.csv,,,,,,,,,0,3,3,3,0,0,0,7,,,,,,,,,-0.40694444444444444,0.2986111111111111,1,0,0,4.871889500005636,call1,-0.015277777777777777,0.11712962962962963,1,0,0,5.704686100012623,colour2,0.3638888888888889,-0.32314814814814813,1,0,0,6.544429100002162,number4,True,True,True,20,5,2019_Nov_14_1601,MA_Theta_Exp,3.0.7,59.97343176291655,
video/Experiment/zh_sp07_Ad_Gr_2_GlobalTheta_NoVideo.avi,globalTheta,noVideo,sp07,Ad,Gr,2,3,5,flow/blocks/GlobalTheta_NoVideo_A.csv,,,,,,,,,0,3,3,3,0,1,1,5,,,,,,,,,-0.4013888888888889,0.28055555555555556,1,0,0,4.685050900036003,call1,-0.030555555555555555,0.07685185185185185,1,0,0,5.6517948000109755,colour2,0.39305555555555555,0.125,1,0,0,6.503993099962827,number2,True,True,True,20,5,2019_Nov_14_1601,MA_Theta_Exp,3.0.7,59.97343176291655,
video/Experiment/zh_sp07_Ad_We_1_GlobalTheta_NoVideo.avi,globalTheta,noVideo,sp07,Ad,We,1,3,5,flow/blocks/GlobalTheta_NoVideo_A.csv,,,,,,,,,0,3,3,3,0,2,2,12,,,,,,,,,-0.31666666666666665,0.2638888888888889,1,0,0,4.447143000026699,call1,0.02638888888888889,-0.30787037037037035,1,0,0,5.5573361000278965,colour4,0.38472222222222224,0.30972222222222223,1,0,0,6.511847899993882,number1,True,True,True,20,5,2019_Nov_14_1601,MA_Theta_Exp,3.0.7,59.97343176291655,
video/Experiment/zh_sp07_Ad_We_4_GlobalTheta_NoVideo.avi,globalTheta,noVideo,sp07,Ad,We,4,3,5,flow/blocks/GlobalTheta_NoVideo_A.csv,,,,,,,,,0,3,3,3,0,3,3,15,,,,,,,,,-0.42083333333333334,0.26666666666666666,1,0,0,4.62518779997481,call1,-0.030555555555555555,-0.2773148148148148,1,0,0,5.47719629999483,colour4,0.3875,-0.34120370370370373,1,0,0,6.148567099997308,number4,True,True,True,20,5,2019_Nov_14_1601,MA_Theta_Exp,3.0.7,59.97343176291655,
video/Experiment/zh_sp01_Ad_Ge_1_GlobalTheta_NoVideo.avi,globalTheta,noVideo,sp01,Ad,Ge,1,3,5,flow/blocks/GlobalTheta_NoVideo_A.csv,,,,,,,,,0,3,3,3,0,4,4,0,,,,,,,,,-0.3819444444444444,0.31296296296296294,1,0,0,5.311407900007907,call1,-0.002777777777777778,0.2712962962962963,1,0,0,6.1807895000092685,colour1,0.4263888888888889,0.25555555555555554,1,0,0,7.111135500017554,number1,True,True,True,20,5,2019_Nov_14_1601,MA_Theta_Exp,3.0.7,59.97343176291655,
video/Experiment/zh_sp07_Dr_We_3_GlobalTheta_NoVideo.avi,globalTheta,noVideo,sp07,Dr,We,3,3,5,flow/blocks/GlobalTheta_NoVideo_A.csv,,,,,,,,,0,3,3,3,0,5,5,30,,,,,,,,,-0.45555555555555555,0.2763888888888889,1,0,0,5.500076500000432,call1,0.0125,-0.36203703703703705,1,0,0,6.7003138000145555,colour4,0.38055555555555554,-0.1,1,0,0,7.2175079000298865,number3,False,True,True,20,5,2019_Nov_14_1601,MA_Theta_Exp,3.0.7,59.97343176291655,
video/Experiment/zh_sp01_Dr_Gr_3_GlobalTheta_NoVideo.avi,globalTheta,noVideo,sp01,Dr,Gr,3,3,5,flow/blocks/GlobalTheta_NoVideo_A.csv,,,,,,,,,0,3,3,3,0,6,6,22,,,,,,,,,-0.35,0.08611111111111111,1,0,0,4.871016299992334,call2,0.043055555555555555,0.03657407407407407,1,0,0,5.727903700026218,colour2,0.3486111111111111,-0.08009259259259259,1,0,0,6.420772799989209,number3,True,True,True,20,5,2019_Nov_14_1601,MA_Theta_Exp,3.0.7,59.97343176291655,
video/Experiment/zh_sp01_Ad_We_2_GlobalTheta_NoVideo.avi,globalTheta,noVideo,sp01,Ad,We,2,3,5,flow/blocks/GlobalTheta_NoVideo_A.csv,,,,,,,,,0,3,3,3,0,7,7,13,,,,,,,,,-0.3680555555555556,0.2722222222222222,1,0,0,5.369562199979555,call1,0.004166666666666667,-0.3314814814814815,1,0,0,6.528127200028393,colour4,0.41388888888888886,0.06666666666666667,1,0,0,7.320660699973814,number2,True,True,True,20,5,2019_Nov_14_1601,MA_Theta_Exp,3.0.7,59.97343176291655,
video/Experiment/zh_sp07_Dr_Ge_4_GlobalTheta_NoVideo.avi,globalTheta,noVideo,sp07,Dr,Ge,4,3,5,flow/blocks/GlobalTheta_NoVideo_A.csv,,,,,,,,,0,3,3,3,0,8,8,19,,,,,,,,,-0.40694444444444444,0.06527777777777778,1,0,0,5.276471699995454,call2,0.02638888888888889,0.2847222222222222,1,0,0,6.260768599982839,colour1,0.41944444444444445,-0.3189814814814815,1,0,0,7.14895920001436,number4,True,True,True,20,5,2019_Nov_14_1601,MA_Theta_Exp,3.0.7,59.97343176291655,
video/Experiment/zh_sp07_Dr_Ge_1_GlobalTheta_NoVideo.avi,globalTheta,noVideo,sp07,Dr,Ge,1,3,5,flow/blocks/GlobalTheta_NoVideo_A.csv,,,,,,,,,0,3,3,3,0,9,9,16,,,,,,,,,-0.37222222222222223,0.08333333333333333,1,0,0,4.501205599983223,call2,-0.030555555555555555,0.26944444444444443,1,0,0,5.561696199991275,colour1,0.4,0.26944444444444443,1,0,0,6.723467500007246,number1,True,True,True,20,5,2019_Nov_14_1601,MA_Theta_Exp,3.0.7,59.97343176291655,
video/Experiment/zh_sp01_Dr_Gr_1_GlobalTheta_NoVideo.avi,globalTheta,noVideo,sp01,Dr,Gr,1,3,5,flow/blocks/GlobalTheta_NoVideo_A.csv,,,,,,,,,0,3,3,3,0,10,10,20,,,,,,,,,-0.41805555555555557,-0.1527777777777778,1,0,0,6.615295700030401,call3,-0.004166666666666667,0.06666666666666667,1,0,0,7.197288699971978,colour2,0.4152777777777778,0.25972222222222224,1,0,0,7.613695700012613,number1,False,True,True,20,5,2019_Nov_14_1601,MA_Theta_Exp,3.0.7,59.97343176291655,
video/Experiment/zh_sp07_Ad_Ge_4_GlobalTheta_NoVideo.avi,globalTheta,noVideo,sp07,Ad,Ge,4,3,5,flow/blocks/GlobalTheta_NoVideo_A.csv,,,,,,,,,0,3,3,3,0,11,11,3,,,,,,,,,-0.3375,0.2601851851851852,1,0,0,4.538999699987471,call1,-0.043055555555555555,0.2851851851851852,1,0,0,5.339066700020339,colour1,0.375,-0.3175925925925926,1,0,0,6.322515800013207,number4,True,True,True,20,5,2019_Nov_14_1601,MA_Theta_Exp,3.0.7,59.97343176291655,
video/Experiment/zh_sp07_Dr_Ro_4_GlobalTheta_NoVideo.avi,globalTheta,noVideo,sp07,Dr,Ro,4,3,5,flow/blocks/GlobalTheta_NoVideo_A.csv,,,,,,,,,0,3,3,3,0,12,12,27,,,,,,,,,-0.4041666666666667,0.12638888888888888,1,0,0,4.656333200051449,call2,-0.059722222222222225,-0.10787037037037037,1,0,0,5.878709300013725,colour3,0.3625,-0.27175925925925926,1,0,0,6.943327499961015,number4,True,True,True,20,5,2019_Nov_14_1601,MA_Theta_Exp,3.0.7,59.97343176291655,
video/Experiment/zh_sp01_Ad_Gr_1_GlobalTheta_NoVideo.avi,globalTheta,noVideo,sp01,Ad,Gr,1,3,5,flow/blocks/GlobalTheta_NoVideo_A.csv,,,,,,,,,0,3,3,3,0,13,13,4,,,,,,,,,-0.3680555555555556,0.23472222222222222,1,0,0,5.822409100015648,call1,-0.05694444444444444,0.09768518518518518,1,0,0,6.806657900044229,colour2,0.3888888888888889,0.3,1,0,0,7.861478900013026,number1,True,True,True,20,5,2019_Nov_14_1601,MA_Theta_Exp,3.0.7,59.97343176291655,
video/Experiment/zh_sp01_Dr_Ge_3_GlobalTheta_NoVideo.avi,globalTheta,noVideo,sp01,Dr,Ge,3,3,5,flow/blocks/GlobalTheta_NoVideo_A.csv,,,,,,,,,0,3,3,3,0,14,14,18,,,,,,,,,-0.4,0.11944444444444445,1,0,0,5.25268649996724,call2,-0.008333333333333333,0.2777777777777778,1,0,0,6.117338299984112,colour1,0.3958333333333333,-0.09722222222222222,1,0,0,6.972126099979505,number3,True,True,True,20,5,2019_Nov_14_1601,MA_Theta_Exp,3.0.7,59.97343176291655,
video/Experiment/zh_sp07_Ad_Ro_2_GlobalTheta_NoVideo.avi,globalTheta,noVideo,sp07,Ad,Ro,2,3,5,flow/blocks/GlobalTheta_NoVideo_A.csv,,,,,,,,,0,3,3,3,0,15,15,9,,,,,,,,,-0.39166666666666666,0.28055555555555556,1,0,0,4.686090099974535,call1,-0.059722222222222225,0.29074074074074074,1,0,0,5.586289700004272,colour1,0.4305555555555556,0.07546296296296297,1,0,0,6.336984699999448,number2,True,False,True,20,5,2019_Nov_14_1601,MA_Theta_Exp,3.0.7,59.97343176291655,
video/Experiment/zh_sp01_Dr_We_2_GlobalTheta_NoVideo.avi,globalTheta,noVideo,sp01,Dr,We,2,3,5,flow/blocks/GlobalTheta_NoVideo_A.csv,,,,,,,,,0,3,3,3,0,16,16,29,,,,,,,,,-0.43194444444444446,0.08888888888888889,1,0,0,5.270783699990716,call2,0.05555555555555555,-0.36342592592592593,1,0,0,6.3489528999780305,colour4,0.39861111111111114,0.06111111111111111,1,0,0,7.255433399986941,number2,True,True,True,20,5,2019_Nov_14_1601,MA_Theta_Exp,3.0.7,59.97343176291655,
video/Experiment/zh_sp01_Ad_Ge_2_GlobalTheta_NoVideo.avi,globalTheta,noVideo,sp01,Ad,Ge,2,3,5,flow/blocks/GlobalTheta_NoVideo_A.csv,,,,,,,,,0,3,3,3,0,17,17,1,,,,,,,,,-0.37083333333333335,0.25972222222222224,1,0,0,5.329952300002333,call1,-0.027777777777777776,0.25833333333333336,1,0,0,6.27571459999308,colour1,0.35,0.0837962962962963,1,0,0,7.109464700042736,number2,True,True,True,20,5,2019_Nov_14_1601,MA_Theta_Exp,3.0.7,59.97343176291655,
video/Experiment/zh_sp01_Dr_We_1_GlobalTheta_NoVideo.avi,globalTheta,noVideo,sp01,Dr,We,1,3,5,flow/blocks/GlobalTheta_NoVideo_A.csv,,,,,,,,,0,3,3,3,0,18,18,28,,,,,,,,,-0.375,0.075,1,0,0,4.989859200024512,call2,-0.041666666666666664,-0.32037037037037036,1,0,0,6.306391699996311,colour4,0.38055555555555554,0.3013888888888889,1,0,0,7.443970100022852,number1,True,True,True,20,5,2019_Nov_14_1601,MA_Theta_Exp,3.0.7,59.97343176291655,
video/Experiment/zh_sp07_Ad_Gr_3_GlobalTheta_NoVideo.avi,globalTheta,noVideo,sp07,Ad,Gr,3,3,5,flow/blocks/GlobalTheta_NoVideo_A.csv,,,,,,,,,0,3,3,3,0,19,19,6,,,,,,,,,-0.36666666666666664,0.37962962962962965,1,0,0,4.5889859000453725,call1,0.004166666666666667,0.11574074074074074,1,0,0,6.0448839999735355,colour2,0.375,-0.09814814814814815,1,0,0,7.759161299967673,number3,True,True,True,20,5,2019_Nov_14_1601,MA_Theta_Exp,3.0.7,59.97343176291655,
video/Experiment/zh_sp01_Dr_Ro_3_GlobalTheta_NoVideo.avi,globalTheta,noVideo,sp01,Dr,Ro,3,3,5,flow/blocks/GlobalTheta_NoVideo_A.csv,,,,,,,,,0,3,3,3,0,20,20,26,,,,,,,,,-0.4222222222222222,0.08611111111111111,1,0,0,4.874529000022449,call2,-0.025,-0.08009259259259259,1,0,0,5.8721827999688685,colour3,0.4263888888888889,-0.12731481481481483,1,0,0,6.984751000010874,number3,True,True,True,20,5,2019_Nov_14_1601,MA_Theta_Exp,3.0.7,59.97343176291655,
video/Experiment/zh_sp01_Dr_Ro_1_GlobalTheta_NoVideo.avi,globalTheta,noVideo,sp01,Dr,Ro,1,3,5,flow/blocks/GlobalTheta_NoVideo_A.csv,,,,,,,,,0,3,3,3,0,21,21,24,,,,,,,,,-0.3472222222222222,0.10833333333333334,1,0,0,5.425693099969067,call2,-0.043055555555555555,-0.11203703703703703,1,0,0,6.09612520004157,colour3,0.3625,0.25833333333333336,1,0,0,7.095669400005136,number1,True,True,True,20,5,2019_Nov_14_1601,MA_Theta_Exp,3.0.7,59.97343176291655,
video/Experiment/zh_sp01_Ad_Ro_4_GlobalTheta_NoVideo.avi,globalTheta,noVideo,sp01,Ad,Ro,4,3,5,flow/blocks/GlobalTheta_NoVideo_A.csv,,,,,,,,,0,3,3,3,0,22,22,11,,,,,,,,,-0.4375,0.2972222222222222,1,0,0,5.140765000018291,call1,-0.041666666666666664,-0.09398148148148149,1,0,0,5.999853399989661,colour3,0.4083333333333333,-0.3023148148148148,1,0,0,6.9099824000149965,number4,True,True,True,20,5,2019_Nov_14_1601,MA_Theta_Exp,3.0.7,59.97343176291655,
video/Experiment/zh_sp07_Ad_Ro_1_GlobalTheta_NoVideo.avi,globalTheta,noVideo,sp07,Ad,Ro,1,3,5,flow/blocks/GlobalTheta_NoVideo_A.csv,,,,,,,,,0,3,3,3,0,23,23,8,,,,,,,,,-0.44305555555555554,0.3333333333333333,1,0,0,4.925203500024509,call1,-0.019444444444444445,-0.13148148148148148,1,0,0,5.981804399983957,colour3,0.4513888888888889,0.3138888888888889,1,0,0,7.067642800044268,number1,True,True,True,20,5,2019_Nov_14_1601,MA_Theta_Exp,3.0.7,59.97343176291655,
video/Experiment/zh_sp07_Dr_Ge_2_GlobalTheta_NoVideo.avi,globalTheta,noVideo,sp07,Dr,Ge,2,3,5,flow/blocks/GlobalTheta_NoVideo_A.csv,,,,,,,,,0,3,3,3,0,24,24,17,,,,,,,,,-0.3680555555555556,0.28194444444444444,1,0,0,4.728977399994619,call1,-0.044444444444444446,0.3125,1,0,0,5.611758599989116,colour1,0.35833333333333334,0.11157407407407408,1,0,0,6.4982696999795735,number2,False,True,True,20,5,2019_Nov_14_1601,MA_Theta_Exp,3.0.7,59.97343176291655,
video/Experiment/zh_sp01_Ad_We_3_GlobalTheta_NoVideo.avi,globalTheta,noVideo,sp01,Ad,We,3,3,5,flow/blocks/GlobalTheta_NoVideo_A.csv,,,,,,,,,0,3,3,3,0,25,25,14,,,,,,,,,-0.35,0.31527777777777777,1,0,0,5.324887700029649,call1,0.011111111111111112,-0.32037037037037036,1,0,0,6.306891499960329,colour4,0.4013888888888889,-0.05277777777777778,1,0,0,7.190822700038552,number3,True,True,True,20,5,2019_Nov_14_1601,MA_Theta_Exp,3.0.7,59.97343176291655,
video/Experiment/zh_sp07_Dr_We_4_GlobalTheta_NoVideo.avi,globalTheta,noVideo,sp07,Dr,We,4,3,5,flow/blocks/GlobalTheta_NoVideo_A.csv,,,,,,,,,0,3,3,3,0,26,26,31,,,,,,,,,-0.4111111111111111,0.2777777777777778,1,0,0,4.7425899999798276,call1,0.018055555555555554,-0.3523148148148148,1,0,0,6.107887600024696,colour4,0.4013888888888889,-0.09722222222222222,1,0,0,7.124017099966295,number3,False,True,False,20,5,2019_Nov_14_1601,MA_Theta_Exp,3.0.7,59.97343176291655,
video/Experiment/zh_sp07_Dr_Gr_4_GlobalTheta_NoVideo.avi,globalTheta,noVideo,sp07,Dr,Gr,4,3,5,flow/blocks/GlobalTheta_NoVideo_A.csv,,,,,,,,,0,3,3,3,0,27,27,23,,,,,,,,,-0.36527777777777776,0.10555555555555556,1,0,0,4.90697640000144,call2,0.004166666666666667,0.047685185185185185,1,0,0,5.692156600009184,colour2,0.36666666666666664,-0.13425925925925927,1,0,0,6.8224192999769,number3,True,True,False,20,5,2019_Nov_14_1601,MA_Theta_Exp,3.0.7,59.97343176291655,
video/Experiment/zh_sp07_Ad_Ro_3_GlobalTheta_NoVideo.avi,globalTheta,noVideo,sp07,Ad,Ro,3,3,5,flow/blocks/GlobalTheta_NoVideo_A.csv,,,,,,,,,0,3,3,3,0,28,28,10,,,,,,,,,-0.3611111111111111,0.2638888888888889,1,0,0,4.858962099999189,call1,0.05277777777777778,0.06944444444444445,1,0,0,5.848227800044697,colour2,0.38472222222222224,-0.34120370370370373,1,0,0,6.989953099982813,number4,True,False,False,20,5,2019_Nov_14_1601,MA_Theta_Exp,3.0.7,59.97343176291655,
video/Experiment/zh_sp01_Ad_Ge_3_GlobalTheta_NoVideo.avi,globalTheta,noVideo,sp01,Ad,Ge,3,3,5,flow/blocks/GlobalTheta_NoVideo_A.csv,,,,,,,,,0,3,3,3,0,29,29,2,,,,,,,,,-0.37916666666666665,0.23333333333333334,1,0,0,4.821651900012512,call1,-0.005555555555555556,0.25416666666666665,1,0,0,5.71011250000447,colour1,0.425,-0.1287037037037037,1,0,0,6.637829699961003,number3,True,True,True,20,5,2019_Nov_14_1601,MA_Theta_Exp,3.0.7,59.97343176291655,
video/Experiment/zh_sp01_Dr_Ro_2_GlobalTheta_NoVideo.avi,globalTheta,noVideo,sp01,Dr,Ro,2,3,5,flow/blocks/GlobalTheta_NoVideo_A.csv,,,,,,,,,0,3,3,3,0,30,30,25,,,,,,,,,-0.33194444444444443,0.11944444444444445,1,0,0,5.159408400009852,call2,-0.05138888888888889,-0.09398148148148149,1,0,0,6.020512100018095,colour3,0.4236111111111111,0.06527777777777778,1,0,0,6.807452799985185,number2,True,True,True,20,5,2019_Nov_14_1601,MA_Theta_Exp,3.0.7,59.97343176291655,
video/Experiment/zh_sp01_Dr_Gr_2_GlobalTheta_NoVideo.avi,globalTheta,noVideo,sp01,Dr,Gr,2,3,5,flow/blocks/GlobalTheta_NoVideo_A.csv,,,,,,,,,0,3,3,3,0,31,31,21,,,,,,,,,-0.3736111111111111,0.125,1,0,0,5.7338304000440985,call2,-0.006944444444444444,0.1388888888888889,1,0,0,6.583002800005488,colour2,0.44027777777777777,0.11527777777777778,1,0,0,7.567293400003109,number2,True,True,True,20,5,2019_Nov_14_1601,MA_Theta_Exp,3.0.7,59.97343176291655,
video/Experiment/zh_sp01_Dr_Gr_4_NVocInAudio_GlobalThetaInVideo.avi,vocoded,plusVideo,sp01,Dr,Gr,4,4,1,flow/blocks/NVocInAudio_GlobalThetaInVideo_A.csv,,,,,,,,,0,4,4,4,0,0,0,23,,,,,,,,,-0.38333333333333336,0.07916666666666666,1,0,0,5.223613200010732,call2,-0.005555555555555556,0.14583333333333334,1,0,0,6.107075100007933,colour2,0.38472222222222224,-0.32314814814814813,1,0,0,6.823864699981641,number4,True,True,True,20,5,2019_Nov_14_1601,MA_Theta_Exp,3.0.7,59.97343176291655,
video/Experiment/zh_sp01_Ad_We_2_NVocInAudio_GlobalThetaInVideo.avi,vocoded,plusVideo,sp01,Ad,We,2,4,1,flow/blocks/NVocInAudio_GlobalThetaInVideo_A.csv,,,,,,,,,0,4,4,4,0,1,1,13,,,,,,,,,-0.35138888888888886,0.33611111111111114,1,0,0,5.37669669999741,call1,0.03194444444444444,-0.3537037037037037,1,0,0,6.4907662000041455,colour4,0.3958333333333333,0.0625,1,0,0,7.276679400005378,number2,True,True,True,20,5,2019_Nov_14_1601,MA_Theta_Exp,3.0.7,59.97343176291655,
video/Experiment/zh_sp01_Dr_Ro_3_NVocInAudio_GlobalThetaInVideo.avi,vocoded,plusVideo,sp01,Dr,Ro,3,4,1,flow/blocks/NVocInAudio_GlobalThetaInVideo_A.csv,,,,,,,,,0,4,4,4,0,2,2,26,,,,,,,,,-0.36666666666666664,0.0875,1,0,0,5.04039899999043,call2,-0.015277777777777777,-0.08009259259259259,1,0,0,5.806671400030609,colour3,0.3763888888888889,-0.12453703703703704,1,0,0,6.54500400001416,number3,True,True,True,20,5,2019_Nov_14_1601,MA_Theta_Exp,3.0.7,59.97343176291655,
video/Experiment/zh_sp01_Ad_We_4_NVocInAudio_GlobalThetaInVideo.avi,vocoded,plusVideo,sp01,Ad,We,4,4,1,flow/blocks/NVocInAudio_GlobalThetaInVideo_A.csv,,,,,,,,,0,4,4,4,0,3,3,15,,,,,,,,,-0.3972222222222222,0.3138888888888889,1,0,0,4.939414600026794,call1,0.04583333333333333,-0.29398148148148145,1,0,0,6.125714499969035,colour4,0.44722222222222224,-0.32222222222222224,1,0,0,6.939139099966269,number4,True,True,True,20,5,2019_Nov_14_1601,MA_Theta_Exp,3.0.7,59.97343176291655,
video/Experiment/zh_sp01_Dr_Ge_1_NVocInAudio_GlobalThetaInVideo.avi,vocoded,plusVideo,sp01,Dr,Ge,1,4,1,flow/blocks/NVocInAudio_GlobalThetaInVideo_A.csv,,,,,,,,,0,4,4,4,0,4,4,16,,,,,,,,,-0.41805555555555557,0.11388888888888889,1,0,0,5.141701799992006,call2,-0.05555555555555555,0.30416666666666664,1,0,0,6.157495899999049,colour1,0.35833333333333334,0.32222222222222224,1,0,0,6.946793399984017,number1,True,True,True,20,5,2019_Nov_14_1601,MA_Theta_Exp,3.0.7,59.97343176291655,
video/Experiment/zh_sp07_Ad_Gr_1_NVocInAudio_GlobalThetaInVideo.avi,vocoded,plusVideo,sp07,Ad,Gr,1,4,1,flow/blocks/NVocInAudio_GlobalThetaInVideo_A.csv,,,,,,,,,0,4,4,4,0,5,5,4,,,,,,,,,-0.4375,0.2847222222222222,1,0,0,4.413158199982718,call1,-0.075,0.13240740740740742,1,0,0,5.286016000027303,colour2,0.35,0.26805555555555555,1,0,0,5.929005899990443,number1,True,True,True,20,5,2019_Nov_14_1601,MA_Theta_Exp,3.0.7,59.97343176291655,
video/Experiment/zh_sp01_Ad_We_3_NVocInAudio_GlobalThetaInVideo.avi,vocoded,plusVideo,sp01,Ad,We,3,4,1,flow/blocks/NVocInAudio_GlobalThetaInVideo_A.csv,,,,,,,,,0,4,4,4,0,6,6,14,,,,,,,,,-0.37222222222222223,0.3236111111111111,1,0,0,5.233895400015172,call1,-0.025,-0.2953703703703704,1,0,0,6.21690389997093,colour4,0.4222222222222222,-0.11944444444444445,1,0,0,7.099805300007574,number3,True,True,True,20,5,2019_Nov_14_1601,MA_Theta_Exp,3.0.7,59.97343176291655,
video/Experiment/zh_sp07_Ad_We_1_NVocInAudio_GlobalThetaInVideo.avi,vocoded,plusVideo,sp07,Ad,We,1,4,1,flow/blocks/NVocInAudio_GlobalThetaInVideo_A.csv,,,,,,,,,0,4,4,4,0,7,7,12,,,,,,,,,-0.3680555555555556,0.25277777777777777,1,0,0,4.757520699989982,call1,0.07222222222222222,-0.3263888888888889,1,0,0,6.738250199996401,colour4,0.3638888888888889,0.24305555555555555,1,0,0,7.6261637000134215,number1,True,True,True,20,5,2019_Nov_14_1601,MA_Theta_Exp,3.0.7,59.97343176291655,
video/Experiment/zh_sp01_Ad_Ge_2_NVocInAudio_GlobalThetaInVideo.avi,vocoded,plusVideo,sp01,Ad,Ge,2,4,1,flow/blocks/NVocInAudio_GlobalThetaInVideo_A.csv,,,,,,,,,0,4,4,4,0,8,8,1,,,,,,,,,-0.33194444444444443,0.2625,1,0,0,5.238928300037514,call1,0.04722222222222222,0.2824074074074074,1,0,0,6.250976099981926,colour1,0.4027777777777778,0.07407407407407407,1,0,0,7.100105700024869,number2,True,True,True,20,5,2019_Nov_14_1601,MA_Theta_Exp,3.0.7,59.97343176291655,
video/Experiment/zh_sp01_Dr_We_4_NVocInAudio_GlobalThetaInVideo.avi,vocoded,plusVideo,sp01,Dr,We,4,4,1,flow/blocks/NVocInAudio_GlobalThetaInVideo_A.csv,,,,,,,,,0,4,4,4,0,9,9,31,,,,,,,,,-0.4,0.09722222222222222,1,0,0,5.118730899994262,call2,-0.04583333333333333,-0.3162037037037037,1,0,0,6.082988899957854,colour4,0.45416666666666666,-0.32175925925925924,1,0,0,6.9071863000281155,number4,True,True,True,20,5,2019_Nov_14_1601,MA_Theta_Exp,3.0.7,59.97343176291655,
video/Experiment/zh_sp01_Ad_Gr_2_NVocInAudio_GlobalThetaInVideo.avi,vocoded,plusVideo,sp01,Ad,Gr,2,4,1,flow/blocks/NVocInAudio_GlobalThetaInVideo_A.csv,,,,,,,,,0,4,4,4,0,10,10,5,,,,,,,,,-0.42083333333333334,0.28055555555555556,1,0,0,5.069571400003042,call1,0.022222222222222223,0.08935185185185185,1,0,0,6.1138399000046775,colour2,0.39166666666666666,0.10138888888888889,1,0,0,6.712201999966055,number2,True,True,True,20,5,2019_Nov_14_1601,MA_Theta_Exp,3.0.7,59.97343176291655,
video/Experiment/zh_sp07_Ad_Gr_3_NVocInAudio_GlobalThetaInVideo.avi,vocoded,plusVideo,sp07,Ad,Gr,3,4,1,flow/blocks/NVocInAudio_GlobalThetaInVideo_A.csv,,,,,,,,,0,4,4,4,0,11,11,6,,,,,,,,,-0.3486111111111111,0.2902777777777778,1,0,0,4.747005000011995,call1,0.02638888888888889,0.11990740740740741,1,0,0,6.32383700000355,colour2,0.4444444444444444,-0.1398148148148148,1,0,0,7.161609500006307,number3,True,True,True,20,5,2019_Nov_14_1601,MA_Theta_Exp,3.0.7,59.97343176291655,
video/Experiment/zh_sp07_Dr_Gr_3_NVocInAudio_GlobalThetaInVideo.avi,vocoded,plusVideo,sp07,Dr,Gr,3,4,1,flow/blocks/NVocInAudio_GlobalThetaInVideo_A.csv,,,,,,,,,0,4,4,4,0,12,12,22,,,,,,,,,-0.425,0.1111111111111111,1,0,0,4.550800899975002,call2,-0.06666666666666667,0.15416666666666667,1,0,0,5.5553567000315525,colour2,0.44722222222222224,-0.07175925925925926,1,0,0,6.3345616000005975,number3,True,True,True,20,5,2019_Nov_14_1601,MA_Theta_Exp,3.0.7,59.97343176291655,
video/Experiment/zh_sp01_Dr_Ge_2_NVocInAudio_GlobalThetaInVideo.avi,vocoded,plusVideo,sp01,Dr,Ge,2,4,1,flow/blocks/NVocInAudio_GlobalThetaInVideo_A.csv,,,,,,,,,0,4,4,4,0,13,13,17,,,,,,,,,-0.34444444444444444,0.08611111111111111,1,0,0,5.479600400023628,call2,-0.06388888888888888,0.29444444444444445,1,0,0,6.452547399967443,colour1,0.35694444444444445,0.08101851851851852,1,0,0,7.338522000005469,number2,True,True,True,20,5,2019_Nov_14_1601,MA_Theta_Exp,3.0.7,59.97343176291655,
video/Experiment/zh_sp01_Dr_We_2_NVocInAudio_GlobalThetaInVideo.avi,vocoded,plusVideo,sp01,Dr,We,2,4,1,flow/blocks/NVocInAudio_GlobalThetaInVideo_A.csv,,,,,,,,,0,4,4,4,0,14,14,29,,,,,,,,,-0.4263888888888889,0.09166666666666666,1,0,0,5.174085600010585,call2,0.013888888888888888,-0.3037037037037037,1,0,0,6.207549000042491,colour4,0.4625,0.1125,1,0,0,7.0897976999985985,number2,True,True,True,20,5,2019_Nov_14_1601,MA_Theta_Exp,3.0.7,59.97343176291655,
video/Experiment/zh_sp07_Ad_Ge_3_NVocInAudio_GlobalThetaInVideo.avi,vocoded,plusVideo,sp07,Ad,Ge,3,4,1,flow/blocks/NVocInAudio_GlobalThetaInVideo_A.csv,,,,,,,,,0,4,4,4,0,15,15,2,,,,,,,,,-0.3375,0.28055555555555556,1,0,0,4.55872020003153,call1,-0.03888888888888889,0.2916666666666667,1,0,0,5.289958799956366,colour1,0.37083333333333335,-0.09259259259259259,1,0,0,6.193753200001083,number3,True,True,True,20,5,2019_Nov_14_1601,MA_Theta_Exp,3.0.7,59.97343176291655,
video/Experiment/zh_sp07_Dr_Ro_1_NVocInAudio_GlobalThetaInVideo.avi,vocoded,plusVideo,sp07,Dr,Ro,1,4,1,flow/blocks/NVocInAudio_GlobalThetaInVideo_A.csv,,,,,,,,,0,4,4,4,0,16,16,24,,,,,,,,,-0.44027777777777777,0.08611111111111111,1,0,0,4.3664490999653935,call2,0.04027777777777778,-0.13564814814814816,1,0,0,5.365558199991938,colour3,0.4722222222222222,0.3055555555555556,1,0,0,6.349689700000454,number1,True,True,True,20,5,2019_Nov_14_1601,MA_Theta_Exp,3.0.7,59.97343176291655,
video/Experiment/zh_sp01_Dr_Gr_1_NVocInAudio_GlobalThetaInVideo.avi,vocoded,plusVideo,sp01,Dr,Gr,1,4,1,flow/blocks/NVocInAudio_GlobalThetaInVideo_A.csv,,,,,,,,,0,4,4,4,0,17,17,20,,,,,,,,,-0.39166666666666666,0.11018518518518519,1,0,0,5.7629749000188895,call2,-0.006944444444444444,0.09722222222222222,1,0,0,6.56870980001986,colour2,0.41805555555555557,0.30324074074074076,1,0,0,7.774090999970213,number1,True,True,True,20,5,2019_Nov_14_1601,MA_Theta_Exp,3.0.7,59.97343176291655,
video/Experiment/zh_sp07_Dr_We_3_NVocInAudio_GlobalThetaInVideo.avi,vocoded,plusVideo,sp07,Dr,We,3,4,1,flow/blocks/NVocInAudio_GlobalThetaInVideo_A.csv,,,,,,,,,0,4,4,4,0,18,18,30,,,,,,,,,-0.37222222222222223,0.12083333333333333,1,0,0,4.6716582000372,call2,0.029166666666666667,-0.3037037037037037,1,0,0,5.6509086000151,colour4,0.4236111111111111,-0.125,1,0,0,6.554099200002383,number3,True,True,True,20,5,2019_Nov_14_1601,MA_Theta_Exp,3.0.7,59.97343176291655,
video/Experiment/zh_sp07_Ad_Ge_1_NVocInAudio_GlobalThetaInVideo.avi,vocoded,plusVideo,sp07,Ad,Ge,1,4,1,flow/blocks/NVocInAudio_GlobalThetaInVideo_A.csv,,,,,,,,,0,4,4,4,0,19,19,0,,,,,,,,,-0.44027777777777777,0.29305555555555557,1,0,0,4.5139724999899045,call1,-0.030555555555555555,0.3638888888888889,1,0,0,5.3296184000209905,colour1,0.44166666666666665,0.35833333333333334,1,0,0,6.023663599975407,number1,True,True,True,20,5,2019_Nov_14_1601,MA_Theta_Exp,3.0.7,59.97343176291655,
video/Experiment/zh_sp01_Dr_Gr_2_NVocInAudio_GlobalThetaInVideo.avi,vocoded,plusVideo,sp01,Dr,Gr,2,4,1,flow/blocks/NVocInAudio_GlobalThetaInVideo_A.csv,,,,,,,,,0,4,4,4,0,20,20,21,,,,,,,,,-0.37777777777777777,0.11805555555555555,1,0,0,5.166152400022838,call2,-0.04027777777777778,0.12916666666666668,1,0,0,5.947394599963445,colour2,0.4111111111111111,0.14305555555555555,1,0,0,6.730890200007707,number2,True,True,True,20,5,2019_Nov_14_1601,MA_Theta_Exp,3.0.7,59.97343176291655,
video/Experiment/zh_sp01_Dr_Ro_2_NVocInAudio_GlobalThetaInVideo.avi,vocoded,plusVideo,sp01,Dr,Ro,2,4,1,flow/blocks/NVocInAudio_GlobalThetaInVideo_A.csv,,,,,,,,,0,4,4,4,0,21,21,25,,,,,,,,,-0.44305555555555554,0.10972222222222222,1,0,0,5.3160940000088885,call2,0.030555555555555555,-0.13703703703703704,1,0,0,6.434481899952516,colour3,0.4305555555555556,0.06388888888888888,1,0,0,7.362844999996014,number2,True,True,True,20,5,2019_Nov_14_1601,MA_Theta_Exp,3.0.7,59.97343176291655,
video/Experiment/zh_sp07_Ad_Ro_2_NVocInAudio_GlobalThetaInVideo.avi,vocoded,plusVideo,sp07,Ad,Ro,2,4,1,flow/blocks/NVocInAudio_GlobalThetaInVideo_A.csv,,,,,,,,,0,4,4,4,0,22,22,9,,,,,,,,,-0.3875,0.3560185185185185,1,0,0,4.431998899963219,call1,0.005555555555555556,-0.12638888888888888,1,0,0,5.5356835999991745,colour3,0.38055555555555554,0.09027777777777778,1,0,0,6.353675099962857,number2,True,True,True,20,5,2019_Nov_14_1601,MA_Theta_Exp,3.0.7,59.97343176291655,
video/Experiment/zh_sp01_Ad_Ge_4_NVocInAudio_GlobalThetaInVideo.avi,vocoded,plusVideo,sp01,Ad,Ge,4,4,1,flow/blocks/NVocInAudio_GlobalThetaInVideo_A.csv,,,,,,,,,0,4,4,4,0,23,23,3,,,,,,,,,-0.4,0.3351851851851852,1,0,0,5.246410299965646,call1,0.009722222222222222,0.3194444444444444,1,0,0,6.48128170002019,colour1,0.41944444444444445,-0.2912037037037037,1,0,0,7.401774999976624,number4,True,True,True,20,5,2019_Nov_14_1601,MA_Theta_Exp,3.0.7,59.97343176291655,
video/Experiment/zh_sp07_Dr_Ge_3_NVocInAudio_GlobalThetaInVideo.avi,vocoded,plusVideo,sp07,Dr,Ge,3,4,1,flow/blocks/NVocInAudio_GlobalThetaInVideo_A.csv,,,,,,,,,0,4,4,4,0,24,24,18,,,,,,,,,-0.425,0.08333333333333333,1,0,0,4.5231076999916695,call2,0.002777777777777778,0.2861111111111111,1,0,0,5.350660099997185,colour1,0.41944444444444445,-0.12731481481481483,1,0,0,6.317667000053916,number3,True,True,True,20,5,2019_Nov_14_1601,MA_Theta_Exp,3.0.7,59.97343176291655,
video/Experiment/zh_sp07_Ad_Ro_1_NVocInAudio_GlobalThetaInVideo.avi,vocoded,plusVideo,sp07,Ad,Ro,1,4,1,flow/blocks/NVocInAudio_GlobalThetaInVideo_A.csv,,,,,,,,,0,4,4,4,0,25,25,8,,,,,,,,,-0.3625,0.2708333333333333,1,0,0,4.433524899999611,call1,0.019444444444444445,-0.04537037037037037,1,0,0,5.416284599981736,colour3,0.4027777777777778,0.3194444444444444,1,0,0,6.332479999982752,number1,True,True,True,20,5,2019_Nov_14_1601,MA_Theta_Exp,3.0.7,59.97343176291655,
video/Experiment/zh_sp07_Dr_Ge_4_NVocInAudio_GlobalThetaInVideo.avi,vocoded,plusVideo,sp07,Dr,Ge,4,4,1,flow/blocks/NVocInAudio_GlobalThetaInVideo_A.csv,,,,,,,,,0,4,4,4,0,26,26,19,,,,,,,,,-0.46805555555555556,0.10694444444444444,1,0,0,4.914252199989278,call2,-0.04861111111111111,0.3333333333333333,1,0,0,5.791944600001443,colour1,0.38333333333333336,-0.33425925925925926,1,0,0,6.759849100024439,number4,True,True,True,20,5,2019_Nov_14_1601,MA_Theta_Exp,3.0.7,59.97343176291655,
video/Experiment/zh_sp07_Ad_Ro_3_NVocInAudio_GlobalThetaInVideo.avi,vocoded,plusVideo,sp07,Ad,Ro,3,4,1,flow/blocks/NVocInAudio_GlobalThetaInVideo_A.csv,,,,,,,,,0,4,4,4,0,27,27,10,,,,,,,,,-0.4166666666666667,0.26944444444444443,1,0,0,4.494651500019245,call1,-0.008333333333333333,-0.12175925925925926,1,0,0,5.628007200022694,colour3,0.375,-0.11666666666666667,1,0,0,6.463048100005835,number3,True,True,True,20,5,2019_Nov_14_1601,MA_Theta_Exp,3.0.7,59.97343176291655,
video/Experiment/zh_sp07_Dr_We_1_NVocInAudio_GlobalThetaInVideo.avi,vocoded,plusVideo,sp07,Dr,We,1,4,1,flow/blocks/NVocInAudio_GlobalThetaInVideo_A.csv,,,,,,,,,0,4,4,4,0,28,28,28,,,,,,,,,-0.40694444444444444,0.16296296296296298,1,0,0,4.77746259997366,call2,0.020833333333333332,-0.3050925925925926,1,0,0,5.718759900017176,colour4,0.39861111111111114,0.2791666666666667,1,0,0,6.516423199966084,number1,True,True,True,20,5,2019_Nov_14_1601,MA_Theta_Exp,3.0.7,59.97343176291655,
video/Experiment/zh_sp07_Ad_Ro_4_NVocInAudio_GlobalThetaInVideo.avi,vocoded,plusVideo,sp07,Ad,Ro,4,4,1,flow/blocks/NVocInAudio_GlobalThetaInVideo_A.csv,,,,,,,,,0,4,4,4,0,29,29,11,,,,,,,,,-0.34444444444444444,0.325,1,0,0,4.7088463000254706,call1,0.006944444444444444,-0.09259259259259259,1,0,0,5.609663699986413,colour3,0.42083333333333334,-0.34675925925925927,1,0,0,7.071267399995122,number4,True,True,True,20,5,2019_Nov_14_1601,MA_Theta_Exp,3.0.7,59.97343176291655,
video/Experiment/zh_sp01_Ad_Gr_4_NVocInAudio_GlobalThetaInVideo.avi,vocoded,plusVideo,sp01,Ad,Gr,4,4,1,flow/blocks/NVocInAudio_GlobalThetaInVideo_A.csv,,,,,,,,,0,4,4,4,0,30,30,7,,,,,,,,,-0.3375,0.25,1,0,0,5.316451299993787,call1,0.05416666666666667,0.11157407407407408,1,0,0,6.308363499992993,colour2,0.40694444444444444,-0.30092592592592593,1,0,0,7.201681100006681,number4,True,True,True,20,5,2019_Nov_14_1601,MA_Theta_Exp,3.0.7,59.97343176291655,
video/Experiment/zh_sp07_Dr_Ro_4_NVocInAudio_GlobalThetaInVideo.avi,vocoded,plusVideo,sp07,Dr,Ro,4,4,1,flow/blocks/NVocInAudio_GlobalThetaInVideo_A.csv,,,,,,,,,0,4,4,4,0,31,31,27,,,,,,,,,-0.39444444444444443,0.10972222222222222,1,0,0,4.618115299963392,call2,-0.03333333333333333,-0.09814814814814815,1,0,0,5.409474499989301,colour3,0.40694444444444444,-0.32731481481481484,1,0,0,6.250706399965566,number4,True,True,True,20,5,2019_Nov_14_1601,MA_Theta_Exp,3.0.7,59.97343176291655,
video/Experiment/zh_sp01_Ti_Ro_1_NoThetaInAudio_NoVideo.avi,noTheta,noVideo,sp01,Ti,Ro,1,0,4,flow/blocks/NoThetaInAudio_NoVideo_B.csv,,,,,,,,,,,,,,,,,0,0,0,0,0,0,0,8,-0.4097222222222222,-0.1527777777777778,1,0,0,5.303538499982096,call3,0.030555555555555555,-0.1597222222222222,1,0,0,6.136955800000578,colour3,0.4305555555555556,0.30416666666666664,1,0,0,6.805699699965771,number1,True,True,True,20,5,2019_Nov_14_1601,MA_Theta_Exp,3.0.7,59.97343176291655,
video/Experiment/zh_sp07_Ti_We_2_NoThetaInAudio_NoVideo.avi,noTheta,noVideo,sp07,Ti,We,2,0,4,flow/blocks/NoThetaInAudio_NoVideo_B.csv,,,,,,,,,,,,,,,,,0,0,0,0,0,1,1,13,-0.4388888888888889,-0.1388888888888889,1,0,0,4.50962750002509,call3,-0.002777777777777778,-0.3300925925925926,1,0,0,5.17183509998722,colour4,0.3541666666666667,0.0625,1,0,0,5.724055800004862,number2,True,True,True,20,5,2019_Nov_14_1601,MA_Theta_Exp,3.0.7,59.97343176291655,
video/Experiment/zh_sp01_Un_We_4_NoThetaInAudio_NoVideo.avi,noTheta,noVideo,sp01,Un,We,4,0,4,flow/blocks/NoThetaInAudio_NoVideo_B.csv,,,,,,,,,,,,,,,,,0,0,0,0,0,2,2,31,-0.3888888888888889,-0.3472222222222222,1,0,0,4.91264360002242,call4,0.015277777777777777,-0.3662037037037037,1,0,0,5.611088900011964,colour4,0.4111111111111111,-0.3277777777777778,1,0,0,6.262547299964353,number4,True,True,True,20,5,2019_Nov_14_1601,MA_Theta_Exp,3.0.7,59.97343176291655,
video/Experiment/zh_sp01_Un_Ge_3_NoThetaInAudio_NoVideo.avi,noTheta,noVideo,sp01,Un,Ge,3,0,4,flow/blocks/NoThetaInAudio_NoVideo_B.csv,,,,,,,,,,,,,,,,,0,0,0,0,0,3,3,18,-0.42916666666666664,-0.30972222222222223,1,0,0,4.956776300037745,call4,0.03194444444444444,0.3199074074074074,1,0,0,5.86977539997315,colour1,0.4,-0.08981481481481482,1,0,0,6.486097799963318,number3,True,True,True,20,5,2019_Nov_14_1601,MA_Theta_Exp,3.0.7,59.97343176291655,
video/Experiment/zh_sp07_Un_We_2_NoThetaInAudio_NoVideo.avi,noTheta,noVideo,sp07,Un,We,2,0,4,flow/blocks/NoThetaInAudio_NoVideo_B.csv,,,,,,,,,,,,,,,,,0,0,0,0,0,4,4,29,-0.37777777777777777,-0.28194444444444444,1,0,0,4.473729999968782,call4,-0.022222222222222223,-0.34305555555555556,1,0,0,5.268846600025427,colour4,0.4361111111111111,0.07361111111111111,1,0,0,6.098248399968725,number2,True,True,True,20,5,2019_Nov_14_1601,MA_Theta_Exp,3.0.7,59.97343176291655,
video/Experiment/zh_sp07_Ti_Ro_3_NoThetaInAudio_NoVideo.avi,noTheta,noVideo,sp07,Ti,Ro,3,0,4,flow/blocks/NoThetaInAudio_NoVideo_B.csv,,,,,,,,,,,,,,,,,0,0,0,0,0,5,5,10,-0.4263888888888889,-0.125,1,0,0,4.372391599987168,call3,0.001388888888888889,-0.16064814814814815,1,0,0,5.155161100032274,colour3,0.3972222222222222,-0.1527777777777778,1,0,0,5.82068080001045,number3,True,True,True,20,5,2019_Nov_14_1601,MA_Theta_Exp,3.0.7,59.97343176291655,
video/Experiment/zh_sp01_Un_Ro_4_NoThetaInAudio_NoVideo.avi,noTheta,noVideo,sp01,Un,Ro,4,0,4,flow/blocks/NoThetaInAudio_NoVideo_B.csv,,,,,,,,,,,,,,,,,0,0,0,0,0,6,6,27,-0.44027777777777777,-0.3023148148148148,1,0,0,5.022041699965484,call4,0.03611111111111111,-0.1625,1,0,0,6.019539300003089,colour3,0.4,-0.32592592592592595,1,0,0,6.768404900038149,number4,True,True,True,20,5,2019_Nov_14_1601,MA_Theta_Exp,3.0.7,59.97343176291655,
video/Experiment/zh_sp07_Un_Gr_4_NoThetaInAudio_NoVideo.avi,noTheta,noVideo,sp07,Un,Gr,4,0,4,flow/blocks/NoThetaInAudio_NoVideo_B.csv,,,,,,,,,,,,,,,,,0,0,0,0,0,7,7,23,-0.41805555555555557,-0.3050925925925926,1,0,0,5.803035499993712,call4,0.016666666666666666,-0.13055555555555556,1,0,0,6.469253799994476,colour3,0.3888888888888889,-0.3638888888888889,1,0,0,7.988383600022644,number4,True,False,True,20,5,2019_Nov_14_1601,MA_Theta_Exp,3.0.7,59.97343176291655,
video/Experiment/zh_sp07_Ti_We_4_NoThetaInAudio_NoVideo.avi,noTheta,noVideo,sp07,Ti,We,4,0,4,flow/blocks/NoThetaInAudio_NoVideo_B.csv,,,,,,,,,,,,,,,,,0,0,0,0,0,8,8,15,-0.44305555555555554,-0.1,1,0,0,4.476454299991019,call3,0.041666666666666664,-0.34444444444444444,1,0,0,5.2518020999850705,colour4,0.34444444444444444,-0.31527777777777777,1,0,0,6.17063040001085,number4,True,True,True,20,5,2019_Nov_14_1601,MA_Theta_Exp,3.0.7,59.97343176291655,
video/Experiment/zh_sp01_Ti_Ro_2_NoThetaInAudio_NoVideo.avi,noTheta,noVideo,sp01,Ti,Ro,2,0,4,flow/blocks/NoThetaInAudio_NoVideo_B.csv,,,,,,,,,,,,,,,,,0,0,0,0,0,9,9,9,-0.3458333333333333,-0.15138888888888888,1,0,0,5.174797800020315,call3,0.07222222222222222,-0.14027777777777778,1,0,0,6.00720149994595,colour3,0.5097222222222222,0.09444444444444444,1,0,0,6.8417346000205725,number2,True,True,True,20,5,2019_Nov_14_1601,MA_Theta_Exp,3.0.7,59.97343176291655,
video/Experiment/zh_sp01_Ti_Ge_2_NoThetaInAudio_NoVideo.avi,noTheta,noVideo,sp01,Ti,Ge,2,0,4,flow/blocks/NoThetaInAudio_NoVideo_B.csv,,,,,,,,,,,,,,,,,0,0,0,0,0,10,10,1,-0.3902777777777778,-0.17083333333333334,1,0,0,5.482235000003129,call3,-0.001388888888888889,0.30185185185185187,1,0,0,6.419154700008221,colour1,0.4111111111111111,0.05462962962962963,1,0,0,7.168814399978146,number2,True,True,True,20,5,2019_Nov_14_1601,MA_Theta_Exp,3.0.7,59.97343176291655,
video/Experiment/zh_sp07_Un_We_3_NoThetaInAudio_NoVideo.avi,noTheta,noVideo,sp07,Un,We,3,0,4,flow/blocks/NoThetaInAudio_NoVideo_B.csv,,,,,,,,,,,,,,,,,0,0,0,0,0,11,11,30,-0.39861111111111114,-0.28425925925925927,1,0,0,4.6523841000162065,call4,-0.0375,-0.3523148148148148,1,0,0,5.268218300014269,colour4,0.37916666666666665,-0.12222222222222222,1,0,0,6.053302100044675,number3,True,True,True,20,5,2019_Nov_14_1601,MA_Theta_Exp,3.0.7,59.97343176291655,
video/Experiment/zh_sp01_Ti_Gr_1_NoThetaInAudio_NoVideo.avi,noTheta,noVideo,sp01,Ti,Gr,1,0,4,flow/blocks/NoThetaInAudio_NoVideo_B.csv,,,,,,,,,,,,,,,,,0,0,0,0,0,12,12,4,-0.4027777777777778,-0.13148148148148148,1,0,0,5.360199400049169,call3,0.027777777777777776,0.08194444444444444,1,0,0,6.192506099992897,colour2,0.3541666666666667,0.3055555555555556,1,0,0,6.779856099979952,number1,True,True,True,20,5,2019_Nov_14_1601,MA_Theta_Exp,3.0.7,59.97343176291655,
video/Experiment/zh_sp01_Ti_We_3_NoThetaInAudio_NoVideo.avi,noTheta,noVideo,sp01,Ti,We,3,0,4,flow/blocks/NoThetaInAudio_NoVideo_B.csv,,,,,,,,,,,,,,,,,0,0,0,0,0,13,13,14,-0.4305555555555556,-0.09305555555555556,1,0,0,4.959304300020449,call3,-0.06388888888888888,-0.3384259259259259,1,0,0,5.976107899972703,colour4,0.4361111111111111,-0.12916666666666668,1,0,0,6.71521410002606,number3,True,True,True,20,5,2019_Nov_14_1601,MA_Theta_Exp,3.0.7,59.97343176291655,
video/Experiment/zh_sp07_Ti_Gr_4_NoThetaInAudio_NoVideo.avi,noTheta,noVideo,sp07,Ti,Gr,4,0,4,flow/blocks/NoThetaInAudio_NoVideo_B.csv,,,,,,,,,,,,,,,,,0,0,0,0,0,14,14,7,-0.39166666666666666,-0.1375,1,0,0,5.162261500023305,call3,-0.043055555555555555,0.05555555555555555,1,0,0,6.176551999989897,colour2,0.4444444444444444,-0.3384259259259259,1,0,0,7.063758600037545,number4,True,True,True,20,5,2019_Nov_14_1601,MA_Theta_Exp,3.0.7,59.97343176291655,
video/Experiment/zh_sp01_Ti_Ro_4_NoThetaInAudio_NoVideo.avi,noTheta,noVideo,sp01,Ti,Ro,4,0,4,flow/blocks/NoThetaInAudio_NoVideo_B.csv,,,,,,,,,,,,,,,,,0,0,0,0,0,15,15,11,-0.4236111111111111,-0.12222222222222222,1,0,0,5.327384400006849,call3,-0.06805555555555555,-0.12175925925925926,1,0,0,6.355139799998142,colour3,0.4027777777777778,-0.3300925925925926,1,0,0,7.104882100014947,number4,True,True,True,20,5,2019_Nov_14_1601,MA_Theta_Exp,3.0.7,59.97343176291655,
video/Experiment/zh_sp07_Un_Gr_2_NoThetaInAudio_NoVideo.avi,noTheta,noVideo,sp07,Un,Gr,2,0,4,flow/blocks/NoThetaInAudio_NoVideo_B.csv,,,,,,,,,,,,,,,,,0,0,0,0,0,16,16,21,-0.3541666666666667,-0.3527777777777778,1,0,0,4.665687099972274,call4,0.058333333333333334,0.06388888888888888,1,0,0,5.781309499987401,colour2,0.46805555555555556,0.1375,1,0,0,6.870497900003102,number2,True,True,True,20,5,2019_Nov_14_1601,MA_Theta_Exp,3.0.7,59.97343176291655,
video/Experiment/zh_sp07_Ti_Gr_2_NoThetaInAudio_NoVideo.avi,noTheta,noVideo,sp07,Ti,Gr,2,0,4,flow/blocks/NoThetaInAudio_NoVideo_B.csv,,,,,,,,,,,,,,,,,0,0,0,0,0,17,17,5,-0.4,-0.16527777777777777,1,0,0,4.470838200009894,call3,-0.08055555555555556,0.06805555555555555,1,0,0,5.368687699956354,colour2,0.4388888888888889,0.12407407407407407,1,0,0,6.2365153999999166,number2,True,True,True,20,5,2019_Nov_14_1601,MA_Theta_Exp,3.0.7,59.97343176291655,
video/Experiment/zh_sp01_Ti_Ge_4_NoThetaInAudio_NoVideo.avi,noTheta,noVideo,sp01,Ti,Ge,4,0,4,flow/blocks/NoThetaInAudio_NoVideo_B.csv,,,,,,,,,,,,,,,,,0,0,0,0,0,18,18,3,-0.3638888888888889,-0.12777777777777777,1,0,0,5.242244100023527,call3,-0.04583333333333333,0.24722222222222223,1,0,0,6.2081903999787755,colour1,0.3458333333333333,-0.3189814814814815,1,0,0,7.090615199995227,number4,True,True,True,20,5,2019_Nov_14_1601,MA_Theta_Exp,3.0.7,59.97343176291655,
video/Experiment/zh_sp01_Ti_We_1_NoThetaInAudio_NoVideo.avi,noTheta,noVideo,sp01,Ti,We,1,0,4,flow/blocks/NoThetaInAudio_NoVideo_B.csv,,,,,,,,,,,,,,,,,0,0,0,0,0,19,19,12,-0.37916666666666665,-0.17083333333333334,1,0,0,5.273071000003256,call3,0.015277777777777777,-0.3314814814814815,1,0,0,6.074025099980645,colour4,0.4222222222222222,0.32083333333333336,1,0,0,6.861428700038232,number1,True,True,True,20,5,2019_Nov_14_1601,MA_Theta_Exp,3.0.7,59.97343176291655,
video/Experiment/zh_sp07_Un_Ro_1_NoThetaInAudio_NoVideo.avi,noTheta,noVideo,sp07,Un,Ro,1,0,4,flow/blocks/NoThetaInAudio_NoVideo_B.csv,,,,,,,,,,,,,,,,,0,0,0,0,0,20,20,24,-0.3972222222222222,-0.29305555555555557,1,0,0,4.70002009999007,call4,-0.009722222222222222,-0.07083333333333333,1,0,0,5.494316299969796,colour3,0.37916666666666665,0.3597222222222222,1,0,0,6.431828400003724,number1,True,True,True,20,5,2019_Nov_14_1601,MA_Theta_Exp,3.0.7,59.97343176291655,
video/Experiment/zh_sp07_Un_Ge_2_NoThetaInAudio_NoVideo.avi,noTheta,noVideo,sp07,Un,Ge,2,0,4,flow/blocks/NoThetaInAudio_NoVideo_B.csv,,,,,,,,,,,,,,,,,0,0,0,0,0,21,21,17,-0.3680555555555556,-0.33425925925925926,1,0,0,4.424353400012478,call4,-0.06527777777777778,0.2986111111111111,1,0,0,5.437267899978906,colour1,0.3597222222222222,0.10324074074074074,1,0,0,6.347799099981785,number2,True,True,True,20,5,2019_Nov_14_1601,MA_Theta_Exp,3.0.7,59.97343176291655,
video/Experiment/zh_sp07_Un_Ro_3_NoThetaInAudio_NoVideo.avi,noTheta,noVideo,sp07,Un,Ro,3,0,4,flow/blocks/NoThetaInAudio_NoVideo_B.csv,,,,,,,,,,,,,,,,,0,0,0,0,0,22,22,26,-0.38055555555555554,-0.33425925925925926,1,0,0,4.339520299981814,call4,-0.006944444444444444,-0.09861111111111111,1,0,0,5.155002299987245,colour3,0.4027777777777778,-0.11527777777777778,1,0,0,5.9377454000059515,number3,True,True,True,20,5,2019_Nov_14_1601,MA_Theta_Exp,3.0.7,59.97343176291655,
video/Experiment/zh_sp01_Ti_Ge_3_NoThetaInAudio_NoVideo.avi,noTheta,noVideo,sp01,Ti,Ge,3,0,4,flow/blocks/NoThetaInAudio_NoVideo_B.csv,,,,,,,,,,,,,,,,,0,0,0,0,0,23,23,2,-0.37916666666666665,-0.07361111111111111,1,0,0,5.223177100007888,call3,-0.030555555555555555,0.28379629629629627,1,0,0,6.222858100023586,colour1,0.37222222222222223,-0.13055555555555556,1,0,0,7.171997900004499,number3,True,True,True,20,5,2019_Nov_14_1601,MA_Theta_Exp,3.0.7,59.97343176291655,
video/Experiment/zh_sp01_Un_Ge_1_NoThetaInAudio_NoVideo.avi,noTheta,noVideo,sp01,Un,Ge,1,0,4,flow/blocks/NoThetaInAudio_NoVideo_B.csv,,,,,,,,,,,,,,,,,0,0,0,0,0,24,24,16,-0.35555555555555557,-0.3611111111111111,1,0,0,5.209387100010645,call4,-0.015277777777777777,0.26805555555555555,1,0,0,6.209279200003948,colour1,0.38472222222222224,0.2972222222222222,1,0,0,7.017116800008807,number1,True,True,True,20,5,2019_Nov_14_1601,MA_Theta_Exp,3.0.7,59.97343176291655,
video/Experiment/zh_sp01_Un_Ro_2_NoThetaInAudio_NoVideo.avi,noTheta,noVideo,sp01,Un,Ro,2,0,4,flow/blocks/NoThetaInAudio_NoVideo_B.csv,,,,,,,,,,,,,,,,,0,0,0,0,0,25,25,25,-0.3527777777777778,-0.2828703703703704,1,0,0,5.434203099983279,call4,-0.04861111111111111,-0.07175925925925926,1,0,0,6.669118100020569,colour3,0.45694444444444443,0.10972222222222222,1,0,0,7.672060400014743,number2,True,True,True,20,5,2019_Nov_14_1601,MA_Theta_Exp,3.0.7,59.97343176291655,
video/Experiment/zh_sp01_Ti_Ge_1_NoThetaInAudio_NoVideo.avi,noTheta,noVideo,sp01,Ti,Ge,1,0,4,flow/blocks/NoThetaInAudio_NoVideo_B.csv,,,,,,,,,,,,,,,,,0,0,0,0,0,26,26,0,-0.44027777777777777,-0.11527777777777778,1,0,0,5.300265199970454,call3,-0.001388888888888889,0.275,1,0,0,6.195597799960524,colour1,0.38055555555555554,0.30694444444444446,1,0,0,6.948964699986391,number1,True,True,True,20,5,2019_Nov_14_1601,MA_Theta_Exp,3.0.7,59.97343176291655,
video/Experiment/zh_sp07_Un_Gr_1_NoThetaInAudio_NoVideo.avi,noTheta,noVideo,sp07,Un,Gr,1,0,4,flow/blocks/NoThetaInAudio_NoVideo_B.csv,,,,,,,,,,,,,,,,,0,0,0,0,0,27,27,20,-0.40555555555555556,-0.38425925925925924,1,0,0,4.58524220000254,call4,-0.030555555555555555,0.10555555555555556,1,0,0,5.646694800001569,colour2,0.38333333333333336,0.29444444444444445,1,0,0,6.647618599992711,number1,True,True,True,20,5,2019_Nov_14_1601,MA_Theta_Exp,3.0.7,59.97343176291655,
video/Experiment/zh_sp07_Un_We_1_NoThetaInAudio_NoVideo.avi,noTheta,noVideo,sp07,Un,We,1,0,4,flow/blocks/NoThetaInAudio_NoVideo_B.csv,,,,,,,,,,,,,,,,,0,0,0,0,0,28,28,28,-0.3819444444444444,-0.2773148148148148,1,0,0,4.543038399948273,call4,0.006944444444444444,-0.30833333333333335,1,0,0,5.3979202000191435,colour4,0.4083333333333333,0.2708333333333333,1,0,0,6.327773199998774,number1,True,True,True,20,5,2019_Nov_14_1601,MA_Theta_Exp,3.0.7,59.97343176291655,
video/Experiment/zh_sp07_Un_Gr_3_NoThetaInAudio_NoVideo.avi,noTheta,noVideo,sp07,Un,Gr,3,0,4,flow/blocks/NoThetaInAudio_NoVideo_B.csv,,,,,,,,,,,,,,,,,0,0,0,0,0,29,29,22,-0.4513888888888889,-0.30787037037037035,1,0,0,4.382888299995102,call4,-0.016666666666666666,0.15324074074074073,1,0,0,5.4659388000145555,colour2,0.3541666666666667,-0.055092592592592596,1,0,0,6.3323251999681816,number3,True,True,True,20,5,2019_Nov_14_1601,MA_Theta_Exp,3.0.7,59.97343176291655,
video/Experiment/zh_sp01_Ti_Gr_3_NoThetaInAudio_NoVideo.avi,noTheta,noVideo,sp01,Ti,Gr,3,0,4,flow/blocks/NoThetaInAudio_NoVideo_B.csv,,,,,,,,,,,,,,,,,0,0,0,0,0,30,30,6,-0.3416666666666667,-0.15555555555555556,1,0,0,5.18153689999599,call3,0.05138888888888889,0.10138888888888889,1,0,0,6.094695699983276,colour2,0.3458333333333333,-0.11342592592592593,1,0,0,7.118827700032853,number3,True,True,True,20,5,2019_Nov_14_1601,MA_Theta_Exp,3.0.7,59.97343176291655,
video/Experiment/zh_sp07_Un_Ge_4_NoThetaInAudio_NoVideo.avi,noTheta,noVideo,sp07,Un,Ge,4,0,4,flow/blocks/NoThetaInAudio_NoVideo_B.csv,,,,,,,,,,,,,,,,,0,0,0,0,0,31,31,19,-0.4152777777777778,-0.2861111111111111,1,0,0,4.463983399968129,call4,-0.0375,0.2861111111111111,1,0,0,5.486271600006148,colour1,0.37222222222222223,-0.3189814814814815,1,0,0,6.412722699984442,number4,True,True,True,20,5,2019_Nov_14_1601,MA_Theta_Exp,3.0.7,59.97343176291655,
