videoFile,condition,video,speaker,callSign,colour,number,seq,id,block,exp.thisRepN,exp.thisTrialN,exp.thisN,exp.thisIndex,training.thisRepN,training.thisTrialN,training.thisN,training.thisIndex,firstHalf.thisRepN,firstHalf.thisTrialN,firstHalf.thisN,firstHalf.thisIndex,blocksA.thisRepN,blocksA.thisTrialN,blocksA.thisN,blocksA.thisIndex,mouseClickOnCall.x,mouseClickOnCall.y,mouseClickOnCall.leftButton,mouseClickOnCall.midButton,mouseClickOnCall.rightButton,mouseClickOnCall.time,mouseClickOnCall.clicked_name,mouseClickOnColour.x,mouseClickOnColour.y,mouseClickOnColour.leftButton,mouseClickOnColour.midButton,mouseClickOnColour.rightButton,mouseClickOnColour.time,mouseClickOnColour.clicked_name,mouseClickOnNumber.x,mouseClickOnNumber.y,mouseClickOnNumber.leftButton,mouseClickOnNumber.midButton,mouseClickOnNumber.rightButton,mouseClickOnNumber.time,mouseClickOnNumber.clicked_name,callSignCorrect,colourCorrect,numberCorrect,participant,order,date,expName,psychopyVersion,frameRate,
video/Training/zh_sp01_Ad_We_4_NVocInAudio_NoVideo.avi,vocoded,noVideo,sp01,Ad,We,4,,,,,,,,0,0,0,0,,,,,,,,,-0.3972222222222222,0.2962962962962963,1,0,0,5.636262699961662,call1,0.011111111111111112,-0.3138888888888889,1,0,0,7.002678900025785,colour4,0.3763888888888889,-0.3106481481481482,1,0,0,7.674552100012079,number4,True,True,True,20,5,2019_Nov_14_1601,MA_Theta_Exp,3.0.7,59.97343176291655,
video/Training/zh_sp07_Ad_Ge_3_NVocInAudio_NoVideo.avi,vocoded,noVideo,sp07,Ad,Ge,3,,,,,,,,0,1,1,1,,,,,,,,,-0.3875,0.2833333333333333,1,0,0,5.284549599979073,call1,0.013888888888888888,0.2847222222222222,1,0,0,6.25156020000577,colour1,0.39861111111111114,-0.10694444444444444,1,0,0,7.566940799995791,number3,True,True,True,20,5,2019_Nov_14_1601,MA_Theta_Exp,3.0.7,59.97343176291655,
video/Training/zh_sp01_Dr_Ro_3_NVocInAudio_GlobalThetaInVideo.avi,vocoded,plusVideo,sp01,Dr,Ro,3,,,,,,,,0,2,2,2,,,,,,,,,-0.38333333333333336,0.07546296296296297,1,0,0,5.774118300003465,call2,0.013888888888888888,-0.07361111111111111,1,0,0,7.608496200002264,colour3,0.3888888888888889,-0.059722222222222225,1,0,0,8.420540100021753,number3,True,True,True,20,5,2019_Nov_14_1601,MA_Theta_Exp,3.0.7,59.97343176291655,
video/Training/zh_sp07_Dr_Gr_4_NVocInAudio_GlobalThetaInVideo.avi,vocoded,plusVideo,sp07,Dr,Gr,4,,,,,,,,0,3,3,3,,,,,,,,,-0.37083333333333335,0.14166666666666666,1,0,0,4.6718077000114135,call2,-0.044444444444444446,0.08657407407407407,1,0,0,5.262544299999718,colour2,0.36527777777777776,-0.2898148148148148,1,0,0,5.931202800013125,number4,True,True,True,20,5,2019_Nov_14_1601,MA_Theta_Exp,3.0.7,59.97343176291655,
video/Training/zh_sp01_Ti_Gr_2_NoThetaInAudio_NoVideo.avi,noTheta,noVideo,sp01,Ti,Gr,2,,,,,,,,0,4,4,4,,,,,,,,,-0.34444444444444444,0.3125,1,0,0,5.7597171000088565,call1,0.027777777777777776,-0.12037037037037036,1,0,0,7.808522699982859,colour3,0.3958333333333333,0.09166666666666666,1,0,0,8.460803799971472,number2,False,False,True,20,5,2019_Nov_14_1601,MA_Theta_Exp,3.0.7,59.97343176291655,
video/Training/zh_sp07_Ti_Ro_1_NoThetaInAudio_NoVideo.avi,noTheta,noVideo,sp07,Ti,Ro,1,,,,,,,,0,5,5,5,,,,,,,,,-0.36527777777777776,-0.1527777777777778,1,0,0,4.628187199996319,call3,-0.001388888888888889,-0.12037037037037036,1,0,0,5.375895900011528,colour3,0.375,0.30694444444444446,1,0,0,6.586507500032894,number1,True,True,True,20,5,2019_Nov_14_1601,MA_Theta_Exp,3.0.7,59.97343176291655,
video/Training/zh_sp01_Un_Ge_1_NoThetaInAudio_GlobalThetaInVideo.avi,noTheta,plusVideo,sp01,Un,Ge,1,,,,,,,,0,6,6,6,,,,,,,,,-0.38333333333333336,-0.32222222222222224,1,0,0,5.360673199989833,call4,-0.020833333333333332,0.2638888888888889,1,0,0,6.496122999989893,colour1,0.39305555555555555,0.31851851851851853,1,0,0,7.228936800034717,number1,True,True,True,20,5,2019_Nov_14_1601,MA_Theta_Exp,3.0.7,59.97343176291655,
video/Training/zh_sp07_Un_We_2_NoThetaInAudio_GlobalThetaInVideo.avi,noTheta,plusVideo,sp07,Un,We,2,,,,,,,,0,7,7,7,,,,,,,,,-0.38055555555555554,-0.325,1,0,0,4.582789300009608,call4,0.0375,-0.3425925925925926,1,0,0,5.497222499980126,colour4,0.39444444444444443,0.05694444444444444,1,0,0,6.38556049996987,number2,True,True,True,20,5,2019_Nov_14_1601,MA_Theta_Exp,3.0.7,59.97343176291655,
video/Training/zh_sp01_Ad_Ge_1_GlobalTheta_NoVideo.avi,globalTheta,noVideo,sp01,Ad,Ge,1,,,,,,,,0,8,8,8,,,,,,,,,-0.36944444444444446,0.2791666666666667,1,0,0,5.921399699989706,call1,-0.05694444444444444,0.25972222222222224,1,0,0,6.89061150001362,colour1,0.42777777777777776,0.2375,1,0,0,7.784890300012194,number1,True,True,True,20,5,2019_Nov_14_1601,MA_Theta_Exp,3.0.7,59.97343176291655,
video/Training/zh_sp07_Ad_Ro_3_GlobalTheta_NoVideo.avi,globalTheta,noVideo,sp07,Ad,Ro,3,,,,,,,,0,9,9,9,,,,,,,,,-0.4013888888888889,0.3597222222222222,1,0,0,4.558957900037058,call1,-0.04861111111111111,-0.29814814814814816,1,0,0,6.981399799988139,colour4,0.37777777777777777,-0.125,1,0,0,7.659445800003596,number3,True,False,True,20,5,2019_Nov_14_1601,MA_Theta_Exp,3.0.7,59.97343176291655,
video/Experiment/zh_sp07_Ad_Gr_1_NoThetaInAudio_NoVideo.avi,noTheta,noVideo,sp07,Ad,Gr,1,0,4,flow/blocks/NoThetaInAudio_NoVideo_A.csv,,,,,,,,,0,0,0,0,0,0,0,4,-0.3736111111111111,0.28055555555555556,1,0,0,4.804634000000078,call1,-0.008333333333333333,0.10046296296296296,1,0,0,5.685062200005632,colour2,0.42916666666666664,0.2861111111111111,1,0,0,6.518169000046328,number1,True,True,True,20,5,2019_Nov_14_1601,MA_Theta_Exp,3.0.7,59.97343176291655,
video/Experiment/zh_sp01_Ad_We_1_NoThetaInAudio_NoVideo.avi,noTheta,noVideo,sp01,Ad,We,1,0,4,flow/blocks/NoThetaInAudio_NoVideo_A.csv,,,,,,,,,0,0,0,0,0,1,1,12,-0.42916666666666664,0.2861111111111111,1,0,0,5.589136900031008,call1,0.015277777777777777,-0.3509259259259259,1,0,0,6.746655499970075,colour4,0.4152777777777778,0.26805555555555555,1,0,0,7.700935400032904,number1,True,True,True,20,5,2019_Nov_14_1601,MA_Theta_Exp,3.0.7,59.97343176291655,
video/Experiment/zh_sp07_Dr_Ge_1_NoThetaInAudio_NoVideo.avi,noTheta,noVideo,sp07,Dr,Ge,1,0,4,flow/blocks/NoThetaInAudio_NoVideo_A.csv,,,,,,,,,0,0,0,0,0,2,2,16,-0.3819444444444444,-0.3425925925925926,1,0,0,5.486696799984202,call4,0.04027777777777778,0.2916666666666667,1,0,0,6.834784799953923,colour1,0.3875,0.3138888888888889,1,0,0,7.617552000039723,number1,False,True,True,20,5,2019_Nov_14_1601,MA_Theta_Exp,3.0.7,59.97343176291655,
video/Experiment/zh_sp07_Dr_Gr_3_NoThetaInAudio_NoVideo.avi,noTheta,noVideo,sp07,Dr,Gr,3,0,4,flow/blocks/NoThetaInAudio_NoVideo_A.csv,,,,,,,,,0,0,0,0,0,3,3,22,-0.3888888888888889,0.13333333333333333,1,0,0,4.961076999956276,call2,0.034722222222222224,0.07685185185185185,1,0,0,5.95232570002554,colour2,0.3736111111111111,-0.13425925925925927,1,0,0,6.836618000001181,number3,True,True,True,20,5,2019_Nov_14_1601,MA_Theta_Exp,3.0.7,59.97343176291655,
video/Experiment/zh_sp01_Dr_Gr_4_NoThetaInAudio_NoVideo.avi,noTheta,noVideo,sp01,Dr,Gr,4,0,4,flow/blocks/NoThetaInAudio_NoVideo_A.csv,,,,,,,,,0,0,0,0,0,4,4,23,-0.43194444444444446,0.075,1,0,0,5.83526260004146,call2,0.027777777777777776,0.09351851851851851,1,0,0,7.501431700016838,colour2,0.4013888888888889,-0.3287037037037037,1,0,0,8.549162000010256,number4,True,True,True,20,5,2019_Nov_14_1601,MA_Theta_Exp,3.0.7,59.97343176291655,
video/Experiment/zh_sp01_Ad_We_2_NoThetaInAudio_NoVideo.avi,noTheta,noVideo,sp01,Ad,We,2,0,4,flow/blocks/NoThetaInAudio_NoVideo_A.csv,,,,,,,,,0,0,0,0,0,5,5,13,-0.3638888888888889,0.27361111111111114,1,0,0,5.476465200015809,call1,-0.008333333333333333,-0.3486111111111111,1,0,0,6.751251399982721,colour4,0.4152777777777778,0.09444444444444444,1,0,0,8.070265999995172,number2,True,True,True,20,5,2019_Nov_14_1601,MA_Theta_Exp,3.0.7,59.97343176291655,
video/Experiment/zh_sp07_Dr_Ro_1_NoThetaInAudio_NoVideo.avi,noTheta,noVideo,sp07,Dr,Ro,1,0,4,flow/blocks/NoThetaInAudio_NoVideo_A.csv,,,,,,,,,0,0,0,0,0,6,6,24,-0.4,0.06666666666666667,1,0,0,4.457829199964181,call2,0.013888888888888888,-0.15694444444444444,1,0,0,5.527800399984699,colour3,0.39166666666666666,0.30416666666666664,1,0,0,6.457395999983419,number1,True,True,True,20,5,2019_Nov_14_1601,MA_Theta_Exp,3.0.7,59.97343176291655,
video/Experiment/zh_sp01_Ad_We_3_NoThetaInAudio_NoVideo.avi,noTheta,noVideo,sp01,Ad,We,3,0,4,flow/blocks/NoThetaInAudio_NoVideo_A.csv,,,,,,,,,0,0,0,0,0,7,7,14,-0.4166666666666667,0.26944444444444443,1,0,0,5.248521199973766,call1,0.018055555555555554,-0.32037037037037036,1,0,0,6.281936299987137,colour4,0.41805555555555557,-0.07361111111111111,1,0,0,7.299107099999674,number3,True,True,True,20,5,2019_Nov_14_1601,MA_Theta_Exp,3.0.7,59.97343176291655,
video/Experiment/zh_sp07_Ad_Ge_4_NoThetaInAudio_NoVideo.avi,noTheta,noVideo,sp07,Ad,Ge,4,0,4,flow/blocks/NoThetaInAudio_NoVideo_A.csv,,,,,,,,,0,0,0,0,0,8,8,3,-0.4,0.32685185185185184,1,0,0,4.994758000015281,call1,-0.016666666666666666,0.2972222222222222,1,0,0,6.50831050000852,colour1,0.44166666666666665,-0.3453703703703704,1,0,0,7.776615300041158,number4,True,True,True,20,5,2019_Nov_14_1601,MA_Theta_Exp,3.0.7,59.97343176291655,
video/Experiment/zh_sp01_Ad_Ro_4_NoThetaInAudio_NoVideo.avi,noTheta,noVideo,sp01,Ad,Ro,4,0,4,flow/blocks/NoThetaInAudio_NoVideo_A.csv,,,,,,,,,0,0,0,0,0,9,9,11,-0.4111111111111111,0.3226851851851852,1,0,0,5.886632100038696,call1,0.013888888888888888,-0.06342592592592593,1,0,0,6.740092699998058,colour3,0.4263888888888889,-0.337037037037037,1,0,0,7.623032699979376,number4,True,True,True,20,5,2019_Nov_14_1601,MA_Theta_Exp,3.0.7,59.97343176291655,
video/Experiment/zh_sp07_Dr_We_4_NoThetaInAudio_NoVideo.avi,noTheta,noVideo,sp07,Dr,We,4,0,4,flow/blocks/NoThetaInAudio_NoVideo_A.csv,,,,,,,,,0,0,0,0,0,10,10,31,-0.4305555555555556,0.08055555555555556,1,0,0,6.358008900017012,call2,-0.015277777777777777,-0.37592592592592594,1,0,0,7.543377299967688,colour4,0.41805555555555557,-0.36342592592592593,1,0,0,8.132734000042547,number4,True,True,True,20,5,2019_Nov_14_1601,MA_Theta_Exp,3.0.7,59.97343176291655,
video/Experiment/zh_sp01_Ad_Gr_3_NoThetaInAudio_NoVideo.avi,noTheta,noVideo,sp01,Ad,Gr,3,0,4,flow/blocks/NoThetaInAudio_NoVideo_A.csv,,,,,,,,,0,0,0,0,0,11,11,6,-0.3680555555555556,0.2712962962962963,1,0,0,5.259652999986429,call1,-0.006944444444444444,0.11157407407407408,1,0,0,7.7761240000254475,colour2,0.45555555555555555,-0.1361111111111111,1,0,0,8.675724299973808,number3,True,True,True,20,5,2019_Nov_14_1601,MA_Theta_Exp,3.0.7,59.97343176291655,
video/Experiment/zh_sp01_Dr_We_2_NoThetaInAudio_NoVideo.avi,noTheta,noVideo,sp01,Dr,We,2,0,4,flow/blocks/NoThetaInAudio_NoVideo_A.csv,,,,,,,,,0,0,0,0,0,12,12,29,-0.39305555555555555,-0.35833333333333334,1,0,0,5.19303729996318,call4,0.022222222222222223,-0.2884259259259259,1,0,0,6.527117100020405,colour4,0.38055555555555554,0.09074074074074075,1,0,0,7.673262900032569,number2,False,True,True,20,5,2019_Nov_14_1601,MA_Theta_Exp,3.0.7,59.97343176291655,
video/Experiment/zh_sp07_Ad_Ge_1_NoThetaInAudio_NoVideo.avi,noTheta,noVideo,sp07,Ad,Ge,1,0,4,flow/blocks/NoThetaInAudio_NoVideo_A.csv,,,,,,,,,0,0,0,0,0,13,13,0,-0.3763888888888889,-0.32314814814814813,1,0,0,6.309885900001973,call4,0.011111111111111112,0.32083333333333336,1,0,0,7.445875399978831,colour1,0.4236111111111111,0.2847222222222222,1,0,0,8.14727060002042,number1,False,True,True,20,5,2019_Nov_14_1601,MA_Theta_Exp,3.0.7,59.97343176291655,
video/Experiment/zh_sp01_Dr_Ro_3_NoThetaInAudio_NoVideo.avi,noTheta,noVideo,sp01,Dr,Ro,3,0,4,flow/blocks/NoThetaInAudio_NoVideo_A.csv,,,,,,,,,0,0,0,0,0,14,14,26,-0.3902777777777778,-0.31527777777777777,1,0,0,5.076486799982376,call4,0.029166666666666667,-0.09583333333333334,1,0,0,6.378754000004847,colour3,0.425,-0.09814814814814815,1,0,0,7.262686399975792,number3,False,True,True,20,5,2019_Nov_14_1601,MA_Theta_Exp,3.0.7,59.97343176291655,
video/Experiment/zh_sp01_Ad_Ge_3_NoThetaInAudio_NoVideo.avi,noTheta,noVideo,sp01,Ad,Ge,3,0,4,flow/blocks/NoThetaInAudio_NoVideo_A.csv,,,,,,,,,0,0,0,0,0,15,15,2,-0.4083333333333333,0.2916666666666667,1,0,0,4.944260199961718,call1,0.058333333333333334,0.30416666666666664,1,0,0,6.254532499995548,colour1,0.4111111111111111,-0.1175925925925926,1,0,0,7.020790299982764,number3,True,True,True,20,5,2019_Nov_14_1601,MA_Theta_Exp,3.0.7,59.97343176291655,
video/Experiment/zh_sp07_Dr_Gr_1_NoThetaInAudio_NoVideo.avi,noTheta,noVideo,sp07,Dr,Gr,1,0,4,flow/blocks/NoThetaInAudio_NoVideo_A.csv,,,,,,,,,0,0,0,0,0,16,16,20,-0.4166666666666667,0.10555555555555556,1,0,0,4.679868199978955,call2,-0.04027777777777778,0.08657407407407407,1,0,0,5.512238800001796,colour2,0.4013888888888889,0.3638888888888889,1,0,0,6.196672899997793,number1,True,True,True,20,5,2019_Nov_14_1601,MA_Theta_Exp,3.0.7,59.97343176291655,
video/Experiment/zh_sp07_Ad_Ge_2_NoThetaInAudio_NoVideo.avi,noTheta,noVideo,sp07,Ad,Ge,2,0,4,flow/blocks/NoThetaInAudio_NoVideo_A.csv,,,,,,,,,0,0,0,0,0,17,17,1,-0.36666666666666664,0.2708333333333333,1,0,0,4.7746861999621615,call1,0.03611111111111111,0.25462962962962965,1,0,0,5.541008300031535,colour1,0.44722222222222224,0.07407407407407407,1,0,0,6.50804970000172,number2,True,True,True,20,5,2019_Nov_14_1601,MA_Theta_Exp,3.0.7,59.97343176291655,
video/Experiment/zh_sp07_Dr_Ge_2_NoThetaInAudio_NoVideo.avi,noTheta,noVideo,sp07,Dr,Ge,2,0,4,flow/blocks/NoThetaInAudio_NoVideo_A.csv,,,,,,,,,0,0,0,0,0,18,18,17,-0.38055555555555554,0.10833333333333334,1,0,0,4.900378999998793,call2,-0.004166666666666667,0.3013888888888889,1,0,0,5.6684920999687165,colour1,0.39166666666666666,0.11435185185185186,1,0,0,6.3887430999893695,number2,True,True,True,20,5,2019_Nov_14_1601,MA_Theta_Exp,3.0.7,59.97343176291655,
video/Experiment/zh_sp07_Ad_Ro_2_NoThetaInAudio_NoVideo.avi,noTheta,noVideo,sp07,Ad,Ro,2,0,4,flow/blocks/NoThetaInAudio_NoVideo_A.csv,,,,,,,,,0,0,0,0,0,19,19,9,-0.35833333333333334,0.2611111111111111,1,0,0,4.609427499992307,call1,0.0375,-0.1398148148148148,1,0,0,5.682036700018216,colour3,0.36666666666666664,0.11666666666666667,1,0,0,6.46496140002273,number2,True,True,True,20,5,2019_Nov_14_1601,MA_Theta_Exp,3.0.7,59.97343176291655,
video/Experiment/zh_sp01_Dr_We_1_NoThetaInAudio_NoVideo.avi,noTheta,noVideo,sp01,Dr,We,1,0,4,flow/blocks/NoThetaInAudio_NoVideo_A.csv,,,,,,,,,0,0,0,0,0,20,20,28,-0.3819444444444444,-0.33194444444444443,1,0,0,6.293919699965045,call4,-0.041666666666666664,-0.35509259259259257,1,0,0,7.175783600017894,colour4,0.3861111111111111,0.2833333333333333,1,0,0,8.793940500007011,number1,False,True,True,20,5,2019_Nov_14_1601,MA_Theta_Exp,3.0.7,59.97343176291655,
video/Experiment/zh_sp01_Dr_Ro_2_NoThetaInAudio_NoVideo.avi,noTheta,noVideo,sp01,Dr,Ro,2,0,4,flow/blocks/NoThetaInAudio_NoVideo_A.csv,,,,,,,,,0,0,0,0,0,21,21,25,-0.43472222222222223,-0.3486111111111111,1,0,0,5.784954999980982,call4,-0.020833333333333332,-0.11666666666666667,1,0,0,6.551053100032732,colour3,0.38472222222222224,0.030555555555555555,1,0,0,7.298723799991421,number2,False,True,True,20,5,2019_Nov_14_1601,MA_Theta_Exp,3.0.7,59.97343176291655,
video/Experiment/zh_sp07_Dr_Ge_4_NoThetaInAudio_NoVideo.avi,noTheta,noVideo,sp07,Dr,Ge,4,0,4,flow/blocks/NoThetaInAudio_NoVideo_A.csv,,,,,,,,,0,0,0,0,0,22,22,19,-0.325,-0.10787037037037037,1,0,0,5.651381300005596,call3,-0.05694444444444444,0.2462962962962963,1,0,0,7.010635899961926,colour1,0.38055555555555554,-0.31203703703703706,1,0,0,7.981292999989819,number4,False,True,True,20,5,2019_Nov_14_1601,MA_Theta_Exp,3.0.7,59.97343176291655,
video/Experiment/zh_sp07_Ad_Ro_1_NoThetaInAudio_NoVideo.avi,noTheta,noVideo,sp07,Ad,Ro,1,0,4,flow/blocks/NoThetaInAudio_NoVideo_A.csv,,,,,,,,,0,0,0,0,0,23,23,8,-0.3375,0.26666666666666666,1,0,0,4.2202706999960355,call1,0.0375,-0.09675925925925925,1,0,0,5.119493200036231,colour3,0.4375,0.28194444444444444,1,0,0,5.906827900034841,number1,True,True,True,20,5,2019_Nov_14_1601,MA_Theta_Exp,3.0.7,59.97343176291655,
video/Experiment/zh_sp07_Ad_Gr_2_NoThetaInAudio_NoVideo.avi,noTheta,noVideo,sp07,Ad,Gr,2,0,4,flow/blocks/NoThetaInAudio_NoVideo_A.csv,,,,,,,,,0,0,0,0,0,24,24,5,-0.4111111111111111,0.3236111111111111,1,0,0,4.728731599985622,call1,-0.006944444444444444,0.11712962962962963,1,0,0,5.71174440003233,colour2,0.4125,0.075,1,0,0,6.878853000001982,number2,True,True,True,20,5,2019_Nov_14_1601,MA_Theta_Exp,3.0.7,59.97343176291655,
video/Experiment/zh_sp01_Ad_Ro_3_NoThetaInAudio_NoVideo.avi,noTheta,noVideo,sp01,Ad,Ro,3,0,4,flow/blocks/NoThetaInAudio_NoVideo_A.csv,,,,,,,,,0,0,0,0,0,25,25,10,-0.3972222222222222,0.31574074074074077,1,0,0,5.408064899966121,call1,-0.019444444444444445,0.34305555555555556,1,0,0,6.464246599993203,colour1,0.36944444444444446,-0.10787037037037037,1,0,0,7.469616299960762,number3,True,False,True,20,5,2019_Nov_14_1601,MA_Theta_Exp,3.0.7,59.97343176291655,
video/Experiment/zh_sp01_Ad_We_4_NoThetaInAudio_NoVideo.avi,noTheta,noVideo,sp01,Ad,We,4,0,4,flow/blocks/NoThetaInAudio_NoVideo_A.csv,,,,,,,,,0,0,0,0,0,26,26,15,-0.3875,0.2625,1,0,0,5.238829799985979,call1,0.009722222222222222,-0.32592592592592595,1,0,0,6.383530699997209,colour4,0.4486111111111111,-0.3125,1,0,0,7.410729800001718,number4,True,True,True,20,5,2019_Nov_14_1601,MA_Theta_Exp,3.0.7,59.97343176291655,
video/Experiment/zh_sp07_Dr_Gr_2_NoThetaInAudio_NoVideo.avi,noTheta,noVideo,sp07,Dr,Gr,2,0,4,flow/blocks/NoThetaInAudio_NoVideo_A.csv,,,,,,,,,0,0,0,0,0,27,27,21,-0.375,-0.31527777777777777,1,0,0,6.382161199988332,call4,0.013888888888888888,-0.30648148148148147,1,0,0,7.098691000021063,colour4,0.3541666666666667,0.12083333333333333,1,0,0,7.954349000006914,number2,False,False,True,20,5,2019_Nov_14_1601,MA_Theta_Exp,3.0.7,59.97343176291655,
video/Experiment/zh_sp01_Dr_Ge_3_NoThetaInAudio_NoVideo.avi,noTheta,noVideo,sp01,Dr,Ge,3,0,4,flow/blocks/NoThetaInAudio_NoVideo_A.csv,,,,,,,,,0,0,0,0,0,28,28,18,-0.3861111111111111,-0.3106481481481482,1,0,0,5.644582399982028,call4,0.0625,0.32916666666666666,1,0,0,6.802805300045293,colour1,0.38472222222222224,-0.09398148148148149,1,0,0,7.676433500018902,number3,False,True,True,20,5,2019_Nov_14_1601,MA_Theta_Exp,3.0.7,59.97343176291655,
video/Experiment/zh_sp01_Dr_Ro_4_NoThetaInAudio_NoVideo.avi,noTheta,noVideo,sp01,Dr,Ro,4,0,4,flow/blocks/NoThetaInAudio_NoVideo_A.csv,,,,,,,,,0,0,0,0,0,29,29,27,-0.37222222222222223,-0.3300925925925926,1,0,0,6.31214120000368,call4,0.034722222222222224,0.30416666666666664,1,0,0,7.863390700018499,colour1,0.375,-0.3398148148148148,1,0,0,8.620778099983,number4,False,False,True,20,5,2019_Nov_14_1601,MA_Theta_Exp,3.0.7,59.97343176291655,
video/Experiment/zh_sp01_Dr_We_3_NoThetaInAudio_NoVideo.avi,noTheta,noVideo,sp01,Dr,We,3,0,4,flow/blocks/NoThetaInAudio_NoVideo_A.csv,,,,,,,,,0,0,0,0,0,30,30,30,-0.3486111111111111,0.0875,1,0,0,5.246796399995219,call2,0.0375,-0.337037037037037,1,0,0,6.558282399957534,colour4,0.4097222222222222,-0.13055555555555556,1,0,0,7.497363700007554,number3,True,True,True,20,5,2019_Nov_14_1601,MA_Theta_Exp,3.0.7,59.97343176291655,
video/Experiment/zh_sp07_Ad_Gr_4_NoThetaInAudio_NoVideo.avi,noTheta,noVideo,sp07,Ad,Gr,4,0,4,flow/blocks/NoThetaInAudio_NoVideo_A.csv,,,,,,,,,0,0,0,0,0,31,31,7,-0.4444444444444444,0.30833333333333335,1,0,0,4.414347200014163,call1,0.011111111111111112,0.12129629629629629,1,0,0,5.397011700028088,colour2,0.37222222222222223,-0.30092592592592593,1,0,0,6.379476699978113,number4,True,True,True,20,5,2019_Nov_14_1601,MA_Theta_Exp,3.0.7,59.97343176291655,
video/Experiment/zh_sp01_Dr_Gr_4_NVocInAudio_NoVideo.avi,vocoded,noVideo,sp01,Dr,Gr,4,1,2,flow/blocks/NVocInAudio_NoVideo_A.csv,,,,,,,,,0,1,1,1,0,0,0,23,-0.4236111111111111,0.0875,1,0,0,5.050332099955995,call2,0.019444444444444445,0.1449074074074074,1,0,0,6.065956300008111,colour2,0.3611111111111111,-0.3398148148148148,1,0,0,7.18648979999125,number4,True,True,True,20,5,2019_Nov_14_1601,MA_Theta_Exp,3.0.7,59.97343176291655,
video/Experiment/zh_sp01_Dr_We_3_NVocInAudio_NoVideo.avi,vocoded,noVideo,sp01,Dr,We,3,1,2,flow/blocks/NVocInAudio_NoVideo_A.csv,,,,,,,,,0,1,1,1,0,1,1,30,-0.43472222222222223,0.13333333333333333,1,0,0,4.922185899980832,call2,0.020833333333333332,-0.2662037037037037,1,0,0,6.006116600008681,colour4,0.4097222222222222,-0.09305555555555556,1,0,0,6.617819299979601,number3,True,True,True,20,5,2019_Nov_14_1601,MA_Theta_Exp,3.0.7,59.97343176291655,
video/Experiment/zh_sp01_Ad_Gr_3_NVocInAudio_NoVideo.avi,vocoded,noVideo,sp01,Ad,Gr,3,1,2,flow/blocks/NVocInAudio_NoVideo_A.csv,,,,,,,,,0,1,1,1,0,2,2,6,-0.38472222222222224,0.2652777777777778,1,0,0,5.361008600040805,call1,-0.025,0.10046296296296296,1,0,0,6.1496643999707885,colour2,0.375,-0.060648148148148145,1,0,0,6.7973922999808565,number3,True,True,True,20,5,2019_Nov_14_1601,MA_Theta_Exp,3.0.7,59.97343176291655,
video/Experiment/zh_sp07_Dr_Ge_4_NVocInAudio_NoVideo.avi,vocoded,noVideo,sp07,Dr,Ge,4,1,2,flow/blocks/NVocInAudio_NoVideo_A.csv,,,,,,,,,0,1,1,1,0,3,3,19,-0.3680555555555556,0.059722222222222225,1,0,0,4.424220299988519,call2,0.006944444444444444,0.28888888888888886,1,0,0,5.419136899989098,colour1,0.4236111111111111,-0.2773148148148148,1,0,0,6.1748114000074565,number4,True,True,True,20,5,2019_Nov_14_1601,MA_Theta_Exp,3.0.7,59.97343176291655,
video/Experiment/zh_sp07_Ad_Ro_1_NVocInAudio_NoVideo.avi,vocoded,noVideo,sp07,Ad,Ro,1,1,2,flow/blocks/NVocInAudio_NoVideo_A.csv,,,,,,,,,0,1,1,1,0,4,4,8,-0.3888888888888889,0.2611111111111111,1,0,0,4.424051600042731,call1,0.041666666666666664,-0.12453703703703704,1,0,0,5.293150699988473,colour3,0.4083333333333333,0.34305555555555556,1,0,0,6.0405756999971345,number1,True,True,True,20,5,2019_Nov_14_1601,MA_Theta_Exp,3.0.7,59.97343176291655,
video/Experiment/zh_sp01_Dr_We_4_NVocInAudio_NoVideo.avi,vocoded,noVideo,sp01,Dr,We,4,1,2,flow/blocks/NVocInAudio_NoVideo_A.csv,,,,,,,,,0,1,1,1,0,5,5,31,-0.4111111111111111,0.06666666666666667,1,0,0,5.112041400047019,call2,-0.025,-0.32314814814814813,1,0,0,6.009772899968084,colour4,0.37083333333333335,-0.32731481481481484,1,0,0,6.808242600003723,number4,True,True,True,20,5,2019_Nov_14_1601,MA_Theta_Exp,3.0.7,59.97343176291655,
video/Experiment/zh_sp07_Dr_Ge_2_NVocInAudio_NoVideo.avi,vocoded,noVideo,sp07,Dr,Ge,2,1,2,flow/blocks/NVocInAudio_NoVideo_A.csv,,,,,,,,,0,1,1,1,0,6,6,17,-0.36666666666666664,0.0625,1,0,0,4.77268469997216,call2,0.058333333333333334,0.33194444444444443,1,0,0,5.770918700029142,colour1,0.3875,0.06851851851851852,1,0,0,6.555489299993496,number2,True,True,True,20,5,2019_Nov_14_1601,MA_Theta_Exp,3.0.7,59.97343176291655,
video/Experiment/zh_sp07_Dr_Gr_1_NVocInAudio_NoVideo.avi,vocoded,noVideo,sp07,Dr,Gr,1,1,2,flow/blocks/NVocInAudio_NoVideo_A.csv,,,,,,,,,0,1,1,1,0,7,7,20,-0.43333333333333335,0.08888888888888889,1,0,0,4.51984290004475,call2,-0.044444444444444446,0.06851851851851852,1,0,0,5.151739399996586,colour2,0.4263888888888889,0.2763888888888889,1,0,0,6.000907799985725,number1,True,True,True,20,5,2019_Nov_14_1601,MA_Theta_Exp,3.0.7,59.97343176291655,
video/Experiment/zh_sp07_Ad_Ge_4_NVocInAudio_NoVideo.avi,vocoded,noVideo,sp07,Ad,Ge,4,1,2,flow/blocks/NVocInAudio_NoVideo_A.csv,,,,,,,,,0,1,1,1,0,8,8,3,-0.375,0.30972222222222223,1,0,0,4.636186500021722,call1,-0.04027777777777778,0.33194444444444443,1,0,0,5.5275913999648765,colour1,0.3527777777777778,-0.2912037037037037,1,0,0,6.412646799988579,number4,True,True,True,20,5,2019_Nov_14_1601,MA_Theta_Exp,3.0.7,59.97343176291655,
video/Experiment/zh_sp01_Ad_We_4_NVocInAudio_NoVideo.avi,vocoded,noVideo,sp01,Ad,We,4,1,2,flow/blocks/NVocInAudio_NoVideo_A.csv,,,,,,,,,0,1,1,1,0,9,9,15,-0.41944444444444445,0.2638888888888889,1,0,0,4.8829024999868125,call1,-0.020833333333333332,-0.2953703703703704,1,0,0,5.825529100024141,colour4,0.36944444444444446,-0.29305555555555557,1,0,0,6.656816100003198,number4,True,True,True,20,5,2019_Nov_14_1601,MA_Theta_Exp,3.0.7,59.97343176291655,
video/Experiment/zh_sp07_Ad_Ge_1_NVocInAudio_NoVideo.avi,vocoded,noVideo,sp07,Ad,Ge,1,1,2,flow/blocks/NVocInAudio_NoVideo_A.csv,,,,,,,,,0,1,1,1,0,10,10,0,-0.4013888888888889,0.30694444444444446,1,0,0,4.353783399972599,call1,0.034722222222222224,0.3226851851851852,1,0,0,5.138228400028311,colour1,0.3861111111111111,0.325,1,0,0,5.985831400030293,number1,True,True,True,20,5,2019_Nov_14_1601,MA_Theta_Exp,3.0.7,59.97343176291655,
video/Experiment/zh_sp07_Dr_Ge_3_NVocInAudio_NoVideo.avi,vocoded,noVideo,sp07,Dr,Ge,3,1,2,flow/blocks/NVocInAudio_NoVideo_A.csv,,,,,,,,,0,1,1,1,0,11,11,18,-0.3763888888888889,0.075,1,0,0,4.493273100000806,call2,-0.03888888888888889,0.30694444444444446,1,0,0,5.2894948000321165,colour1,0.3638888888888889,-0.11064814814814815,1,0,0,6.105667600000743,number3,True,True,True,20,5,2019_Nov_14_1601,MA_Theta_Exp,3.0.7,59.97343176291655,
video/Experiment/zh_sp01_Ad_Ge_2_NVocInAudio_NoVideo.avi,vocoded,noVideo,sp01,Ad,Ge,2,1,2,flow/blocks/NVocInAudio_NoVideo_A.csv,,,,,,,,,0,1,1,1,0,12,12,1,-0.4097222222222222,0.2916666666666667,1,0,0,5.216644900036044,call1,-0.006944444444444444,0.2824074074074074,1,0,0,6.011347899970133,colour1,0.38333333333333336,0.11296296296296296,1,0,0,6.7134786999667995,number2,True,True,True,20,5,2019_Nov_14_1601,MA_Theta_Exp,3.0.7,59.97343176291655,
video/Experiment/zh_sp01_Dr_Ro_1_NVocInAudio_NoVideo.avi,vocoded,noVideo,sp01,Dr,Ro,1,1,2,flow/blocks/NVocInAudio_NoVideo_A.csv,,,,,,,,,0,1,1,1,0,13,13,24,-0.40694444444444444,0.12222222222222222,1,0,0,5.1692304000025615,call2,0.013888888888888888,-0.11203703703703703,1,0,0,6.058665799966548,colour3,0.3972222222222222,0.3125,1,0,0,6.96844270004658,number1,True,True,True,20,5,2019_Nov_14_1601,MA_Theta_Exp,3.0.7,59.97343176291655,
video/Experiment/zh_sp01_Ad_Ge_3_NVocInAudio_NoVideo.avi,vocoded,noVideo,sp01,Ad,Ge,3,1,2,flow/blocks/NVocInAudio_NoVideo_A.csv,,,,,,,,,0,1,1,1,0,14,14,2,-0.3763888888888889,0.2847222222222222,1,0,0,5.414586800034158,call1,0.004166666666666667,0.26851851851851855,1,0,0,6.131700499972794,colour1,0.3638888888888889,-0.1111111111111111,1,0,0,6.883766200044192,number3,True,True,True,20,5,2019_Nov_14_1601,MA_Theta_Exp,3.0.7,59.97343176291655,
video/Experiment/zh_sp07_Ad_Ro_2_NVocInAudio_NoVideo.avi,vocoded,noVideo,sp07,Ad,Ro,2,1,2,flow/blocks/NVocInAudio_NoVideo_A.csv,,,,,,,,,0,1,1,1,0,15,15,9,-0.3402777777777778,0.2833333333333333,1,0,0,4.695344600011595,call1,-0.019444444444444445,-0.07453703703703704,1,0,0,5.58346779999556,colour3,0.41388888888888886,0.09583333333333334,1,0,0,6.709740600024816,number2,True,True,True,20,5,2019_Nov_14_1601,MA_Theta_Exp,3.0.7,59.97343176291655,
video/Experiment/zh_sp01_Ad_Gr_4_NVocInAudio_NoVideo.avi,vocoded,noVideo,sp01,Ad,Gr,4,1,2,flow/blocks/NVocInAudio_NoVideo_A.csv,,,,,,,,,0,1,1,1,0,16,16,7,-0.3402777777777778,0.28888888888888886,1,0,0,5.289670299971476,call1,0.011111111111111112,0.07546296296296297,1,0,0,6.138105200021528,colour2,0.41944444444444445,-0.3175925925925926,1,0,0,7.044615599967074,number4,True,True,True,20,5,2019_Nov_14_1601,MA_Theta_Exp,3.0.7,59.97343176291655,
video/Experiment/zh_sp01_Ad_We_2_NVocInAudio_NoVideo.avi,vocoded,noVideo,sp01,Ad,We,2,1,2,flow/blocks/NVocInAudio_NoVideo_A.csv,,,,,,,,,0,1,1,1,0,17,17,13,-0.3458333333333333,0.2763888888888889,1,0,0,5.2453397999634035,call1,0.04027777777777778,-0.30787037037037035,1,0,0,6.1460676999995485,colour4,0.43472222222222223,0.09166666666666666,1,0,0,7.102564300002996,number2,True,True,True,20,5,2019_Nov_14_1601,MA_Theta_Exp,3.0.7,59.97343176291655,
video/Experiment/zh_sp07_Ad_Gr_1_NVocInAudio_NoVideo.avi,vocoded,noVideo,sp07,Ad,Gr,1,1,2,flow/blocks/NVocInAudio_NoVideo_A.csv,,,,,,,,,0,1,1,1,0,18,18,4,-0.41944444444444445,0.26666666666666666,1,0,0,4.8146773999906145,call1,-0.018055555555555554,0.09768518518518518,1,0,0,5.881265499978326,colour2,0.41805555555555557,0.35324074074074074,1,0,0,7.8253339000511914,number1,True,True,True,20,5,2019_Nov_14_1601,MA_Theta_Exp,3.0.7,59.97343176291655,
video/Experiment/zh_sp01_Ad_Ro_3_NVocInAudio_NoVideo.avi,vocoded,noVideo,sp01,Ad,Ro,3,1,2,flow/blocks/NVocInAudio_NoVideo_A.csv,,,,,,,,,0,1,1,1,0,19,19,10,-0.425,0.2833333333333333,1,0,0,5.019824400020298,call1,0.02361111111111111,-0.11203703703703703,1,0,0,6.317683400004171,colour3,0.39444444444444443,-0.09722222222222222,1,0,0,7.329392500047106,number3,True,True,True,20,5,2019_Nov_14_1601,MA_Theta_Exp,3.0.7,59.97343176291655,
video/Experiment/zh_sp07_Dr_We_2_NVocInAudio_NoVideo.avi,vocoded,noVideo,sp07,Dr,We,2,1,2,flow/blocks/NVocInAudio_NoVideo_A.csv,,,,,,,,,0,1,1,1,0,20,20,29,-0.3736111111111111,0.1111111111111111,1,0,0,4.809422299964353,call2,0.03888888888888889,-0.32083333333333336,1,0,0,6.126743800006807,colour4,0.35,0.10277777777777777,1,0,0,7.008527799975127,number2,True,True,True,20,5,2019_Nov_14_1601,MA_Theta_Exp,3.0.7,59.97343176291655,
video/Experiment/zh_sp07_Dr_We_1_NVocInAudio_NoVideo.avi,vocoded,noVideo,sp07,Dr,We,1,1,2,flow/blocks/NVocInAudio_NoVideo_A.csv,,,,,,,,,0,1,1,1,0,21,21,28,-0.3736111111111111,0.07361111111111111,1,0,0,4.76118359999964,call2,-0.075,-0.2773148148148148,1,0,0,5.696824899991043,colour4,0.40555555555555556,0.3074074074074074,1,0,0,6.8284745999844745,number1,True,True,True,20,5,2019_Nov_14_1601,MA_Theta_Exp,3.0.7,59.97343176291655,
video/Experiment/zh_sp01_Ad_Gr_2_NVocInAudio_NoVideo.avi,vocoded,noVideo,sp01,Ad,Gr,2,1,2,flow/blocks/NVocInAudio_NoVideo_A.csv,,,,,,,,,0,1,1,1,0,22,22,5,-0.3611111111111111,0.3194444444444444,1,0,0,5.228887200006284,call1,0.002777777777777778,0.07824074074074074,1,0,0,6.212969700049143,colour2,0.4125,0.09305555555555556,1,0,0,7.257529099995736,number2,True,True,True,20,5,2019_Nov_14_1601,MA_Theta_Exp,3.0.7,59.97343176291655,
video/Experiment/zh_sp01_Dr_Ro_4_NVocInAudio_NoVideo.avi,vocoded,noVideo,sp01,Dr,Ro,4,1,2,flow/blocks/NVocInAudio_NoVideo_A.csv,,,,,,,,,0,1,1,1,0,23,23,27,-0.41805555555555557,0.0875,1,0,0,5.213132700009737,call2,0.034722222222222224,-0.1300925925925926,1,0,0,6.132446100004017,colour3,0.39444444444444443,-0.3384259259259259,1,0,0,7.152743900020141,number4,True,True,True,20,5,2019_Nov_14_1601,MA_Theta_Exp,3.0.7,59.97343176291655,
video/Experiment/zh_sp01_Dr_Ro_3_NVocInAudio_NoVideo.avi,vocoded,noVideo,sp01,Dr,Ro,3,1,2,flow/blocks/NVocInAudio_NoVideo_A.csv,,,,,,,,,0,1,1,1,0,24,24,26,-0.3625,0.09861111111111111,1,0,0,5.1721735000028275,call2,-0.03194444444444444,-0.11898148148148148,1,0,0,5.99129009997705,colour3,0.37777777777777777,-0.12916666666666668,1,0,0,7.055213699990418,number3,True,True,True,20,5,2019_Nov_14_1601,MA_Theta_Exp,3.0.7,59.97343176291655,
video/Experiment/zh_sp07_Ad_We_1_NVocInAudio_NoVideo.avi,vocoded,noVideo,sp07,Ad,We,1,1,2,flow/blocks/NVocInAudio_NoVideo_A.csv,,,,,,,,,0,1,1,1,0,25,25,12,-0.4097222222222222,0.30972222222222223,1,0,0,4.505840900004841,call1,0.03333333333333333,-0.3189814814814815,1,0,0,5.524686999968253,colour4,0.4444444444444444,0.33055555555555555,1,0,0,6.578138799988665,number1,True,True,True,20,5,2019_Nov_14_1601,MA_Theta_Exp,3.0.7,59.97343176291655,
video/Experiment/zh_sp07_Dr_Ro_2_NVocInAudio_NoVideo.avi,vocoded,noVideo,sp07,Dr,Ro,2,1,2,flow/blocks/NVocInAudio_NoVideo_A.csv,,,,,,,,,0,1,1,1,0,26,26,25,-0.39305555555555555,0.0875,1,0,0,4.561239300004672,call2,-0.030555555555555555,-0.09675925925925925,1,0,0,5.505411599995568,colour3,0.40694444444444444,0.08055555555555556,1,0,0,6.420549399976153,number2,True,True,True,20,5,2019_Nov_14_1601,MA_Theta_Exp,3.0.7,59.97343176291655,
video/Experiment/zh_sp07_Dr_Gr_2_NVocInAudio_NoVideo.avi,vocoded,noVideo,sp07,Dr,Gr,2,1,2,flow/blocks/NVocInAudio_NoVideo_A.csv,,,,,,,,,0,1,1,1,0,27,27,21,-0.33611111111111114,0.06527777777777778,1,0,0,4.610958400007803,call2,-0.013888888888888888,0.04583333333333333,1,0,0,5.445037900004536,colour2,0.44722222222222224,0.021296296296296296,1,0,0,6.328813400003128,number2,True,True,True,20,5,2019_Nov_14_1601,MA_Theta_Exp,3.0.7,59.97343176291655,
video/Experiment/zh_sp07_Ad_Ro_4_NVocInAudio_NoVideo.avi,vocoded,noVideo,sp07,Ad,Ro,4,1,2,flow/blocks/NVocInAudio_NoVideo_A.csv,,,,,,,,,0,1,1,1,0,28,28,11,-0.3972222222222222,0.2902777777777778,1,0,0,4.685488999995869,call1,-0.015277777777777777,-0.09814814814814815,1,0,0,5.834740299964324,colour3,0.3597222222222222,-0.3189814814814815,1,0,0,6.856636400043499,number4,True,True,True,20,5,2019_Nov_14_1601,MA_Theta_Exp,3.0.7,59.97343176291655,
video/Experiment/zh_sp07_Dr_Gr_3_NVocInAudio_NoVideo.avi,vocoded,noVideo,sp07,Dr,Gr,3,1,2,flow/blocks/NVocInAudio_NoVideo_A.csv,,,,,,,,,0,1,1,1,0,29,29,22,-0.3736111111111111,0.12916666666666668,1,0,0,4.715219000005163,call2,0.004166666666666667,0.0587962962962963,1,0,0,5.60962910001399,colour2,0.4444444444444444,-0.1037037037037037,1,0,0,6.464700400014408,number3,True,True,True,20,5,2019_Nov_14_1601,MA_Theta_Exp,3.0.7,59.97343176291655,
video/Experiment/zh_sp01_Dr_Ge_1_NVocInAudio_NoVideo.avi,vocoded,noVideo,sp01,Dr,Ge,1,1,2,flow/blocks/NVocInAudio_NoVideo_A.csv,,,,,,,,,0,1,1,1,0,30,30,16,-0.3486111111111111,0.06388888888888888,1,0,0,5.365879699995276,call2,0.027777777777777776,0.33055555555555555,1,0,0,6.200401099980809,colour1,0.3763888888888889,0.31666666666666665,1,0,0,7.061475099995732,number1,True,True,True,20,5,2019_Nov_14_1601,MA_Theta_Exp,3.0.7,59.97343176291655,
video/Experiment/zh_sp01_Ad_We_3_NVocInAudio_NoVideo.avi,vocoded,noVideo,sp01,Ad,We,3,1,2,flow/blocks/NVocInAudio_NoVideo_A.csv,,,,,,,,,0,1,1,1,0,31,31,14,-0.3541666666666667,0.26805555555555555,1,0,0,5.020938400004525,call1,0.016666666666666666,-0.337037037037037,1,0,0,5.936924700043164,colour4,0.39444444444444443,-0.11944444444444445,1,0,0,6.805887499998789,number3,True,True,True,20,5,2019_Nov_14_1601,MA_Theta_Exp,3.0.7,59.97343176291655,
