videoFile,condition,video,speaker,callSign,colour,number,seq,id,block,exp.thisRepN,exp.thisTrialN,exp.thisN,exp.thisIndex,training.thisRepN,training.thisTrialN,training.thisN,training.thisIndex,firstHalf.thisRepN,firstHalf.thisTrialN,firstHalf.thisN,firstHalf.thisIndex,blocksA.thisRepN,blocksA.thisTrialN,blocksA.thisN,blocksA.thisIndex,mouseClickOnCall.x,mouseClickOnCall.y,mouseClickOnCall.leftButton,mouseClickOnCall.midButton,mouseClickOnCall.rightButton,mouseClickOnCall.time,mouseClickOnCall.clicked_name,mouseClickOnColour.x,mouseClickOnColour.y,mouseClickOnColour.leftButton,mouseClickOnColour.midButton,mouseClickOnColour.rightButton,mouseClickOnColour.time,mouseClickOnColour.clicked_name,callSignCorrect,colourCorrect,numberCorrect,mouseClickOnNumber.x,mouseClickOnNumber.y,mouseClickOnNumber.leftButton,mouseClickOnNumber.midButton,mouseClickOnNumber.rightButton,mouseClickOnNumber.time,mouseClickOnNumber.clicked_name,participant,order,date,expName,psychopyVersion,frameRate,
video/Training/zh_sp01_Ad_We_4_NVocInAudio_NoVideo.avi,vocoded,noVideo,sp01,Ad,We,4,,,,,,,,0,0,0,0,,,,,,,,,-0.41574074074074074,0.2810185185185185,1,0,0,9.762578000023495,call1,-0.0032407407407407406,-0.34675925925925927,1,0,0,12.629279599990696,colour4,True,True,NO_ANSW,,,,,,,,21,1,2019_Nov_14_1707,MA_Theta_Exp,3.0.7,61.10273326507573,
video/Training/zh_sp07_Ad_Ge_3_NVocInAudio_NoVideo.avi,vocoded,noVideo,sp07,Ad,Ge,3,,,,,,,,0,1,1,1,,,,,,,,,-0.4393518518518518,0.2833333333333333,1,0,0,5.309261999966111,call1,0.04259259259259259,0.30277777777777776,1,0,0,6.697528199991211,colour1,True,True,True,0.4162037037037037,-0.1162037037037037,1,0,0,7.376442399981897,number3,21,1,2019_Nov_14_1707,MA_Theta_Exp,3.0.7,61.10273326507573,
video/Training/zh_sp01_Dr_Ro_3_NVocInAudio_GlobalThetaInVideo.avi,vocoded,plusVideo,sp01,Dr,Ro,3,,,,,,,,0,2,2,2,,,,,,,,,-0.38796296296296295,0.2791666666666667,1,0,0,6.641785999992862,call1,0.013425925925925926,-0.08287037037037037,1,0,0,8.175958000007086,colour3,False,True,True,0.4009259259259259,-0.125,1,0,0,9.377248500008136,number3,21,1,2019_Nov_14_1707,MA_Theta_Exp,3.0.7,61.10273326507573,
video/Training/zh_sp07_Dr_Gr_4_NVocInAudio_GlobalThetaInVideo.avi,vocoded,plusVideo,sp07,Dr,Gr,4,,,,,,,,0,3,3,3,,,,,,,,,-0.4060185185185185,0.0699074074074074,1,0,0,6.404276799992658,call2,-0.0060185185185185185,0.07361111111111111,1,0,0,7.725527500035241,colour2,True,True,True,0.38425925925925924,-0.3148148148148148,1,0,0,9.730246299994178,number4,21,1,2019_Nov_14_1707,MA_Theta_Exp,3.0.7,61.10273326507573,
video/Training/zh_sp01_Ti_Gr_2_NoThetaInAudio_NoVideo.avi,noTheta,noVideo,sp01,Ti,Gr,2,,,,,,,,0,4,4,4,,,,,,,,,-0.40879629629629627,0.2791666666666667,1,0,0,8.405953300010879,call1,0.02175925925925926,0.28935185185185186,1,0,0,11.07284920004895,colour1,False,False,NO_ANSW,,,,,,,,21,1,2019_Nov_14_1707,MA_Theta_Exp,3.0.7,61.10273326507573,
video/Training/zh_sp07_Ti_Ro_1_NoThetaInAudio_NoVideo.avi,noTheta,noVideo,sp07,Ti,Ro,1,,,,,,,,0,5,5,5,,,,,,,,,-0.41574074074074074,0.2791666666666667,1,0,0,11.041395799955353,call1,,,,,,,,False,NO_ANSW,NO_ANSW,,,,,,,,21,1,2019_Nov_14_1707,MA_Theta_Exp,3.0.7,61.10273326507573,
video/Training/zh_sp01_Un_Ge_1_NoThetaInAudio_GlobalThetaInVideo.avi,noTheta,plusVideo,sp01,Un,Ge,1,,,,,,,,0,6,6,6,,,,,,,,,-0.38796296296296295,0.2722222222222222,1,0,0,8.717877399991266,call1,0.06342592592592593,0.27546296296296297,1,0,0,9.469079600006808,colour1,False,True,True,0.3814814814814815,0.3013888888888889,1,0,0,10.381240700022317,number1,21,1,2019_Nov_14_1707,MA_Theta_Exp,3.0.7,61.10273326507573,
video/Training/zh_sp07_Un_We_2_NoThetaInAudio_GlobalThetaInVideo.avi,noTheta,plusVideo,sp07,Un,We,2,,,,,,,,0,7,7,7,,,,,,,,,,,,,,,,,,,,,,,NO_ANSW,NO_ANSW,NO_ANSW,,,,,,,,21,1,2019_Nov_14_1707,MA_Theta_Exp,3.0.7,61.10273326507573,
video/Training/zh_sp01_Ad_Ge_1_GlobalTheta_NoVideo.avi,globalTheta,noVideo,sp01,Ad,Ge,1,,,,,,,,0,8,8,8,,,,,,,,,-0.3837962962962963,0.30416666666666664,1,0,0,6.312348399951588,call1,0.03564814814814815,0.24074074074074073,1,0,0,8.361428400035948,colour1,True,True,True,0.4703703703703704,0.2763888888888889,1,0,0,9.428541100001894,number1,21,1,2019_Nov_14_1707,MA_Theta_Exp,3.0.7,61.10273326507573,
video/Training/zh_sp07_Ad_Ro_3_GlobalTheta_NoVideo.avi,globalTheta,noVideo,sp07,Ad,Ro,3,,,,,,,,0,9,9,9,,,,,,,,,-0.37962962962962965,0.3055555555555556,1,0,0,7.172226700000465,call1,-0.046296296296296294,0.09212962962962963,1,0,0,8.440918500011321,colour2,True,False,True,0.3648148148148148,-0.1412037037037037,1,0,0,9.946363700029906,number3,21,1,2019_Nov_14_1707,MA_Theta_Exp,3.0.7,61.10273326507573,
video/Experiment/zh_sp07_Ad_Ro_1_NVocInAudio_NoVideo.avi,vocoded,noVideo,sp07,Ad,Ro,1,0,2,flow/blocks/NVocInAudio_NoVideo_A.csv,,,,,,,,,0,0,0,0,0,0,0,8,-0.412962962962963,0.29305555555555557,1,0,0,4.659079499950167,call1,0.020370370370370372,-0.13148148148148148,1,0,0,5.590438099985477,colour3,True,True,True,0.35648148148148145,0.2861111111111111,1,0,0,6.452835200005211,number1,21,1,2019_Nov_14_1707,MA_Theta_Exp,3.0.7,61.10273326507573,
video/Experiment/zh_sp01_Dr_Ro_1_NVocInAudio_NoVideo.avi,vocoded,noVideo,sp01,Dr,Ro,1,0,2,flow/blocks/NVocInAudio_NoVideo_A.csv,,,,,,,,,0,0,0,0,0,1,1,24,-0.42685185185185187,0.10694444444444444,1,0,0,5.586632399994414,call2,-0.001851851851851852,-0.12175925925925926,1,0,0,6.63912629999686,colour3,True,True,True,0.38425925925925924,0.30416666666666664,1,0,0,7.876614699955098,number1,21,1,2019_Nov_14_1707,MA_Theta_Exp,3.0.7,61.10273326507573,
video/Experiment/zh_sp01_Dr_Gr_4_NVocInAudio_NoVideo.avi,vocoded,noVideo,sp01,Dr,Gr,4,0,2,flow/blocks/NVocInAudio_NoVideo_A.csv,,,,,,,,,0,0,0,0,0,2,2,23,-0.39351851851851855,0.12824074074074074,1,0,0,5.502592900011223,call2,0.009259259259259259,0.12685185185185185,1,0,0,6.7732188000227325,colour2,True,True,True,0.43425925925925923,-0.32314814814814813,1,0,0,7.917377099976875,number4,21,1,2019_Nov_14_1707,MA_Theta_Exp,3.0.7,61.10273326507573,
video/Experiment/zh_sp01_Ad_We_3_NVocInAudio_NoVideo.avi,vocoded,noVideo,sp01,Ad,We,3,0,2,flow/blocks/NVocInAudio_NoVideo_A.csv,,,,,,,,,0,0,0,0,0,3,3,14,-0.4532407407407407,0.2708333333333333,1,0,0,5.816575399949215,call1,-0.008796296296296297,-0.3537037037037037,1,0,0,7.033909999998286,colour4,True,True,True,0.3912037037037037,-0.13842592592592592,1,0,0,8.101667999988422,number3,21,1,2019_Nov_14_1707,MA_Theta_Exp,3.0.7,61.10273326507573,
video/Experiment/zh_sp01_Ad_Ro_3_NVocInAudio_NoVideo.avi,vocoded,noVideo,sp01,Ad,Ro,3,0,2,flow/blocks/NVocInAudio_NoVideo_A.csv,,,,,,,,,0,0,0,0,0,4,4,10,-0.43796296296296294,0.29583333333333334,1,0,0,5.538916099991184,call1,-0.010185185185185186,-0.10092592592592593,1,0,0,6.503705099981744,colour3,True,True,True,0.41064814814814815,-0.11481481481481481,1,0,0,7.305857100000139,number3,21,1,2019_Nov_14_1707,MA_Theta_Exp,3.0.7,61.10273326507573,
video/Experiment/zh_sp01_Ad_Gr_3_NVocInAudio_NoVideo.avi,vocoded,noVideo,sp01,Ad,Gr,3,0,2,flow/blocks/NVocInAudio_NoVideo_A.csv,,,,,,,,,0,0,0,0,0,5,5,6,-0.3851851851851852,0.28055555555555556,1,0,0,5.3311044000438415,call1,-0.01712962962962963,0.08796296296296297,1,0,0,6.464128300023731,colour2,True,True,True,0.399537037037037,-0.12175925925925926,1,0,0,7.363027299987152,number3,21,1,2019_Nov_14_1707,MA_Theta_Exp,3.0.7,61.10273326507573,
video/Experiment/zh_sp07_Dr_Ro_2_NVocInAudio_NoVideo.avi,vocoded,noVideo,sp07,Dr,Ro,2,0,2,flow/blocks/NVocInAudio_NoVideo_A.csv,,,,,,,,,0,0,0,0,0,6,6,25,-0.4685185185185185,0.08611111111111111,1,0,0,5.002386199950706,call2,0.020370370370370372,-0.11064814814814815,1,0,0,6.0116086000343785,colour3,True,True,True,0.3439814814814815,0.07916666666666666,1,0,0,6.889670800010208,number2,21,1,2019_Nov_14_1707,MA_Theta_Exp,3.0.7,61.10273326507573,
video/Experiment/zh_sp01_Ad_Ge_3_NVocInAudio_NoVideo.avi,vocoded,noVideo,sp01,Ad,Ge,3,0,2,flow/blocks/NVocInAudio_NoVideo_A.csv,,,,,,,,,0,0,0,0,0,7,7,2,-0.45046296296296295,0.3125,1,0,0,5.301947799976915,call1,-0.03518518518518519,0.27824074074074073,1,0,0,6.191825699992478,colour1,True,True,True,0.43148148148148147,-0.11064814814814815,1,0,0,7.250363599974662,number3,21,1,2019_Nov_14_1707,MA_Theta_Exp,3.0.7,61.10273326507573,
video/Experiment/zh_sp07_Dr_Gr_2_NVocInAudio_NoVideo.avi,vocoded,noVideo,sp07,Dr,Gr,2,0,2,flow/blocks/NVocInAudio_NoVideo_A.csv,,,,,,,,,0,0,0,0,0,8,8,21,-0.3699074074074074,0.07083333333333333,1,0,0,4.816109100007452,call2,0.006481481481481481,0.06712962962962964,1,0,0,5.63504570000805,colour2,True,True,True,0.40925925925925927,0.06574074074074074,1,0,0,6.5122131000389345,number2,21,1,2019_Nov_14_1707,MA_Theta_Exp,3.0.7,61.10273326507573,
video/Experiment/zh_sp07_Ad_Gr_1_NVocInAudio_NoVideo.avi,vocoded,noVideo,sp07,Ad,Gr,1,0,2,flow/blocks/NVocInAudio_NoVideo_A.csv,,,,,,,,,0,0,0,0,0,9,9,4,-0.42685185185185187,0.28055555555555556,1,0,0,4.940126099972986,call1,-0.011574074074074073,0.0875,1,0,0,5.896567500021774,colour2,True,True,True,0.43842592592592594,0.3125,1,0,0,6.841118299984373,number1,21,1,2019_Nov_14_1707,MA_Theta_Exp,3.0.7,61.10273326507573,
video/Experiment/zh_sp01_Dr_Ro_3_NVocInAudio_NoVideo.avi,vocoded,noVideo,sp01,Dr,Ro,3,0,2,flow/blocks/NVocInAudio_NoVideo_A.csv,,,,,,,,,0,0,0,0,0,10,10,26,-0.4060185185185185,0.12824074074074074,1,0,0,5.923144200001843,call2,-0.007407407407407408,0.12407407407407407,1,0,0,7.0600033000227995,colour2,True,False,True,0.42592592592592593,-0.07731481481481481,1,0,0,7.857474399963394,number3,21,1,2019_Nov_14_1707,MA_Theta_Exp,3.0.7,61.10273326507573,
video/Experiment/zh_sp07_Dr_Ge_3_NVocInAudio_NoVideo.avi,vocoded,noVideo,sp07,Dr,Ge,3,0,2,flow/blocks/NVocInAudio_NoVideo_A.csv,,,,,,,,,0,0,0,0,0,11,11,18,-0.40324074074074073,0.03888888888888889,1,0,0,4.716617300000507,call2,0.053703703703703705,0.07916666666666666,1,0,0,5.5661602999898605,colour2,True,False,True,0.43703703703703706,-0.10925925925925926,1,0,0,6.583469000004698,number3,21,1,2019_Nov_14_1707,MA_Theta_Exp,3.0.7,61.10273326507573,
video/Experiment/zh_sp01_Dr_We_4_NVocInAudio_NoVideo.avi,vocoded,noVideo,sp01,Dr,We,4,0,2,flow/blocks/NVocInAudio_NoVideo_A.csv,,,,,,,,,0,0,0,0,0,12,12,31,-0.40324074074074073,0.07916666666666666,1,0,0,5.206996500026435,call2,-0.011574074074074073,-0.30787037037037035,1,0,0,6.035779399971943,colour4,True,True,True,0.4064814814814815,-0.29814814814814816,1,0,0,6.837796699954197,number4,21,1,2019_Nov_14_1707,MA_Theta_Exp,3.0.7,61.10273326507573,
video/Experiment/zh_sp07_Dr_We_1_NVocInAudio_NoVideo.avi,vocoded,noVideo,sp07,Dr,We,1,0,2,flow/blocks/NVocInAudio_NoVideo_A.csv,,,,,,,,,0,0,0,0,0,13,13,28,-0.48657407407407405,0.075,1,0,0,4.577232100011315,call2,-0.000462962962962963,-0.3287037037037037,1,0,0,5.410665200033691,colour4,True,True,True,0.35509259259259257,0.3263888888888889,1,0,0,6.397389699995983,number1,21,1,2019_Nov_14_1707,MA_Theta_Exp,3.0.7,61.10273326507573,
video/Experiment/zh_sp01_Ad_Gr_4_NVocInAudio_NoVideo.avi,vocoded,noVideo,sp01,Ad,Gr,4,0,2,flow/blocks/NVocInAudio_NoVideo_A.csv,,,,,,,,,0,0,0,0,0,14,14,7,-0.40046296296296297,0.25972222222222224,1,0,0,5.5508270999998786,call1,0.014814814814814815,0.08101851851851852,1,0,0,6.258494800014887,colour2,True,True,True,0.44814814814814813,-0.2828703703703704,1,0,0,7.212590400013141,number4,21,1,2019_Nov_14_1707,MA_Theta_Exp,3.0.7,61.10273326507573,
video/Experiment/zh_sp01_Dr_Ge_1_NVocInAudio_NoVideo.avi,vocoded,noVideo,sp01,Dr,Ge,1,0,2,flow/blocks/NVocInAudio_NoVideo_A.csv,,,,,,,,,0,0,0,0,0,15,15,16,-0.4212962962962963,0.07546296296296297,1,0,0,5.308488000009675,call2,-0.040740740740740744,0.2875,1,0,0,6.1361313999514095,colour1,True,True,True,0.3731481481481482,0.30833333333333335,1,0,0,6.923574600019492,number1,21,1,2019_Nov_14_1707,MA_Theta_Exp,3.0.7,61.10273326507573,
video/Experiment/zh_sp07_Dr_Gr_1_NVocInAudio_NoVideo.avi,vocoded,noVideo,sp07,Dr,Gr,1,0,2,flow/blocks/NVocInAudio_NoVideo_A.csv,,,,,,,,,0,0,0,0,0,16,16,20,-0.3921296296296296,0.05324074074074074,1,0,0,5.398469699954148,call2,-0.0587962962962963,0.07546296296296297,1,0,0,6.016399100015406,colour2,True,True,True,0.36342592592592593,0.2916666666666667,1,0,0,6.7222673000069335,number1,21,1,2019_Nov_14_1707,MA_Theta_Exp,3.0.7,61.10273326507573,
video/Experiment/zh_sp01_Dr_We_3_NVocInAudio_NoVideo.avi,vocoded,noVideo,sp01,Dr,We,3,0,2,flow/blocks/NVocInAudio_NoVideo_A.csv,,,,,,,,,0,0,0,0,0,17,17,30,-0.3685185185185185,0.0763888888888889,1,0,0,5.149403499963228,call2,0.027314814814814816,-0.3189814814814815,1,0,0,6.106232499994803,colour4,True,True,True,0.3800925925925926,-0.1259259259259259,1,0,0,7.671818999981042,number3,21,1,2019_Nov_14_1707,MA_Theta_Exp,3.0.7,61.10273326507573,
video/Experiment/zh_sp07_Dr_Gr_3_NVocInAudio_NoVideo.avi,vocoded,noVideo,sp07,Dr,Gr,3,0,2,flow/blocks/NVocInAudio_NoVideo_A.csv,,,,,,,,,0,0,0,0,0,18,18,22,-0.3990740740740741,0.08472222222222223,1,0,0,4.870943900023121,call2,0.010648148148148148,0.09027777777777778,1,0,0,5.528997000015806,colour2,True,True,True,0.38981481481481484,-0.13148148148148148,1,0,0,6.239415299962275,number3,21,1,2019_Nov_14_1707,MA_Theta_Exp,3.0.7,61.10273326507573,
video/Experiment/zh_sp07_Dr_Ge_2_NVocInAudio_NoVideo.avi,vocoded,noVideo,sp07,Dr,Ge,2,0,2,flow/blocks/NVocInAudio_NoVideo_A.csv,,,,,,,,,0,0,0,0,0,19,19,17,-0.3921296296296296,0.07916666666666666,1,0,0,4.543264299980365,call2,-0.05185185185185185,0.2763888888888889,1,0,0,5.211934600025415,colour1,True,True,True,0.3453703703703704,0.07685185185185185,1,0,0,5.913685499981511,number2,21,1,2019_Nov_14_1707,MA_Theta_Exp,3.0.7,61.10273326507573,
video/Experiment/zh_sp07_Ad_We_1_NVocInAudio_NoVideo.avi,vocoded,noVideo,sp07,Ad,We,1,0,2,flow/blocks/NVocInAudio_NoVideo_A.csv,,,,,,,,,0,0,0,0,0,20,20,12,-0.41435185185185186,0.12824074074074074,1,0,0,4.533600400027353,call2,0.013425925925925926,-0.3037037037037037,1,0,0,5.365818599995691,colour4,False,True,True,0.3814814814814815,0.3236111111111111,1,0,0,6.225729300000239,number1,21,1,2019_Nov_14_1707,MA_Theta_Exp,3.0.7,61.10273326507573,
video/Experiment/zh_sp07_Ad_Ro_2_NVocInAudio_NoVideo.avi,vocoded,noVideo,sp07,Ad,Ro,2,0,2,flow/blocks/NVocInAudio_NoVideo_A.csv,,,,,,,,,0,0,0,0,0,21,21,9,-0.4449074074074074,0.3236111111111111,1,0,0,4.618265700002667,call1,0.003703703703703704,0.3277777777777778,1,0,0,6.000965000013821,colour1,True,False,True,0.4300925925925926,0.1087962962962963,1,0,0,6.497794300026726,number2,21,1,2019_Nov_14_1707,MA_Theta_Exp,3.0.7,61.10273326507573,
video/Experiment/zh_sp07_Ad_Ge_4_NVocInAudio_NoVideo.avi,vocoded,noVideo,sp07,Ad,Ge,4,0,2,flow/blocks/NVocInAudio_NoVideo_A.csv,,,,,,,,,0,0,0,0,0,22,22,3,-0.3560185185185185,0.24583333333333332,1,0,0,4.7727713999920525,call1,-0.01712962962962963,0.2916666666666667,1,0,0,5.336323200026527,colour1,True,True,True,0.4023148148148148,-0.3287037037037037,1,0,0,6.1606198999797925,number4,21,1,2019_Nov_14_1707,MA_Theta_Exp,3.0.7,61.10273326507573,
video/Experiment/zh_sp01_Ad_We_4_NVocInAudio_NoVideo.avi,vocoded,noVideo,sp01,Ad,We,4,0,2,flow/blocks/NVocInAudio_NoVideo_A.csv,,,,,,,,,0,0,0,0,0,23,23,15,-0.44212962962962965,0.275,1,0,0,5.111142500012647,call1,-0.032407407407407406,-0.34814814814814815,1,0,0,5.770402500056662,colour4,True,True,True,0.4078703703703704,-0.3055555555555556,1,0,0,6.423007100005634,number4,21,1,2019_Nov_14_1707,MA_Theta_Exp,3.0.7,61.10273326507573,
video/Experiment/zh_sp01_Ad_Gr_2_NVocInAudio_NoVideo.avi,vocoded,noVideo,sp01,Ad,Gr,2,0,2,flow/blocks/NVocInAudio_NoVideo_A.csv,,,,,,,,,0,0,0,0,0,24,24,5,-0.4212962962962963,0.2833333333333333,1,0,0,5.376076199987438,call1,0.01898148148148148,0.06574074074074074,1,0,0,6.007240799954161,colour2,True,True,True,0.4398148148148148,0.06574074074074074,1,0,0,6.745731300034095,number2,21,1,2019_Nov_14_1707,MA_Theta_Exp,3.0.7,61.10273326507573,
video/Experiment/zh_sp07_Dr_Ge_4_NVocInAudio_NoVideo.avi,vocoded,noVideo,sp07,Dr,Ge,4,0,2,flow/blocks/NVocInAudio_NoVideo_A.csv,,,,,,,,,0,0,0,0,0,25,25,19,-0.3712962962962963,0.07222222222222222,1,0,0,4.656107600021642,call2,-0.04212962962962963,0.2611111111111111,1,0,0,5.316650099994149,colour1,True,True,True,0.4050925925925926,-0.31342592592592594,1,0,0,6.10102249996271,number4,21,1,2019_Nov_14_1707,MA_Theta_Exp,3.0.7,61.10273326507573,
video/Experiment/zh_sp07_Ad_Ge_1_NVocInAudio_NoVideo.avi,vocoded,noVideo,sp07,Ad,Ge,1,0,2,flow/blocks/NVocInAudio_NoVideo_A.csv,,,,,,,,,0,0,0,0,0,26,26,0,-0.4101851851851852,0.2611111111111111,1,0,0,4.704043600009754,call1,-0.0060185185185185185,0.28194444444444444,1,0,0,5.37912579998374,colour1,True,True,True,0.4009259259259259,0.28194444444444444,1,0,0,6.109071800019592,number1,21,1,2019_Nov_14_1707,MA_Theta_Exp,3.0.7,61.10273326507573,
video/Experiment/zh_sp01_Ad_Ge_2_NVocInAudio_NoVideo.avi,vocoded,noVideo,sp01,Ad,Ge,2,0,2,flow/blocks/NVocInAudio_NoVideo_A.csv,,,,,,,,,0,0,0,0,0,27,27,1,-0.3990740740740741,0.29768518518518516,1,0,0,5.299140199960675,call1,0.037037037037037035,0.29212962962962963,1,0,0,5.925396100035869,colour1,True,True,True,0.4550925925925926,0.10324074074074074,1,0,0,6.577859600016382,number2,21,1,2019_Nov_14_1707,MA_Theta_Exp,3.0.7,61.10273326507573,
video/Experiment/zh_sp07_Dr_We_2_NVocInAudio_NoVideo.avi,vocoded,noVideo,sp07,Dr,We,2,0,2,flow/blocks/NVocInAudio_NoVideo_A.csv,,,,,,,,,0,0,0,0,0,28,28,29,-0.4337962962962963,0.07083333333333333,1,0,0,4.555899399972986,call2,0.01898148148148148,-0.34953703703703703,1,0,0,5.239745800034143,colour4,True,True,True,0.4134259259259259,0.13333333333333333,1,0,0,6.0089176000328735,number2,21,1,2019_Nov_14_1707,MA_Theta_Exp,3.0.7,61.10273326507573,
video/Experiment/zh_sp07_Ad_Ro_4_NVocInAudio_NoVideo.avi,vocoded,noVideo,sp07,Ad,Ro,4,0,2,flow/blocks/NVocInAudio_NoVideo_A.csv,,,,,,,,,0,0,0,0,0,29,29,11,-0.44351851851851853,0.059722222222222225,1,0,0,4.648362200008705,call2,0.000925925925925926,-0.13842592592592592,1,0,0,5.551546800008509,colour3,False,True,True,0.41064814814814815,-0.3236111111111111,1,0,0,6.222390600014478,number4,21,1,2019_Nov_14_1707,MA_Theta_Exp,3.0.7,61.10273326507573,
video/Experiment/zh_sp01_Dr_Ro_4_NVocInAudio_NoVideo.avi,vocoded,noVideo,sp01,Dr,Ro,4,0,2,flow/blocks/NVocInAudio_NoVideo_A.csv,,,,,,,,,0,0,0,0,0,30,30,27,-0.40185185185185185,0.09166666666666666,1,0,0,5.144245299976319,call2,0.038425925925925926,-0.1398148148148148,1,0,0,5.826302600034978,colour3,True,True,True,0.41898148148148145,-0.33611111111111114,1,0,0,6.638840899977367,number4,21,1,2019_Nov_14_1707,MA_Theta_Exp,3.0.7,61.10273326507573,
video/Experiment/zh_sp01_Ad_We_2_NVocInAudio_NoVideo.avi,vocoded,noVideo,sp01,Ad,We,2,0,2,flow/blocks/NVocInAudio_NoVideo_A.csv,,,,,,,,,0,0,0,0,0,31,31,13,-0.4046296296296296,0.29444444444444445,1,0,0,5.3507777999620885,call1,-0.03518518518518519,-0.32037037037037036,1,0,0,6.115512599993963,colour4,True,True,True,0.3537037037037037,0.06666666666666667,1,0,0,6.9502083999686874,number2,21,1,2019_Nov_14_1707,MA_Theta_Exp,3.0.7,61.10273326507573,
video/Experiment/zh_sp01_Ad_Ge_3_NoThetaInAudio_GlobalThetaInVideo.avi,noTheta,plusVideo,sp01,Ad,Ge,3,1,3,flow/blocks/NoThetaInAudio_GlobalThetaInVideo_A.csv,,,,,,,,,0,1,1,1,0,0,0,2,-0.3976851851851852,0.25833333333333336,1,0,0,5.069465800013859,call1,-0.046296296296296294,0.25972222222222224,1,0,0,5.786991000000853,colour1,True,True,False,0.3523148148148148,-0.36342592592592593,1,0,0,6.49037940002745,number4,21,1,2019_Nov_14_1707,MA_Theta_Exp,3.0.7,61.10273326507573,
video/Experiment/zh_sp07_Dr_We_2_NoThetaInAudio_GlobalThetaInVideo.avi,noTheta,plusVideo,sp07,Dr,We,2,1,3,flow/blocks/NoThetaInAudio_GlobalThetaInVideo_A.csv,,,,,,,,,0,1,1,1,0,1,1,29,-0.40879629629629627,0.2569444444444444,1,0,0,4.849729000008665,call1,-0.02546296296296296,-0.39537037037037037,1,0,0,5.5839863999863155,colour4,False,True,False,0.37037037037037035,0.3125,1,0,0,6.335070999979507,number1,21,1,2019_Nov_14_1707,MA_Theta_Exp,3.0.7,61.10273326507573,
video/Experiment/zh_sp07_Ad_We_1_NoThetaInAudio_GlobalThetaInVideo.avi,noTheta,plusVideo,sp07,Ad,We,1,1,3,flow/blocks/NoThetaInAudio_GlobalThetaInVideo_A.csv,,,,,,,,,0,1,1,1,0,2,2,12,-0.3726851851851852,0.2708333333333333,1,0,0,4.605391099990811,call1,-0.024074074074074074,-0.337037037037037,1,0,0,5.351947899966035,colour4,True,True,True,0.4078703703703704,0.30416666666666664,1,0,0,6.210097800008953,number1,21,1,2019_Nov_14_1707,MA_Theta_Exp,3.0.7,61.10273326507573,
video/Experiment/zh_sp01_Ad_Gr_3_NoThetaInAudio_GlobalThetaInVideo.avi,noTheta,plusVideo,sp01,Ad,Gr,3,1,3,flow/blocks/NoThetaInAudio_GlobalThetaInVideo_A.csv,,,,,,,,,0,1,1,1,0,3,3,6,-0.4393518518518518,0.3013888888888889,1,0,0,5.1662307000369765,call1,-0.033796296296296297,0.11851851851851852,1,0,0,5.799542399996426,colour2,True,True,False,0.40925925925925927,-0.3472222222222222,1,0,0,6.618407000030857,number4,21,1,2019_Nov_14_1707,MA_Theta_Exp,3.0.7,61.10273326507573,
video/Experiment/zh_sp01_Dr_Ge_4_NoThetaInAudio_GlobalThetaInVideo.avi,noTheta,plusVideo,sp01,Dr,Ge,4,1,3,flow/blocks/NoThetaInAudio_GlobalThetaInVideo_A.csv,,,,,,,,,0,1,1,1,0,4,4,19,-0.44074074074074077,0.09444444444444444,1,0,0,5.1342861999874,call2,-0.031018518518518518,0.33194444444444443,1,0,0,5.856467500037979,colour1,True,True,True,0.46064814814814814,-0.33425925925925926,1,0,0,6.661771300015971,number4,21,1,2019_Nov_14_1707,MA_Theta_Exp,3.0.7,61.10273326507573,
video/Experiment/zh_sp07_Dr_Ro_4_NoThetaInAudio_GlobalThetaInVideo.avi,noTheta,plusVideo,sp07,Dr,Ro,4,1,3,flow/blocks/NoThetaInAudio_GlobalThetaInVideo_A.csv,,,,,,,,,0,1,1,1,0,5,5,27,-0.3851851851851852,0.29212962962962963,1,0,0,5.738218699989375,call1,-0.014351851851851852,0.24444444444444444,1,0,0,6.949612499971408,colour1,False,False,True,0.4134259259259259,-0.33564814814814814,1,0,0,7.581828900030814,number4,21,1,2019_Nov_14_1707,MA_Theta_Exp,3.0.7,61.10273326507573,
video/Experiment/zh_sp01_Ad_Ge_4_NoThetaInAudio_GlobalThetaInVideo.avi,noTheta,plusVideo,sp01,Ad,Ge,4,1,3,flow/blocks/NoThetaInAudio_GlobalThetaInVideo_A.csv,,,,,,,,,0,1,1,1,0,6,6,3,-0.35462962962962963,0.30694444444444446,1,0,0,5.082619499997236,call1,0.3925925925925926,-0.33425925925925926,1,0,0,5.774872299982235,colour1,True,True,True,0.3800925925925926,-0.34814814814814815,1,0,0,7.623815800005104,number4,21,1,2019_Nov_14_1707,MA_Theta_Exp,3.0.7,61.10273326507573,
video/Experiment/zh_sp07_Ad_Gr_4_NoThetaInAudio_GlobalThetaInVideo.avi,noTheta,plusVideo,sp07,Ad,Gr,4,1,3,flow/blocks/NoThetaInAudio_GlobalThetaInVideo_A.csv,,,,,,,,,0,1,1,1,0,7,7,7,-0.4101851851851852,0.25972222222222224,1,0,0,4.6846781999920495,call1,-0.0032407407407407406,0.018055555555555554,1,0,0,5.387914699967951,colour2,True,True,True,0.3592592592592593,-0.2912037037037037,1,0,0,6.028331900015473,number4,21,1,2019_Nov_14_1707,MA_Theta_Exp,3.0.7,61.10273326507573,
video/Experiment/zh_sp01_Ad_Ro_4_NoThetaInAudio_GlobalThetaInVideo.avi,noTheta,plusVideo,sp01,Ad,Ro,4,1,3,flow/blocks/NoThetaInAudio_GlobalThetaInVideo_A.csv,,,,,,,,,0,1,1,1,0,8,8,11,-0.3726851851851852,0.32083333333333336,1,0,0,5.158254600013606,call1,-0.004629629629629629,-0.1300925925925926,1,0,0,5.806190000032075,colour3,True,True,True,0.4356481481481482,-0.34444444444444444,1,0,0,6.739449599990621,number4,21,1,2019_Nov_14_1707,MA_Theta_Exp,3.0.7,61.10273326507573,
video/Experiment/zh_sp07_Dr_Ge_1_NoThetaInAudio_GlobalThetaInVideo.avi,noTheta,plusVideo,sp07,Dr,Ge,1,1,3,flow/blocks/NoThetaInAudio_GlobalThetaInVideo_A.csv,,,,,,,,,0,1,1,1,0,9,9,16,-0.42407407407407405,-0.30833333333333335,1,0,0,4.863350300001912,call4,0.03009259259259259,-0.2953703703703704,1,0,0,6.262230499996804,colour4,False,False,True,0.37175925925925923,0.3,1,0,0,6.891038300003856,number1,21,1,2019_Nov_14_1707,MA_Theta_Exp,3.0.7,61.10273326507573,
video/Experiment/zh_sp01_Dr_We_3_NoThetaInAudio_GlobalThetaInVideo.avi,noTheta,plusVideo,sp01,Dr,We,3,1,3,flow/blocks/NoThetaInAudio_GlobalThetaInVideo_A.csv,,,,,,,,,0,1,1,1,0,10,10,30,-0.4351851851851852,0.07824074074074074,1,0,0,5.221798700047657,call2,-0.0060185185185185185,-0.3023148148148148,1,0,0,5.853485399973579,colour4,True,True,True,0.3675925925925926,-0.08888888888888889,1,0,0,6.509452999976929,number3,21,1,2019_Nov_14_1707,MA_Theta_Exp,3.0.7,61.10273326507573,
video/Experiment/zh_sp01_Dr_Ro_2_NoThetaInAudio_GlobalThetaInVideo.avi,noTheta,plusVideo,sp01,Dr,Ro,2,1,3,flow/blocks/NoThetaInAudio_GlobalThetaInVideo_A.csv,,,,,,,,,0,1,1,1,0,11,11,25,-0.37407407407407406,0.08333333333333333,1,0,0,5.430668299959507,call2,0.009259259259259259,0.07083333333333333,1,0,0,6.074686000007205,colour2,True,False,True,0.42314814814814816,0.07916666666666666,1,0,0,6.856310200004373,number2,21,1,2019_Nov_14_1707,MA_Theta_Exp,3.0.7,61.10273326507573,
video/Experiment/zh_sp01_Dr_Ge_3_NoThetaInAudio_GlobalThetaInVideo.avi,noTheta,plusVideo,sp01,Dr,Ge,3,1,3,flow/blocks/NoThetaInAudio_GlobalThetaInVideo_A.csv,,,,,,,,,0,1,1,1,0,12,12,18,-0.4060185185185185,0.09166666666666666,1,0,0,4.998981800046749,call2,-0.02546296296296296,0.3013888888888889,1,0,0,5.656861800001934,colour1,True,True,True,0.3509259259259259,-0.08009259259259259,1,0,0,6.3548127000103705,number3,21,1,2019_Nov_14_1707,MA_Theta_Exp,3.0.7,61.10273326507573,
video/Experiment/zh_sp07_Ad_We_2_NoThetaInAudio_GlobalThetaInVideo.avi,noTheta,plusVideo,sp07,Ad,We,2,1,3,flow/blocks/NoThetaInAudio_GlobalThetaInVideo_A.csv,,,,,,,,,0,1,1,1,0,13,13,13,-0.3921296296296296,0.2986111111111111,1,0,0,5.010558400012087,call1,0.062037037037037036,-0.33287037037037037,1,0,0,5.76549179997528,colour4,True,True,True,0.38564814814814813,0.12777777777777777,1,0,0,6.410357800021302,number2,21,1,2019_Nov_14_1707,MA_Theta_Exp,3.0.7,61.10273326507573,
video/Experiment/zh_sp07_Ad_Ge_2_NoThetaInAudio_GlobalThetaInVideo.avi,noTheta,plusVideo,sp07,Ad,Ge,2,1,3,flow/blocks/NoThetaInAudio_GlobalThetaInVideo_A.csv,,,,,,,,,0,1,1,1,0,14,14,1,-0.3976851851851852,0.29444444444444445,1,0,0,5.003206200024579,call1,-0.01990740740740741,0.0824074074074074,1,0,0,5.666299399978016,colour2,True,False,True,0.3925925925925926,0.08611111111111111,1,0,0,6.174811700009741,number2,21,1,2019_Nov_14_1707,MA_Theta_Exp,3.0.7,61.10273326507573,
video/Experiment/zh_sp07_Dr_Ro_1_NoThetaInAudio_GlobalThetaInVideo.avi,noTheta,plusVideo,sp07,Dr,Ro,1,1,3,flow/blocks/NoThetaInAudio_GlobalThetaInVideo_A.csv,,,,,,,,,0,1,1,1,0,15,15,24,-0.42824074074074076,0.29444444444444445,1,0,0,4.29556350002531,call1,-0.01712962962962963,-0.11898148148148148,1,0,0,4.862383299972862,colour3,False,True,True,0.32175925925925924,0.29305555555555557,1,0,0,5.581064300029539,number1,21,1,2019_Nov_14_1707,MA_Theta_Exp,3.0.7,61.10273326507573,
video/Experiment/zh_sp01_Dr_Gr_3_NoThetaInAudio_GlobalThetaInVideo.avi,noTheta,plusVideo,sp01,Dr,Gr,3,1,3,flow/blocks/NoThetaInAudio_GlobalThetaInVideo_A.csv,,,,,,,,,0,1,1,1,0,16,16,22,-0.37546296296296294,0.10185185185185185,1,0,0,5.0525500000221655,call2,-0.031018518518518518,-0.32592592592592595,1,0,0,5.637220599979628,colour4,True,False,True,0.3939814814814815,-0.12222222222222222,1,0,0,6.177443600026891,number3,21,1,2019_Nov_14_1707,MA_Theta_Exp,3.0.7,61.10273326507573,
video/Experiment/zh_sp07_Ad_Ge_1_NoThetaInAudio_GlobalThetaInVideo.avi,noTheta,plusVideo,sp07,Ad,Ge,1,1,3,flow/blocks/NoThetaInAudio_GlobalThetaInVideo_A.csv,,,,,,,,,0,1,1,1,0,17,17,0,-0.4212962962962963,0.2625,1,0,0,4.570837700041011,call1,0.023148148148148147,0.275,1,0,0,5.123919299978297,colour1,True,True,True,0.43287037037037035,0.30694444444444446,1,0,0,5.632083200034685,number1,21,1,2019_Nov_14_1707,MA_Theta_Exp,3.0.7,61.10273326507573,
video/Experiment/zh_sp01_Ad_Ro_2_NoThetaInAudio_GlobalThetaInVideo.avi,noTheta,plusVideo,sp01,Ad,Ro,2,1,3,flow/blocks/NoThetaInAudio_GlobalThetaInVideo_A.csv,,,,,,,,,0,1,1,1,0,18,18,9,-0.38796296296296295,0.2671296296296296,1,0,0,5.584773000038695,call1,0.023148148148148147,-0.3800925925925926,1,0,0,6.217800899990834,colour4,True,False,False,0.4425925925925926,0.3263888888888889,1,0,0,6.934120899997652,number1,21,1,2019_Nov_14_1707,MA_Theta_Exp,3.0.7,61.10273326507573,
video/Experiment/zh_sp01_Ad_Ro_3_NoThetaInAudio_GlobalThetaInVideo.avi,noTheta,plusVideo,sp01,Ad,Ro,3,1,3,flow/blocks/NoThetaInAudio_GlobalThetaInVideo_A.csv,,,,,,,,,0,1,1,1,0,19,19,10,-0.41712962962962963,0.3111111111111111,1,0,0,5.005527600005735,call1,-0.011574074074074073,-0.12731481481481483,1,0,0,5.685729999968316,colour3,True,True,True,0.48009259259259257,-0.13194444444444445,1,0,0,6.287457900005393,number3,21,1,2019_Nov_14_1707,MA_Theta_Exp,3.0.7,61.10273326507573,
video/Experiment/zh_sp07_Dr_Gr_4_NoThetaInAudio_GlobalThetaInVideo.avi,noTheta,plusVideo,sp07,Dr,Gr,4,1,3,flow/blocks/NoThetaInAudio_GlobalThetaInVideo_A.csv,,,,,,,,,0,1,1,1,0,20,20,23,-0.4046296296296296,0.2777777777777778,1,0,0,4.739851999969687,call1,-0.000462962962962963,0.04722222222222222,1,0,0,5.385883699986152,colour2,False,True,True,0.38981481481481484,-0.337037037037037,1,0,0,6.018886799982283,number4,21,1,2019_Nov_14_1707,MA_Theta_Exp,3.0.7,61.10273326507573,
video/Experiment/zh_sp07_Dr_Ro_3_NoThetaInAudio_GlobalThetaInVideo.avi,noTheta,plusVideo,sp07,Dr,Ro,3,1,3,flow/blocks/NoThetaInAudio_GlobalThetaInVideo_A.csv,,,,,,,,,0,1,1,1,0,21,21,26,-0.38101851851851853,0.28888888888888886,1,0,0,4.418443400005344,call1,0.04259259259259259,-0.19398148148148148,1,0,0,5.005973999970593,colour3,False,True,False,0.46064814814814814,-0.3763888888888889,1,0,0,5.657154000014998,number4,21,1,2019_Nov_14_1707,MA_Theta_Exp,3.0.7,61.10273326507573,
video/Experiment/zh_sp07_Dr_Gr_1_NoThetaInAudio_GlobalThetaInVideo.avi,noTheta,plusVideo,sp07,Dr,Gr,1,1,3,flow/blocks/NoThetaInAudio_GlobalThetaInVideo_A.csv,,,,,,,,,0,1,1,1,0,22,22,20,-0.44351851851851853,0.26666666666666666,1,0,0,4.516255699971225,call1,-0.022685185185185187,0.04490740740740741,1,0,0,5.002906100009568,colour2,False,True,True,0.3537037037037037,0.2986111111111111,1,0,0,5.555630499962717,number1,21,1,2019_Nov_14_1707,MA_Theta_Exp,3.0.7,61.10273326507573,
video/Experiment/zh_sp07_Ad_Ro_1_NoThetaInAudio_GlobalThetaInVideo.avi,noTheta,plusVideo,sp07,Ad,Ro,1,1,3,flow/blocks/NoThetaInAudio_GlobalThetaInVideo_A.csv,,,,,,,,,0,1,1,1,0,23,23,8,-0.41435185185185186,0.2902777777777778,1,0,0,4.409540300024673,call1,-0.02962962962962963,-0.08287037037037037,1,0,0,5.153802799992263,colour3,True,True,True,0.3814814814814815,0.3194444444444444,1,0,0,6.055335900047794,number1,21,1,2019_Nov_14_1707,MA_Theta_Exp,3.0.7,61.10273326507573,
video/Experiment/zh_sp01_Ad_Gr_2_NoThetaInAudio_GlobalThetaInVideo.avi,noTheta,plusVideo,sp01,Ad,Gr,2,1,3,flow/blocks/NoThetaInAudio_GlobalThetaInVideo_A.csv,,,,,,,,,0,1,1,1,0,24,24,5,-0.3990740740740741,0.27824074074074073,1,0,0,5.462245200003963,call1,0.012037037037037037,0.05555555555555555,1,0,0,6.149186800001189,colour2,True,True,False,0.3578703703703704,0.28055555555555556,1,0,0,6.730919299996458,number1,21,1,2019_Nov_14_1707,MA_Theta_Exp,3.0.7,61.10273326507573,
video/Experiment/zh_sp01_Ad_Gr_1_NoThetaInAudio_GlobalThetaInVideo.avi,noTheta,plusVideo,sp01,Ad,Gr,1,1,3,flow/blocks/NoThetaInAudio_GlobalThetaInVideo_A.csv,,,,,,,,,0,1,1,1,0,25,25,4,-0.4185185185185185,0.29305555555555557,1,0,0,5.315732900053263,call1,-0.0032407407407407406,0.10462962962962963,1,0,0,6.068436499976087,colour2,True,True,True,0.449537037037037,0.28194444444444444,1,0,0,6.766348499979358,number1,21,1,2019_Nov_14_1707,MA_Theta_Exp,3.0.7,61.10273326507573,
video/Experiment/zh_sp07_Ad_We_4_NoThetaInAudio_GlobalThetaInVideo.avi,noTheta,plusVideo,sp07,Ad,We,4,1,3,flow/blocks/NoThetaInAudio_GlobalThetaInVideo_A.csv,,,,,,,,,0,1,1,1,0,26,26,15,-0.4601851851851852,0.2902777777777778,1,0,0,4.343822800030466,call1,-0.03935185185185185,-0.2800925925925926,1,0,0,5.0935433999984525,colour4,True,True,True,0.3912037037037037,-0.30648148148148147,1,0,0,5.652727300010156,number4,21,1,2019_Nov_14_1707,MA_Theta_Exp,3.0.7,61.10273326507573,
video/Experiment/zh_sp07_Ad_We_3_NoThetaInAudio_GlobalThetaInVideo.avi,noTheta,plusVideo,sp07,Ad,We,3,1,3,flow/blocks/NoThetaInAudio_GlobalThetaInVideo_A.csv,,,,,,,,,0,1,1,1,0,27,27,14,-0.39490740740740743,0.3,1,0,0,4.553793700004462,call1,-0.03657407407407407,-0.27870370370370373,1,0,0,5.303469499980565,colour4,True,True,False,0.4023148148148148,-0.31666666666666665,1,0,0,5.965077300032135,number4,21,1,2019_Nov_14_1707,MA_Theta_Exp,3.0.7,61.10273326507573,
video/Experiment/zh_sp07_Dr_We_1_NoThetaInAudio_GlobalThetaInVideo.avi,noTheta,plusVideo,sp07,Dr,We,1,1,3,flow/blocks/NoThetaInAudio_GlobalThetaInVideo_A.csv,,,,,,,,,0,1,1,1,0,28,28,28,-0.412962962962963,0.31666666666666665,1,0,0,4.587224300019443,call1,-0.000462962962962963,-0.34675925925925927,1,0,0,5.400132599985227,colour4,False,True,True,0.387037037037037,0.3194444444444444,1,0,0,6.235485400015023,number1,21,1,2019_Nov_14_1707,MA_Theta_Exp,3.0.7,61.10273326507573,
video/Experiment/zh_sp01_Dr_Ge_2_NoThetaInAudio_GlobalThetaInVideo.avi,noTheta,plusVideo,sp01,Dr,Ge,2,1,3,flow/blocks/NoThetaInAudio_GlobalThetaInVideo_A.csv,,,,,,,,,0,1,1,1,0,29,29,17,-0.43796296296296294,0.0962962962962963,1,0,0,5.250223900016863,call2,0.037037037037037035,0.07916666666666666,1,0,0,6.237325599999167,colour2,True,False,True,0.4203703703703704,0.10833333333333334,1,0,0,7.120276300003752,number2,21,1,2019_Nov_14_1707,MA_Theta_Exp,3.0.7,61.10273326507573,
video/Experiment/zh_sp01_Dr_We_4_NoThetaInAudio_GlobalThetaInVideo.avi,noTheta,plusVideo,sp01,Dr,We,4,1,3,flow/blocks/NoThetaInAudio_GlobalThetaInVideo_A.csv,,,,,,,,,0,1,1,1,0,30,30,31,-0.3976851851851852,0.08333333333333333,1,0,0,5.027479899988975,call2,0.009259259259259259,-0.29259259259259257,1,0,0,5.728342099988367,colour4,True,True,True,0.3925925925925926,-0.3050925925925926,1,0,0,6.5071482000057586,number4,21,1,2019_Nov_14_1707,MA_Theta_Exp,3.0.7,61.10273326507573,
video/Experiment/zh_sp01_Dr_Gr_2_NoThetaInAudio_GlobalThetaInVideo.avi,noTheta,plusVideo,sp01,Dr,Gr,2,1,3,flow/blocks/NoThetaInAudio_GlobalThetaInVideo_A.csv,,,,,,,,,0,1,1,1,0,31,31,21,-0.3685185185185185,0.08194444444444444,1,0,0,5.211615999985952,call2,-0.06712962962962964,0.08472222222222223,1,0,0,5.841700199991465,colour2,True,True,True,0.3384259259259259,0.08611111111111111,1,0,0,6.4738536000368185,number2,21,1,2019_Nov_14_1707,MA_Theta_Exp,3.0.7,61.10273326507573,
video/Experiment/zh_sp01_Ad_We_3_GlobalTheta_NoVideo.avi,globalTheta,noVideo,sp01,Ad,We,3,2,5,flow/blocks/GlobalTheta_NoVideo_A.csv,,,,,,,,,0,2,2,2,0,0,0,14,-0.43657407407407406,0.2513888888888889,1,0,0,5.690591700025834,call1,-0.04490740740740741,-0.33287037037037037,1,0,0,6.5735985999926925,colour4,True,True,True,0.4412037037037037,-0.14027777777777778,1,0,0,7.361579500022344,number3,21,1,2019_Nov_14_1707,MA_Theta_Exp,3.0.7,61.10273326507573,
video/Experiment/zh_sp01_Ad_Ge_2_GlobalTheta_NoVideo.avi,globalTheta,noVideo,sp01,Ad,Ge,2,2,5,flow/blocks/GlobalTheta_NoVideo_A.csv,,,,,,,,,0,2,2,2,0,1,1,1,-0.45046296296296295,0.2611111111111111,1,0,0,5.294377900019754,call1,-0.007407407407407408,0.2611111111111111,1,0,0,5.940936799976043,colour1,True,True,True,0.3939814814814815,0.09074074074074075,1,0,0,6.645701700006612,number2,21,1,2019_Nov_14_1707,MA_Theta_Exp,3.0.7,61.10273326507573,
video/Experiment/zh_sp01_Dr_Gr_2_GlobalTheta_NoVideo.avi,globalTheta,noVideo,sp01,Dr,Gr,2,2,5,flow/blocks/GlobalTheta_NoVideo_A.csv,,,,,,,,,0,2,2,2,0,2,2,21,-0.3768518518518518,0.26944444444444443,1,0,0,5.320439199975226,call1,0.027314814814814816,0.06435185185185185,1,0,0,5.93946359999245,colour2,False,True,True,0.41203703703703703,0.0763888888888889,1,0,0,6.592920899973251,number2,21,1,2019_Nov_14_1707,MA_Theta_Exp,3.0.7,61.10273326507573,
video/Experiment/zh_sp07_Dr_Ge_4_GlobalTheta_NoVideo.avi,globalTheta,noVideo,sp07,Dr,Ge,4,2,5,flow/blocks/GlobalTheta_NoVideo_A.csv,,,,,,,,,0,2,2,2,0,3,3,19,-0.3962962962962963,0.1486111111111111,1,0,0,4.75913690001471,call2,-0.010185185185185186,0.1486111111111111,1,0,0,5.640494399995077,colour2,True,False,False,0.38287037037037036,0.10740740740740741,1,0,0,6.260076900012791,number2,21,1,2019_Nov_14_1707,MA_Theta_Exp,3.0.7,61.10273326507573,
video/Experiment/zh_sp07_Ad_Gr_3_GlobalTheta_NoVideo.avi,globalTheta,noVideo,sp07,Ad,Gr,3,2,5,flow/blocks/GlobalTheta_NoVideo_A.csv,,,,,,,,,0,2,2,2,0,4,4,6,-0.4101851851851852,0.11388888888888889,1,0,0,4.396628599963151,call2,-0.040740740740740744,0.11388888888888889,1,0,0,5.038553900027182,colour2,False,True,True,0.3662037037037037,-0.09953703703703703,1,0,0,5.697888599999715,number3,21,1,2019_Nov_14_1707,MA_Theta_Exp,3.0.7,61.10273326507573,
video/Experiment/zh_sp01_Dr_Gr_3_GlobalTheta_NoVideo.avi,globalTheta,noVideo,sp01,Dr,Gr,3,2,5,flow/blocks/GlobalTheta_NoVideo_A.csv,,,,,,,,,0,2,2,2,0,5,5,22,-0.42824074074074076,0.10416666666666667,1,0,0,4.765142599993851,call2,-0.07546296296296297,0.10555555555555556,1,0,0,5.364416399970651,colour2,True,True,True,0.3578703703703704,-0.10648148148148148,1,0,0,6.0029280000017025,number3,21,1,2019_Nov_14_1707,MA_Theta_Exp,3.0.7,61.10273326507573,
video/Experiment/zh_sp01_Ad_Gr_1_GlobalTheta_NoVideo.avi,globalTheta,noVideo,sp01,Ad,Gr,1,2,5,flow/blocks/GlobalTheta_NoVideo_A.csv,,,,,,,,,0,2,2,2,0,6,6,4,-0.37824074074074077,0.11157407407407408,1,0,0,5.771906600042712,call2,-0.046296296296296294,0.09490740740740741,1,0,0,6.303644399973564,colour2,False,True,True,0.3773148148148148,0.3194444444444444,1,0,0,6.9236552999936976,number1,21,1,2019_Nov_14_1707,MA_Theta_Exp,3.0.7,61.10273326507573,
video/Experiment/zh_sp07_Ad_We_4_GlobalTheta_NoVideo.avi,globalTheta,noVideo,sp07,Ad,We,4,2,5,flow/blocks/GlobalTheta_NoVideo_A.csv,,,,,,,,,0,2,2,2,0,7,7,15,-0.42685185185185187,0.26666666666666666,1,0,0,4.467501100036316,call1,-0.046296296296296294,0.06574074074074074,1,0,0,5.085761499998625,colour2,True,False,True,0.3773148148148148,-0.34120370370370373,1,0,0,5.705605100025423,number4,21,1,2019_Nov_14_1707,MA_Theta_Exp,3.0.7,61.10273326507573,
video/Experiment/zh_sp07_Ad_Ro_3_GlobalTheta_NoVideo.avi,globalTheta,noVideo,sp07,Ad,Ro,3,2,5,flow/blocks/GlobalTheta_NoVideo_A.csv,,,,,,,,,0,2,2,2,0,8,8,10,-0.4046296296296296,0.26666666666666666,1,0,0,4.634063200035598,call1,-0.07546296296296297,0.2847222222222222,1,0,0,5.236030699976254,colour1,True,False,True,0.40925925925925927,-0.16898148148148148,1,0,0,5.850686500023585,number3,21,1,2019_Nov_14_1707,MA_Theta_Exp,3.0.7,61.10273326507573,
video/Experiment/zh_sp01_Dr_Ge_3_GlobalTheta_NoVideo.avi,globalTheta,noVideo,sp01,Dr,Ge,3,2,5,flow/blocks/GlobalTheta_NoVideo_A.csv,,,,,,,,,0,2,2,2,0,9,9,18,-0.37407407407407406,0.2375,1,0,0,5.27092719997745,call1,-0.046296296296296294,0.2388888888888889,1,0,0,5.8612766999867745,colour1,False,True,True,0.43425925925925923,-0.1398148148148148,1,0,0,6.516172199975699,number3,21,1,2019_Nov_14_1707,MA_Theta_Exp,3.0.7,61.10273326507573,
video/Experiment/zh_sp01_Dr_Ro_3_GlobalTheta_NoVideo.avi,globalTheta,noVideo,sp01,Dr,Ro,3,2,5,flow/blocks/GlobalTheta_NoVideo_A.csv,,,,,,,,,0,2,2,2,0,10,10,26,-0.3476851851851852,0.09861111111111111,1,0,0,4.8427146000321954,call2,-0.018518518518518517,0.26944444444444443,1,0,0,5.398194200010039,colour1,True,False,True,0.39675925925925926,-0.1412037037037037,1,0,0,6.01136810000753,number3,21,1,2019_Nov_14_1707,MA_Theta_Exp,3.0.7,61.10273326507573,
video/Experiment/zh_sp01_Ad_We_2_GlobalTheta_NoVideo.avi,globalTheta,noVideo,sp01,Ad,We,2,2,5,flow/blocks/GlobalTheta_NoVideo_A.csv,,,,,,,,,0,2,2,2,0,11,11,13,-0.40046296296296297,0.27546296296296297,1,0,0,5.028658299997915,call1,0.04398148148148148,-0.29814814814814816,1,0,0,5.626213399984408,colour4,True,True,True,0.36064814814814816,0.08194444444444444,1,0,0,6.339410299959127,number2,21,1,2019_Nov_14_1707,MA_Theta_Exp,3.0.7,61.10273326507573,
video/Experiment/zh_sp01_Dr_Ro_2_GlobalTheta_NoVideo.avi,globalTheta,noVideo,sp01,Dr,Ro,2,2,5,flow/blocks/GlobalTheta_NoVideo_A.csv,,,,,,,,,0,2,2,2,0,12,12,25,-0.4060185185185185,0.25416666666666665,1,0,0,5.329503200016916,call1,0.003703703703703704,-0.36898148148148147,1,0,0,6.161221699963789,colour4,False,False,True,0.3592592592592593,0.08055555555555556,1,0,0,6.928396600007545,number2,21,1,2019_Nov_14_1707,MA_Theta_Exp,3.0.7,61.10273326507573,
video/Experiment/zh_sp07_Dr_Ge_2_GlobalTheta_NoVideo.avi,globalTheta,noVideo,sp07,Dr,Ge,2,2,5,flow/blocks/GlobalTheta_NoVideo_A.csv,,,,,,,,,0,2,2,2,0,13,13,17,-0.3699074074074074,0.2638888888888889,1,0,0,4.870927799958736,call1,0.04398148148148148,0.2791666666666667,1,0,0,5.487002100038808,colour1,False,True,True,0.3787037037037037,0.06296296296296296,1,0,0,6.160262199991848,number2,21,1,2019_Nov_14_1707,MA_Theta_Exp,3.0.7,61.10273326507573,
video/Experiment/zh_sp07_Ad_Ro_2_GlobalTheta_NoVideo.avi,globalTheta,noVideo,sp07,Ad,Ro,2,2,5,flow/blocks/GlobalTheta_NoVideo_A.csv,,,,,,,,,0,2,2,2,0,14,14,9,-0.38657407407407407,0.25462962962962965,1,0,0,4.561469300009776,call1,0.023148148148148147,0.25277777777777777,1,0,0,5.455936800048221,colour1,True,False,True,0.41064814814814815,0.08935185185185185,1,0,0,6.104290699993726,number2,21,1,2019_Nov_14_1707,MA_Theta_Exp,3.0.7,61.10273326507573,
video/Experiment/zh_sp07_Dr_We_3_GlobalTheta_NoVideo.avi,globalTheta,noVideo,sp07,Dr,We,3,2,5,flow/blocks/GlobalTheta_NoVideo_A.csv,,,,,,,,,0,2,2,2,0,15,15,30,-0.3921296296296296,0.2791666666666667,1,0,0,5.423659499967471,call1,0.025925925925925925,0.06851851851851852,1,0,0,6.069196099997498,colour2,False,False,False,0.4023148148148148,-0.2967592592592593,1,0,0,6.660544699989259,number4,21,1,2019_Nov_14_1707,MA_Theta_Exp,3.0.7,61.10273326507573,
video/Experiment/zh_sp01_Dr_We_2_GlobalTheta_NoVideo.avi,globalTheta,noVideo,sp01,Dr,We,2,2,5,flow/blocks/GlobalTheta_NoVideo_A.csv,,,,,,,,,0,2,2,2,0,16,16,29,-0.38796296296296295,0.24583333333333332,1,0,0,5.243297600012738,call1,0.0023148148148148147,-0.337037037037037,1,0,0,6.004293200036045,colour4,False,True,True,0.3773148148148148,0.11805555555555555,1,0,0,6.890631199989002,number2,21,1,2019_Nov_14_1707,MA_Theta_Exp,3.0.7,61.10273326507573,
video/Experiment/zh_sp07_Dr_Gr_4_GlobalTheta_NoVideo.avi,globalTheta,noVideo,sp07,Dr,Gr,4,2,5,flow/blocks/GlobalTheta_NoVideo_A.csv,,,,,,,,,0,2,2,2,0,17,17,23,-0.4185185185185185,0.25833333333333336,1,0,0,4.346083200012799,call1,-0.03796296296296296,0.06712962962962964,1,0,0,4.964985799975693,colour2,False,True,False,0.4425925925925926,-0.14166666666666666,1,0,0,5.745978300052229,number3,21,1,2019_Nov_14_1707,MA_Theta_Exp,3.0.7,61.10273326507573,
video/Experiment/zh_sp07_Ad_Ro_1_GlobalTheta_NoVideo.avi,globalTheta,noVideo,sp07,Ad,Ro,1,2,5,flow/blocks/GlobalTheta_NoVideo_A.csv,,,,,,,,,0,2,2,2,0,18,18,8,-0.38935185185185184,0.25833333333333336,1,0,0,4.459174100018572,call1,0.023148148148148147,0.2861111111111111,1,0,0,5.023599100008141,colour1,True,False,True,0.40370370370370373,0.29583333333333334,1,0,0,5.608122200006619,number1,21,1,2019_Nov_14_1707,MA_Theta_Exp,3.0.7,61.10273326507573,
video/Experiment/zh_sp01_Dr_Gr_1_GlobalTheta_NoVideo.avi,globalTheta,noVideo,sp01,Dr,Gr,1,2,5,flow/blocks/GlobalTheta_NoVideo_A.csv,,,,,,,,,0,2,2,2,0,19,19,20,-0.42407407407407405,0.0875,1,0,0,5.027937099977862,call2,-0.03935185185185185,0.09861111111111111,1,0,0,5.564664899953641,colour2,True,True,True,0.38425925925925924,0.2625,1,0,0,6.121883100015111,number1,21,1,2019_Nov_14_1707,MA_Theta_Exp,3.0.7,61.10273326507573,
video/Experiment/zh_sp01_Ad_Ge_3_GlobalTheta_NoVideo.avi,globalTheta,noVideo,sp01,Ad,Ge,3,2,5,flow/blocks/GlobalTheta_NoVideo_A.csv,,,,,,,,,0,2,2,2,0,20,20,2,-0.42962962962962964,0.2763888888888889,1,0,0,5.353326099982951,call1,-0.022685185185185187,0.3013888888888889,1,0,0,6.093442299985327,colour1,True,True,True,0.4287037037037037,-0.1537037037037037,1,0,0,6.87571570003638,number3,21,1,2019_Nov_14_1707,MA_Theta_Exp,3.0.7,61.10273326507573,
video/Experiment/zh_sp07_Dr_We_4_GlobalTheta_NoVideo.avi,globalTheta,noVideo,sp07,Dr,We,4,2,5,flow/blocks/GlobalTheta_NoVideo_A.csv,,,,,,,,,0,2,2,2,0,21,21,31,-0.41435185185185186,0.25972222222222224,1,0,0,4.778195600025356,call1,-0.01574074074074074,-0.29398148148148145,1,0,0,5.535551999986637,colour4,False,True,False,0.43287037037037035,-0.1361111111111111,1,0,0,6.142868900031317,number3,21,1,2019_Nov_14_1707,MA_Theta_Exp,3.0.7,61.10273326507573,
video/Experiment/zh_sp01_Dr_Ro_1_GlobalTheta_NoVideo.avi,globalTheta,noVideo,sp01,Dr,Ro,1,2,5,flow/blocks/GlobalTheta_NoVideo_A.csv,,,,,,,,,0,2,2,2,0,22,22,24,-0.36435185185185187,0.0763888888888889,1,0,0,5.5500635000062175,call2,0.03425925925925926,0.09861111111111111,1,0,0,6.340944900002796,colour2,True,False,True,0.42314814814814816,0.3055555555555556,1,0,0,7.15708849998191,number1,21,1,2019_Nov_14_1707,MA_Theta_Exp,3.0.7,61.10273326507573,
video/Experiment/zh_sp07_Dr_Ge_1_GlobalTheta_NoVideo.avi,globalTheta,noVideo,sp07,Dr,Ge,1,2,5,flow/blocks/GlobalTheta_NoVideo_A.csv,,,,,,,,,0,2,2,2,0,23,23,16,-0.39351851851851855,0.26666666666666666,1,0,0,5.52466260001529,call1,0.003703703703703704,0.27361111111111114,1,0,0,6.1476697999751195,colour1,False,True,True,0.34675925925925927,0.28055555555555556,1,0,0,6.683255499985535,number1,21,1,2019_Nov_14_1707,MA_Theta_Exp,3.0.7,61.10273326507573,
video/Experiment/zh_sp07_Ad_Ge_4_GlobalTheta_NoVideo.avi,globalTheta,noVideo,sp07,Ad,Ge,4,2,5,flow/blocks/GlobalTheta_NoVideo_A.csv,,,,,,,,,0,2,2,2,0,24,24,3,-0.37546296296296294,0.24583333333333332,1,0,0,5.668797899968922,call1,-0.03518518518518519,0.05555555555555555,1,0,0,7.419754700036719,colour2,True,False,True,0.3189814814814815,-0.27870370370370373,1,0,0,7.917161499965005,number4,21,1,2019_Nov_14_1707,MA_Theta_Exp,3.0.7,61.10273326507573,
video/Experiment/zh_sp01_Ad_Ge_1_GlobalTheta_NoVideo.avi,globalTheta,noVideo,sp01,Ad,Ge,1,2,5,flow/blocks/GlobalTheta_NoVideo_A.csv,,,,,,,,,0,2,2,2,0,25,25,0,-0.3921296296296296,0.25972222222222224,1,0,0,5.554528600012418,call1,-0.024074074074074074,0.2611111111111111,1,0,0,6.251872300053947,colour1,True,True,True,0.38287037037037036,0.3194444444444444,1,0,0,7.010745000035968,number1,21,1,2019_Nov_14_1707,MA_Theta_Exp,3.0.7,61.10273326507573,
video/Experiment/zh_sp07_Ad_Gr_2_GlobalTheta_NoVideo.avi,globalTheta,noVideo,sp07,Ad,Gr,2,2,5,flow/blocks/GlobalTheta_NoVideo_A.csv,,,,,,,,,0,2,2,2,0,26,26,5,-0.40324074074074073,0.29305555555555557,1,0,0,5.196451900003012,call1,0.037037037037037035,0.08518518518518518,1,0,0,5.897911500011105,colour2,True,True,False,0.4356481481481482,0.3194444444444444,1,0,0,6.705500399984885,number1,21,1,2019_Nov_14_1707,MA_Theta_Exp,3.0.7,61.10273326507573,
video/Experiment/zh_sp01_Dr_We_1_GlobalTheta_NoVideo.avi,globalTheta,noVideo,sp01,Dr,We,1,2,5,flow/blocks/GlobalTheta_NoVideo_A.csv,,,,,,,,,0,2,2,2,0,27,27,28,-0.3726851851851852,0.08101851851851852,1,0,0,4.938308399985544,call2,-0.010185185185185186,-0.3425925925925926,1,0,0,5.695519600005355,colour4,True,True,True,0.41064814814814815,0.24861111111111112,1,0,0,6.593435699993279,number1,21,1,2019_Nov_14_1707,MA_Theta_Exp,3.0.7,61.10273326507573,
video/Experiment/zh_sp07_Dr_Ro_4_GlobalTheta_NoVideo.avi,globalTheta,noVideo,sp07,Dr,Ro,4,2,5,flow/blocks/GlobalTheta_NoVideo_A.csv,,,,,,,,,0,2,2,2,0,28,28,27,-0.40185185185185185,0.2777777777777778,1,0,0,5.081990099977702,call1,0.00787037037037037,0.2986111111111111,1,0,0,6.145712200028356,colour1,False,False,True,0.399537037037037,-0.3537037037037037,1,0,0,6.810023800004274,number4,21,1,2019_Nov_14_1707,MA_Theta_Exp,3.0.7,61.10273326507573,
video/Experiment/zh_sp07_Ad_We_1_GlobalTheta_NoVideo.avi,globalTheta,noVideo,sp07,Ad,We,1,2,5,flow/blocks/GlobalTheta_NoVideo_A.csv,,,,,,,,,0,2,2,2,0,29,29,12,-0.41574074074074074,0.27361111111111114,1,0,0,4.107691399985924,call1,-0.01574074074074074,-0.3050925925925926,1,0,0,4.781429700029548,colour4,True,True,True,0.41759259259259257,0.28194444444444444,1,0,0,5.8211256000213325,number1,21,1,2019_Nov_14_1707,MA_Theta_Exp,3.0.7,61.10273326507573,
video/Experiment/zh_sp07_Ad_Gr_4_GlobalTheta_NoVideo.avi,globalTheta,noVideo,sp07,Ad,Gr,4,2,5,flow/blocks/GlobalTheta_NoVideo_A.csv,,,,,,,,,0,2,2,2,0,30,30,7,-0.41435185185185186,0.3,1,0,0,4.346276199968997,call1,0.017592592592592594,0.05555555555555555,1,0,0,4.927964300033636,colour2,True,True,True,0.4356481481481482,-0.37037037037037035,1,0,0,5.602486499992665,number4,21,1,2019_Nov_14_1707,MA_Theta_Exp,3.0.7,61.10273326507573,
video/Experiment/zh_sp01_Ad_Ro_4_GlobalTheta_NoVideo.avi,globalTheta,noVideo,sp01,Ad,Ro,4,2,5,flow/blocks/GlobalTheta_NoVideo_A.csv,,,,,,,,,0,2,2,2,0,31,31,11,-0.38657407407407407,0.3347222222222222,1,0,0,5.1944321999908425,call1,0.025925925925925925,-0.1037037037037037,1,0,0,5.863394799991511,colour3,True,True,True,0.4217592592592593,-0.33425925925925926,1,0,0,6.556343499978539,number4,21,1,2019_Nov_14_1707,MA_Theta_Exp,3.0.7,61.10273326507573,
