videoFile,condition,video,speaker,callSign,colour,number,seq,id,block,exp.thisRepN,exp.thisTrialN,exp.thisN,exp.thisIndex,training.thisRepN,training.thisTrialN,training.thisN,training.thisIndex,firstHalf.thisRepN,firstHalf.thisTrialN,firstHalf.thisN,firstHalf.thisIndex,blocksA.thisRepN,blocksA.thisTrialN,blocksA.thisN,blocksA.thisIndex,mouseClickOnCall.x,mouseClickOnCall.y,mouseClickOnCall.leftButton,mouseClickOnCall.midButton,mouseClickOnCall.rightButton,mouseClickOnCall.time,mouseClickOnCall.clicked_name,mouseClickOnColour.x,mouseClickOnColour.y,mouseClickOnColour.leftButton,mouseClickOnColour.midButton,mouseClickOnColour.rightButton,mouseClickOnColour.time,mouseClickOnColour.clicked_name,mouseClickOnNumber.x,mouseClickOnNumber.y,mouseClickOnNumber.leftButton,mouseClickOnNumber.midButton,mouseClickOnNumber.rightButton,mouseClickOnNumber.time,mouseClickOnNumber.clicked_name,callSignCorrect,colourCorrect,numberCorrect,participant,order,date,expName,psychopyVersion,frameRate,
video/Training/zh_sp01_Ad_We_4_NVocInAudio_NoVideo.avi,vocoded,noVideo,sp01,Ad,We,4,,,,,,,,0,0,0,0,,,,,,,,,-0.4152777777777778,0.2810185185185185,1,0,0,5.877115499984939,call1,-0.018055555555555554,-0.35509259259259257,1,0,0,6.681103999959305,colour4,0.4597222222222222,-0.3287037037037037,1,0,0,7.460879800026305,number4,True,True,True,23,3,2019_Nov_15_1454,MA_Theta_Exp,3.0.7,59.75207668071742,
video/Training/zh_sp07_Ad_Ge_3_NVocInAudio_NoVideo.avi,vocoded,noVideo,sp07,Ad,Ge,3,,,,,,,,0,1,1,1,,,,,,,,,-0.3875,0.31712962962962965,1,0,0,5.179807399981655,call1,0.013888888888888888,0.29212962962962963,1,0,0,5.759853900002781,colour1,0.4486111111111111,-0.10648148148148148,1,0,0,6.365348699968308,number3,True,True,True,23,3,2019_Nov_15_1454,MA_Theta_Exp,3.0.7,59.75207668071742,
video/Training/zh_sp01_Dr_Ro_3_NVocInAudio_GlobalThetaInVideo.avi,vocoded,plusVideo,sp01,Dr,Ro,3,,,,,,,,0,2,2,2,,,,,,,,,-0.3972222222222222,0.11527777777777778,1,0,0,5.441333999973722,call2,0.022222222222222223,-0.1175925925925926,1,0,0,5.978126099973451,colour3,0.43472222222222223,-0.1,1,0,0,6.592915800050832,number3,True,True,True,23,3,2019_Nov_15_1454,MA_Theta_Exp,3.0.7,59.75207668071742,
video/Training/zh_sp07_Dr_Gr_4_NVocInAudio_GlobalThetaInVideo.avi,vocoded,plusVideo,sp07,Dr,Gr,4,,,,,,,,0,3,3,3,,,,,,,,,-0.38472222222222224,0.07685185185185185,1,0,0,4.830702800012659,call2,-0.002777777777777778,0.09305555555555556,1,0,0,5.863428800017573,colour2,0.37916666666666665,-0.3578703703703704,1,0,0,6.649317500006873,number4,True,True,True,23,3,2019_Nov_15_1454,MA_Theta_Exp,3.0.7,59.75207668071742,
video/Training/zh_sp01_Ti_Gr_2_NoThetaInAudio_NoVideo.avi,noTheta,noVideo,sp01,Ti,Gr,2,,,,,,,,0,4,4,4,,,,,,,,,-0.3625,0.27361111111111114,1,0,0,7.796823400014546,call1,0.03611111111111111,0.10462962962962963,1,0,0,8.295905699953437,colour2,0.39861111111111114,0.06574074074074074,1,0,0,8.712822200031951,number2,False,True,True,23,3,2019_Nov_15_1454,MA_Theta_Exp,3.0.7,59.75207668071742,
video/Training/zh_sp07_Ti_Ro_1_NoThetaInAudio_NoVideo.avi,noTheta,noVideo,sp07,Ti,Ro,1,,,,,,,,0,5,5,5,,,,,,,,,-0.36944444444444446,-0.09861111111111111,1,0,0,4.779996900004335,call3,-0.004166666666666667,-0.09027777777777778,1,0,0,5.310183800000232,colour3,0.4041666666666667,0.27685185185185185,1,0,0,5.9570595000404865,number1,True,True,True,23,3,2019_Nov_15_1454,MA_Theta_Exp,3.0.7,59.75207668071742,
video/Training/zh_sp01_Un_Ge_1_NoThetaInAudio_GlobalThetaInVideo.avi,noTheta,plusVideo,sp01,Un,Ge,1,,,,,,,,0,6,6,6,,,,,,,,,-0.42083333333333334,-0.32314814814814813,1,0,0,5.292638899991289,call4,0.022222222222222223,0.32083333333333336,1,0,0,6.004118199984077,colour1,0.35138888888888886,0.3212962962962963,1,0,0,6.538646699977107,number1,True,True,True,23,3,2019_Nov_15_1454,MA_Theta_Exp,3.0.7,59.75207668071742,
video/Training/zh_sp07_Un_We_2_NoThetaInAudio_GlobalThetaInVideo.avi,noTheta,plusVideo,sp07,Un,We,2,,,,,,,,0,7,7,7,,,,,,,,,-0.41388888888888886,0.11157407407407408,1,0,0,6.607454899989534,call2,0.018055555555555554,-0.29305555555555557,1,0,0,7.218943399959244,colour4,0.41805555555555557,0.08194444444444444,1,0,0,7.907573500007857,number2,False,True,True,23,3,2019_Nov_15_1454,MA_Theta_Exp,3.0.7,59.75207668071742,
video/Training/zh_sp01_Ad_Ge_1_GlobalTheta_NoVideo.avi,globalTheta,noVideo,sp01,Ad,Ge,1,,,,,,,,0,8,8,8,,,,,,,,,-0.4222222222222222,0.3337962962962963,1,0,0,5.261621399957221,call1,0.025,0.30185185185185187,1,0,0,5.716194300039206,colour1,0.46805555555555556,0.3125,1,0,0,6.2768588999751955,number1,True,True,True,23,3,2019_Nov_15_1454,MA_Theta_Exp,3.0.7,59.75207668071742,
video/Training/zh_sp07_Ad_Ro_3_GlobalTheta_NoVideo.avi,globalTheta,noVideo,sp07,Ad,Ro,3,,,,,,,,0,9,9,9,,,,,,,,,-0.4375,0.2810185185185185,1,0,0,5.515651199966669,call1,-0.008333333333333333,-0.32314814814814813,1,0,0,6.181205500033684,colour4,0.36944444444444446,-0.10925925925925926,1,0,0,6.983796599961352,number3,True,False,True,23,3,2019_Nov_15_1454,MA_Theta_Exp,3.0.7,59.75207668071742,
video/Experiment/zh_sp07_Ad_Gr_4_GlobalTheta_NoVideo.avi,globalTheta,noVideo,sp07,Ad,Gr,4,0,5,flow/blocks/GlobalTheta_NoVideo_A.csv,,,,,,,,,0,0,0,0,0,0,0,7,-0.40694444444444444,0.30833333333333335,1,0,0,4.35739590000594,call1,0.05138888888888889,0.06574074074074074,1,0,0,4.994384499965236,colour2,0.4152777777777778,-0.3375,1,0,0,5.960990699997637,number4,True,True,True,23,3,2019_Nov_15_1454,MA_Theta_Exp,3.0.7,59.75207668071742,
video/Experiment/zh_sp01_Dr_We_1_GlobalTheta_NoVideo.avi,globalTheta,noVideo,sp01,Dr,We,1,0,5,flow/blocks/GlobalTheta_NoVideo_A.csv,,,,,,,,,0,0,0,0,0,1,1,28,-0.37777777777777777,0.09490740740740741,1,0,0,5.257689099991694,call2,-0.001388888888888889,-0.3106481481481482,1,0,0,5.942868300015107,colour4,0.4013888888888889,0.3060185185185185,1,0,0,7.026711600017734,number1,True,True,True,23,3,2019_Nov_15_1454,MA_Theta_Exp,3.0.7,59.75207668071742,
video/Experiment/zh_sp01_Dr_Gr_1_GlobalTheta_NoVideo.avi,globalTheta,noVideo,sp01,Dr,Gr,1,0,5,flow/blocks/GlobalTheta_NoVideo_A.csv,,,,,,,,,0,0,0,0,0,2,2,20,-0.38472222222222224,-0.09259259259259259,1,0,0,5.344238199992105,call3,-0.04027777777777778,0.09583333333333334,1,0,0,5.896492499974556,colour2,0.44722222222222224,0.325,1,0,0,6.5950576000032015,number1,False,True,True,23,3,2019_Nov_15_1454,MA_Theta_Exp,3.0.7,59.75207668071742,
video/Experiment/zh_sp07_Dr_Ro_4_GlobalTheta_NoVideo.avi,globalTheta,noVideo,sp07,Dr,Ro,4,0,5,flow/blocks/GlobalTheta_NoVideo_A.csv,,,,,,,,,0,0,0,0,0,3,3,27,-0.41805555555555557,0.09305555555555556,1,0,0,5.031318599998485,call2,-0.06666666666666667,0.07546296296296297,1,0,0,5.560313499998301,colour2,0.37083333333333335,-0.28055555555555556,1,0,0,6.427223499980755,number4,True,False,True,23,3,2019_Nov_15_1454,MA_Theta_Exp,3.0.7,59.75207668071742,
video/Experiment/zh_sp01_Ad_Gr_1_GlobalTheta_NoVideo.avi,globalTheta,noVideo,sp01,Ad,Gr,1,0,5,flow/blocks/GlobalTheta_NoVideo_A.csv,,,,,,,,,0,0,0,0,0,4,4,4,-0.36666666666666664,0.30277777777777776,1,0,0,5.200100499961991,call1,0.034722222222222224,0.07268518518518519,1,0,0,5.916895500035025,colour2,0.38055555555555554,0.28888888888888886,1,0,0,6.634578199998941,number1,True,True,True,23,3,2019_Nov_15_1454,MA_Theta_Exp,3.0.7,59.75207668071742,
video/Experiment/zh_sp07_Dr_Ge_4_GlobalTheta_NoVideo.avi,globalTheta,noVideo,sp07,Dr,Ge,4,0,5,flow/blocks/GlobalTheta_NoVideo_A.csv,,,,,,,,,0,0,0,0,0,5,5,19,-0.4027777777777778,-0.12222222222222222,1,0,0,4.8913244000286795,call3,0.059722222222222225,-0.34120370370370373,1,0,0,6.079974299995229,colour4,0.44166666666666665,-0.31666666666666665,1,0,0,6.6848669000319205,number4,False,False,True,23,3,2019_Nov_15_1454,MA_Theta_Exp,3.0.7,59.75207668071742,
video/Experiment/zh_sp07_Ad_Ge_4_GlobalTheta_NoVideo.avi,globalTheta,noVideo,sp07,Ad,Ge,4,0,5,flow/blocks/GlobalTheta_NoVideo_A.csv,,,,,,,,,0,0,0,0,0,6,6,3,-0.3819444444444444,0.29074074074074074,1,0,0,4.645758000027854,call1,-0.001388888888888889,0.300462962962963,1,0,0,5.201149399974383,colour1,0.4097222222222222,-0.31342592592592594,1,0,0,6.295482000045013,number4,True,True,True,23,3,2019_Nov_15_1454,MA_Theta_Exp,3.0.7,59.75207668071742,
video/Experiment/zh_sp01_Dr_Ro_2_GlobalTheta_NoVideo.avi,globalTheta,noVideo,sp01,Dr,Ro,2,0,5,flow/blocks/GlobalTheta_NoVideo_A.csv,,,,,,,,,0,0,0,0,0,7,7,25,-0.43194444444444446,-0.1125,1,0,0,5.350150200014468,call3,-0.04583333333333333,-0.13148148148148148,1,0,0,5.9135699000325985,colour3,0.37083333333333335,0.07268518518518519,1,0,0,6.568760800000746,number2,False,True,True,23,3,2019_Nov_15_1454,MA_Theta_Exp,3.0.7,59.75207668071742,
video/Experiment/zh_sp07_Ad_Gr_2_GlobalTheta_NoVideo.avi,globalTheta,noVideo,sp07,Ad,Gr,2,0,5,flow/blocks/GlobalTheta_NoVideo_A.csv,,,,,,,,,0,0,0,0,0,8,8,5,-0.36944444444444446,0.3125,1,0,0,4.58573679998517,call1,0.018055555555555554,0.14074074074074075,1,0,0,5.2893489000271074,colour2,0.425,0.0837962962962963,1,0,0,5.972783699980937,number2,True,True,True,23,3,2019_Nov_15_1454,MA_Theta_Exp,3.0.7,59.75207668071742,
video/Experiment/zh_sp01_Ad_We_3_GlobalTheta_NoVideo.avi,globalTheta,noVideo,sp01,Ad,We,3,0,5,flow/blocks/GlobalTheta_NoVideo_A.csv,,,,,,,,,0,0,0,0,0,9,9,14,-0.45,0.2902777777777778,1,0,0,5.466223300027195,call1,0.015277777777777777,-0.3314814814814815,1,0,0,6.290204699966125,colour4,0.4013888888888889,-0.11944444444444445,1,0,0,7.016131200012751,number3,True,True,True,23,3,2019_Nov_15_1454,MA_Theta_Exp,3.0.7,59.75207668071742,
video/Experiment/zh_sp07_Ad_Gr_3_GlobalTheta_NoVideo.avi,globalTheta,noVideo,sp07,Ad,Gr,3,0,5,flow/blocks/GlobalTheta_NoVideo_A.csv,,,,,,,,,0,0,0,0,0,10,10,6,-0.4097222222222222,0.325,1,0,0,4.430588699993677,call1,0.009722222222222222,0.06296296296296296,1,0,0,5.0742536000325345,colour2,0.4111111111111111,-0.31527777777777777,1,0,0,5.862681499973405,number4,True,True,False,23,3,2019_Nov_15_1454,MA_Theta_Exp,3.0.7,59.75207668071742,
video/Experiment/zh_sp01_Ad_We_2_GlobalTheta_NoVideo.avi,globalTheta,noVideo,sp01,Ad,We,2,0,5,flow/blocks/GlobalTheta_NoVideo_A.csv,,,,,,,,,0,0,0,0,0,11,11,13,-0.43194444444444446,0.3263888888888889,1,0,0,5.105038499983493,call1,0.019444444444444445,-0.32314814814814813,1,0,0,5.807266899966635,colour4,0.41805555555555557,0.09583333333333334,1,0,0,6.4412628000136465,number2,True,True,True,23,3,2019_Nov_15_1454,MA_Theta_Exp,3.0.7,59.75207668071742,
video/Experiment/zh_sp01_Ad_Ge_2_GlobalTheta_NoVideo.avi,globalTheta,noVideo,sp01,Ad,Ge,2,0,5,flow/blocks/GlobalTheta_NoVideo_A.csv,,,,,,,,,0,0,0,0,0,12,12,1,-0.42916666666666664,0.30185185185185187,1,0,0,5.150766399980057,call1,0.016666666666666666,0.2851851851851852,1,0,0,5.741510100022424,colour1,0.4041666666666667,0.12407407407407407,1,0,0,6.317857999994885,number2,True,True,True,23,3,2019_Nov_15_1454,MA_Theta_Exp,3.0.7,59.75207668071742,
video/Experiment/zh_sp07_Dr_We_3_GlobalTheta_NoVideo.avi,globalTheta,noVideo,sp07,Dr,We,3,0,5,flow/blocks/GlobalTheta_NoVideo_A.csv,,,,,,,,,0,0,0,0,0,13,13,30,-0.38333333333333336,-0.0912037037037037,1,0,0,4.609381600050256,call3,0.03194444444444444,-0.30972222222222223,1,0,0,5.331898499978706,colour4,0.3972222222222222,-0.07777777777777778,1,0,0,6.008842799987178,number3,False,True,True,23,3,2019_Nov_15_1454,MA_Theta_Exp,3.0.7,59.75207668071742,
video/Experiment/zh_sp01_Dr_Ro_3_GlobalTheta_NoVideo.avi,globalTheta,noVideo,sp01,Dr,Ro,3,0,5,flow/blocks/GlobalTheta_NoVideo_A.csv,,,,,,,,,0,0,0,0,0,14,14,26,-0.36527777777777776,-0.1162037037037037,1,0,0,5.7390707999584265,call3,0.043055555555555555,-0.1175925925925926,1,0,0,6.2887508000130765,colour3,0.36944444444444446,-0.1175925925925926,1,0,0,6.800080899964087,number3,False,True,True,23,3,2019_Nov_15_1454,MA_Theta_Exp,3.0.7,59.75207668071742,
video/Experiment/zh_sp07_Dr_Gr_4_GlobalTheta_NoVideo.avi,globalTheta,noVideo,sp07,Dr,Gr,4,0,5,flow/blocks/GlobalTheta_NoVideo_A.csv,,,,,,,,,0,0,0,0,0,15,15,23,-0.425,0.30972222222222223,1,0,0,4.8690219999989495,call1,0.011111111111111112,0.09907407407407408,1,0,0,5.499308499973267,colour2,0.3861111111111111,-0.1125,1,0,0,6.348307199950796,number3,False,True,False,23,3,2019_Nov_15_1454,MA_Theta_Exp,3.0.7,59.75207668071742,
video/Experiment/zh_sp01_Dr_Gr_3_GlobalTheta_NoVideo.avi,globalTheta,noVideo,sp01,Dr,Gr,3,0,5,flow/blocks/GlobalTheta_NoVideo_A.csv,,,,,,,,,0,0,0,0,0,16,16,22,-0.4361111111111111,-0.32592592592592595,1,0,0,5.478052299993578,call4,0.001388888888888889,0.12222222222222222,1,0,0,6.143507700006012,colour2,0.38472222222222224,-0.1037037037037037,1,0,0,6.844755899976008,number3,False,True,True,23,3,2019_Nov_15_1454,MA_Theta_Exp,3.0.7,59.75207668071742,
video/Experiment/zh_sp01_Dr_Ro_1_GlobalTheta_NoVideo.avi,globalTheta,noVideo,sp01,Dr,Ro,1,0,5,flow/blocks/GlobalTheta_NoVideo_A.csv,,,,,,,,,0,0,0,0,0,17,17,24,-0.3888888888888889,-0.08981481481481482,1,0,0,5.35190850001527,call3,0.001388888888888889,-0.11203703703703703,1,0,0,6.043578799988609,colour3,0.4013888888888889,0.30833333333333335,1,0,0,6.694213300012052,number1,False,True,True,23,3,2019_Nov_15_1454,MA_Theta_Exp,3.0.7,59.75207668071742,
video/Experiment/zh_sp07_Ad_We_1_GlobalTheta_NoVideo.avi,globalTheta,noVideo,sp07,Ad,We,1,0,5,flow/blocks/GlobalTheta_NoVideo_A.csv,,,,,,,,,0,0,0,0,0,18,18,12,-0.43333333333333335,0.3060185185185185,1,0,0,4.413095299969427,call1,0.019444444444444445,-0.3300925925925926,1,0,0,5.256194600020535,colour4,0.3763888888888889,0.3125,1,0,0,5.98986239999067,number1,True,True,True,23,3,2019_Nov_15_1454,MA_Theta_Exp,3.0.7,59.75207668071742,
video/Experiment/zh_sp07_Dr_We_4_GlobalTheta_NoVideo.avi,globalTheta,noVideo,sp07,Dr,We,4,0,5,flow/blocks/GlobalTheta_NoVideo_A.csv,,,,,,,,,0,0,0,0,0,19,19,31,-0.3763888888888889,0.12083333333333333,1,0,0,4.3113761999993585,call2,-0.05555555555555555,-0.29814814814814816,1,0,0,5.100509899959434,colour4,0.38055555555555554,-0.29259259259259257,1,0,0,5.93026530003408,number4,True,True,True,23,3,2019_Nov_15_1454,MA_Theta_Exp,3.0.7,59.75207668071742,
video/Experiment/zh_sp01_Ad_Ge_3_GlobalTheta_NoVideo.avi,globalTheta,noVideo,sp01,Ad,Ge,3,0,5,flow/blocks/GlobalTheta_NoVideo_A.csv,,,,,,,,,0,0,0,0,0,20,20,2,-0.37777777777777777,0.32222222222222224,1,0,0,4.865160199988168,call1,-0.05138888888888889,0.33194444444444443,1,0,0,5.409276100050192,colour1,0.4486111111111111,-0.09259259259259259,1,0,0,6.079626000020653,number3,True,True,True,23,3,2019_Nov_15_1454,MA_Theta_Exp,3.0.7,59.75207668071742,
video/Experiment/zh_sp07_Dr_Ge_2_GlobalTheta_NoVideo.avi,globalTheta,noVideo,sp07,Dr,Ge,2,0,5,flow/blocks/GlobalTheta_NoVideo_A.csv,,,,,,,,,0,0,0,0,0,21,21,17,-0.36944444444444446,0.3333333333333333,1,0,0,4.538969799992628,call1,-0.016666666666666666,0.3087962962962963,1,0,0,5.054585199977737,colour1,0.40694444444444444,0.09074074074074075,1,0,0,5.606326400011312,number2,False,True,True,23,3,2019_Nov_15_1454,MA_Theta_Exp,3.0.7,59.75207668071742,
video/Experiment/zh_sp07_Ad_Ro_2_GlobalTheta_NoVideo.avi,globalTheta,noVideo,sp07,Ad,Ro,2,0,5,flow/blocks/GlobalTheta_NoVideo_A.csv,,,,,,,,,0,0,0,0,0,22,22,9,-0.4013888888888889,0.3351851851851852,1,0,0,4.333148400008213,call1,-0.03611111111111111,-0.15231481481481482,1,0,0,4.922595700016245,colour3,0.3875,0.10972222222222222,1,0,0,5.5197241000132635,number2,True,True,True,23,3,2019_Nov_15_1454,MA_Theta_Exp,3.0.7,59.75207668071742,
video/Experiment/zh_sp07_Dr_Ge_1_GlobalTheta_NoVideo.avi,globalTheta,noVideo,sp07,Dr,Ge,1,0,5,flow/blocks/GlobalTheta_NoVideo_A.csv,,,,,,,,,0,0,0,0,0,23,23,16,-0.4152777777777778,0.3013888888888889,1,0,0,4.350838300015312,call1,0.030555555555555555,0.31805555555555554,1,0,0,4.950097399996594,colour1,0.43333333333333335,0.3143518518518518,1,0,0,5.548533599998336,number1,False,True,True,23,3,2019_Nov_15_1454,MA_Theta_Exp,3.0.7,59.75207668071742,
video/Experiment/zh_sp07_Ad_Ro_1_GlobalTheta_NoVideo.avi,globalTheta,noVideo,sp07,Ad,Ro,1,0,5,flow/blocks/GlobalTheta_NoVideo_A.csv,,,,,,,,,0,0,0,0,0,24,24,8,-0.43472222222222223,0.32685185185185184,1,0,0,4.344024499994703,call1,-0.0125,-0.08981481481481482,1,0,0,5.64114459999837,colour3,0.4097222222222222,0.30833333333333335,1,0,0,6.190941600012593,number1,True,True,True,23,3,2019_Nov_15_1454,MA_Theta_Exp,3.0.7,59.75207668071742,
video/Experiment/zh_sp07_Ad_Ro_3_GlobalTheta_NoVideo.avi,globalTheta,noVideo,sp07,Ad,Ro,3,0,5,flow/blocks/GlobalTheta_NoVideo_A.csv,,,,,,,,,0,0,0,0,0,25,25,10,-0.4,0.3472222222222222,1,0,0,4.149551899987273,call1,-0.02361111111111111,-0.12314814814814815,1,0,0,4.798044099996332,colour3,0.41805555555555557,-0.07777777777777778,1,0,0,5.349671399977524,number3,True,True,True,23,3,2019_Nov_15_1454,MA_Theta_Exp,3.0.7,59.75207668071742,
video/Experiment/zh_sp01_Dr_Gr_2_GlobalTheta_NoVideo.avi,globalTheta,noVideo,sp01,Dr,Gr,2,0,5,flow/blocks/GlobalTheta_NoVideo_A.csv,,,,,,,,,0,0,0,0,0,26,26,21,-0.3888888888888889,0.10138888888888889,1,0,0,5.134810199961066,call2,-0.016666666666666666,0.10277777777777777,1,0,0,5.664986699994188,colour2,0.4222222222222222,0.10972222222222222,1,0,0,6.2378705000155605,number2,True,True,True,23,3,2019_Nov_15_1454,MA_Theta_Exp,3.0.7,59.75207668071742,
video/Experiment/zh_sp07_Ad_We_4_GlobalTheta_NoVideo.avi,globalTheta,noVideo,sp07,Ad,We,4,0,5,flow/blocks/GlobalTheta_NoVideo_A.csv,,,,,,,,,0,0,0,0,0,27,27,15,-0.37916666666666665,0.32222222222222224,1,0,0,4.637151800037827,call1,0.011111111111111112,-0.3398148148148148,1,0,0,5.327183599991258,colour4,0.4722222222222222,-0.2847222222222222,1,0,0,5.871471499965992,number4,True,True,True,23,3,2019_Nov_15_1454,MA_Theta_Exp,3.0.7,59.75207668071742,
video/Experiment/zh_sp01_Dr_We_2_GlobalTheta_NoVideo.avi,globalTheta,noVideo,sp01,Dr,We,2,0,5,flow/blocks/GlobalTheta_NoVideo_A.csv,,,,,,,,,0,0,0,0,0,28,28,29,-0.4027777777777778,0.10277777777777777,1,0,0,4.982681400026195,call2,0.029166666666666667,-0.3162037037037037,1,0,0,5.580881899979431,colour4,0.4,0.13055555555555556,1,0,0,6.2645180999534205,number2,True,True,True,23,3,2019_Nov_15_1454,MA_Theta_Exp,3.0.7,59.75207668071742,
video/Experiment/zh_sp01_Ad_Ro_4_GlobalTheta_NoVideo.avi,globalTheta,noVideo,sp01,Ad,Ro,4,0,5,flow/blocks/GlobalTheta_NoVideo_A.csv,,,,,,,,,0,0,0,0,0,29,29,11,-0.4513888888888889,0.2986111111111111,1,0,0,4.9756887999828905,call1,-0.03194444444444444,-0.09398148148148149,1,0,0,5.673640799999703,colour3,0.4388888888888889,-0.3314814814814815,1,0,0,6.266209700028412,number4,True,True,True,23,3,2019_Nov_15_1454,MA_Theta_Exp,3.0.7,59.75207668071742,
video/Experiment/zh_sp01_Dr_Ge_3_GlobalTheta_NoVideo.avi,globalTheta,noVideo,sp01,Dr,Ge,3,0,5,flow/blocks/GlobalTheta_NoVideo_A.csv,,,,,,,,,0,0,0,0,0,30,30,18,-0.4222222222222222,0.11851851851851852,1,0,0,4.884134799998719,call2,-0.04722222222222222,0.2972222222222222,1,0,0,5.450095299980603,colour1,0.36527777777777776,-0.11388888888888889,1,0,0,6.139087599993218,number3,True,True,True,23,3,2019_Nov_15_1454,MA_Theta_Exp,3.0.7,59.75207668071742,
video/Experiment/zh_sp01_Ad_Ge_1_GlobalTheta_NoVideo.avi,globalTheta,noVideo,sp01,Ad,Ge,1,0,5,flow/blocks/GlobalTheta_NoVideo_A.csv,,,,,,,,,0,0,0,0,0,31,31,0,-0.3597222222222222,0.3263888888888889,1,0,0,5.017954699986149,call1,0.058333333333333334,0.31157407407407406,1,0,0,5.577505799999926,colour1,0.3972222222222222,0.30972222222222223,1,0,0,6.110248100012541,number1,True,True,True,23,3,2019_Nov_15_1454,MA_Theta_Exp,3.0.7,59.75207668071742,
video/Experiment/zh_sp07_Ad_Gr_1_NVocInAudio_GlobalThetaInVideo.avi,vocoded,plusVideo,sp07,Ad,Gr,1,1,1,flow/blocks/NVocInAudio_GlobalThetaInVideo_A.csv,,,,,,,,,0,1,1,1,0,0,0,4,-0.43472222222222223,0.3125,1,0,0,4.611598299990874,call1,-0.020833333333333332,0.0962962962962963,1,0,0,5.250086099957116,colour2,0.3736111111111111,0.3013888888888889,1,0,0,5.8955589000252075,number1,True,True,True,23,3,2019_Nov_15_1454,MA_Theta_Exp,3.0.7,59.75207668071742,
video/Experiment/zh_sp01_Dr_Ge_2_NVocInAudio_GlobalThetaInVideo.avi,vocoded,plusVideo,sp01,Dr,Ge,2,1,1,flow/blocks/NVocInAudio_GlobalThetaInVideo_A.csv,,,,,,,,,0,1,1,1,0,1,1,17,-0.4708333333333333,0.10046296296296296,1,0,0,5.101946000009775,call2,-0.018055555555555554,0.31157407407407406,1,0,0,5.934372299991082,colour1,0.42083333333333334,0.08101851851851852,1,0,0,6.474492999957874,number2,True,True,True,23,3,2019_Nov_15_1454,MA_Theta_Exp,3.0.7,59.75207668071742,
video/Experiment/zh_sp07_Dr_Ro_4_NVocInAudio_GlobalThetaInVideo.avi,vocoded,plusVideo,sp07,Dr,Ro,4,1,1,flow/blocks/NVocInAudio_GlobalThetaInVideo_A.csv,,,,,,,,,0,1,1,1,0,2,2,27,-0.39861111111111114,0.12129629629629629,1,0,0,4.434708899992984,call2,0.02638888888888889,-0.1175925925925926,1,0,0,4.998996099981014,colour3,0.43333333333333335,-0.36064814814814816,1,0,0,5.569683300040197,number4,True,True,True,23,3,2019_Nov_15_1454,MA_Theta_Exp,3.0.7,59.75207668071742,
video/Experiment/zh_sp07_Ad_Ro_3_NVocInAudio_GlobalThetaInVideo.avi,vocoded,plusVideo,sp07,Ad,Ro,3,1,1,flow/blocks/NVocInAudio_GlobalThetaInVideo_A.csv,,,,,,,,,0,1,1,1,0,3,3,10,-0.45416666666666666,0.2851851851851852,1,0,0,4.507011400011834,call1,-0.004166666666666667,-0.10648148148148148,1,0,0,5.065806699974928,colour3,0.44583333333333336,-0.10648148148148148,1,0,0,5.579977300018072,number3,True,True,True,23,3,2019_Nov_15_1454,MA_Theta_Exp,3.0.7,59.75207668071742,
video/Experiment/zh_sp01_Dr_Ro_2_NVocInAudio_GlobalThetaInVideo.avi,vocoded,plusVideo,sp01,Dr,Ro,2,1,1,flow/blocks/NVocInAudio_GlobalThetaInVideo_A.csv,,,,,,,,,0,1,1,1,0,4,4,25,-0.43194444444444446,0.11574074074074074,1,0,0,5.336123100016266,call2,0.005555555555555556,-0.11203703703703703,1,0,0,6.030354099988472,colour3,0.44166666666666665,0.13055555555555556,1,0,0,6.585497299965937,number2,True,True,True,23,3,2019_Nov_15_1454,MA_Theta_Exp,3.0.7,59.75207668071742,
video/Experiment/zh_sp01_Dr_Gr_1_NVocInAudio_GlobalThetaInVideo.avi,vocoded,plusVideo,sp01,Dr,Gr,1,1,1,flow/blocks/NVocInAudio_GlobalThetaInVideo_A.csv,,,,,,,,,0,1,1,1,0,5,5,20,-0.37916666666666665,0.08888888888888889,1,0,0,5.217514800024219,call2,-0.002777777777777778,0.10277777777777777,1,0,0,5.731130300031509,colour2,0.3902777777777778,0.2986111111111111,1,0,0,6.297224799985997,number1,True,True,True,23,3,2019_Nov_15_1454,MA_Theta_Exp,3.0.7,59.75207668071742,
video/Experiment/zh_sp01_Ad_Ge_2_NVocInAudio_GlobalThetaInVideo.avi,vocoded,plusVideo,sp01,Ad,Ge,2,1,1,flow/blocks/NVocInAudio_GlobalThetaInVideo_A.csv,,,,,,,,,0,1,1,1,0,6,6,1,-0.43333333333333335,0.28055555555555556,1,0,0,6.336362500034738,call1,-0.02638888888888889,0.28194444444444444,1,0,0,6.813649900024757,colour1,0.3763888888888889,0.1087962962962963,1,0,0,7.319806699990295,number2,True,True,True,23,3,2019_Nov_15_1454,MA_Theta_Exp,3.0.7,59.75207668071742,
video/Experiment/zh_sp01_Dr_Gr_4_NVocInAudio_GlobalThetaInVideo.avi,vocoded,plusVideo,sp01,Dr,Gr,4,1,1,flow/blocks/NVocInAudio_GlobalThetaInVideo_A.csv,,,,,,,,,0,1,1,1,0,7,7,23,-0.38055555555555554,0.1111111111111111,1,0,0,4.957629400014412,call2,-0.04027777777777778,0.10601851851851851,1,0,0,5.7865147000411525,colour2,0.45555555555555555,-0.34675925925925927,1,0,0,6.554172399977688,number4,True,True,True,23,3,2019_Nov_15_1454,MA_Theta_Exp,3.0.7,59.75207668071742,
video/Experiment/zh_sp07_Dr_We_3_NVocInAudio_GlobalThetaInVideo.avi,vocoded,plusVideo,sp07,Dr,We,3,1,1,flow/blocks/NVocInAudio_GlobalThetaInVideo_A.csv,,,,,,,,,0,1,1,1,0,8,8,30,-0.44722222222222224,0.12777777777777777,1,0,0,4.357440199994016,call2,0.006944444444444444,-0.3439814814814815,1,0,0,4.996967100014444,colour4,0.4597222222222222,-0.12083333333333333,1,0,0,5.582148699963,number3,True,True,True,23,3,2019_Nov_15_1454,MA_Theta_Exp,3.0.7,59.75207668071742,
video/Experiment/zh_sp07_Ad_Ge_1_NVocInAudio_GlobalThetaInVideo.avi,vocoded,plusVideo,sp07,Ad,Ge,1,1,1,flow/blocks/NVocInAudio_GlobalThetaInVideo_A.csv,,,,,,,,,0,1,1,1,0,9,9,0,-0.44722222222222224,0.3347222222222222,1,0,0,4.318217399995774,call1,0.02361111111111111,0.3060185185185185,1,0,0,4.969832099974155,colour1,0.4236111111111111,0.3388888888888889,1,0,0,5.5324668000102974,number1,True,True,True,23,3,2019_Nov_15_1454,MA_Theta_Exp,3.0.7,59.75207668071742,
video/Experiment/zh_sp01_Dr_We_2_NVocInAudio_GlobalThetaInVideo.avi,vocoded,plusVideo,sp01,Dr,We,2,1,1,flow/blocks/NVocInAudio_GlobalThetaInVideo_A.csv,,,,,,,,,0,1,1,1,0,10,10,29,-0.3958333333333333,0.12361111111111112,1,0,0,5.038208100013435,call2,0.06666666666666667,-0.34814814814814815,1,0,0,5.787055600027088,colour4,0.4361111111111111,0.1125,1,0,0,6.536874099983834,number2,True,True,True,23,3,2019_Nov_15_1454,MA_Theta_Exp,3.0.7,59.75207668071742,
video/Experiment/zh_sp01_Ad_We_3_NVocInAudio_GlobalThetaInVideo.avi,vocoded,plusVideo,sp01,Ad,We,3,1,1,flow/blocks/NVocInAudio_GlobalThetaInVideo_A.csv,,,,,,,,,0,1,1,1,0,11,11,14,-0.4083333333333333,0.30694444444444446,1,0,0,4.9872907000244595,call1,-0.015277777777777777,-0.30787037037037035,1,0,0,5.85193409997737,colour4,0.38333333333333336,-0.08148148148148149,1,0,0,6.652455599978566,number3,True,True,True,23,3,2019_Nov_15_1454,MA_Theta_Exp,3.0.7,59.75207668071742,
video/Experiment/zh_sp01_Ad_Ge_4_NVocInAudio_GlobalThetaInVideo.avi,vocoded,plusVideo,sp01,Ad,Ge,4,1,1,flow/blocks/NVocInAudio_GlobalThetaInVideo_A.csv,,,,,,,,,0,1,1,1,0,12,12,3,-0.4,0.2986111111111111,1,0,0,4.9390565999783576,call1,0.008333333333333333,0.287962962962963,1,0,0,5.4715622999938205,colour1,0.36666666666666664,-0.2884259259259259,1,0,0,6.0670243999920785,number4,True,True,True,23,3,2019_Nov_15_1454,MA_Theta_Exp,3.0.7,59.75207668071742,
video/Experiment/zh_sp07_Dr_Gr_3_NVocInAudio_GlobalThetaInVideo.avi,vocoded,plusVideo,sp07,Dr,Gr,3,1,1,flow/blocks/NVocInAudio_GlobalThetaInVideo_A.csv,,,,,,,,,0,1,1,1,0,13,13,22,-0.3638888888888889,0.15601851851851853,1,0,0,4.857431300042663,call2,0.05138888888888889,0.0712962962962963,1,0,0,5.653270600014366,colour2,0.4361111111111111,-0.1287037037037037,1,0,0,6.188894100021571,number3,True,True,True,23,3,2019_Nov_15_1454,MA_Theta_Exp,3.0.7,59.75207668071742,
video/Experiment/zh_sp07_Dr_We_1_NVocInAudio_GlobalThetaInVideo.avi,vocoded,plusVideo,sp07,Dr,We,1,1,1,flow/blocks/NVocInAudio_GlobalThetaInVideo_A.csv,,,,,,,,,0,1,1,1,0,14,14,28,-0.4111111111111111,0.09027777777777778,1,0,0,4.820451600011438,call2,0.015277777777777777,-0.3453703703703704,1,0,0,5.4636769000208005,colour4,0.4111111111111111,0.3055555555555556,1,0,0,6.12899140000809,number1,True,True,True,23,3,2019_Nov_15_1454,MA_Theta_Exp,3.0.7,59.75207668071742,
video/Experiment/zh_sp07_Ad_Ro_4_NVocInAudio_GlobalThetaInVideo.avi,vocoded,plusVideo,sp07,Ad,Ro,4,1,1,flow/blocks/NVocInAudio_GlobalThetaInVideo_A.csv,,,,,,,,,0,1,1,1,0,15,15,11,-0.44305555555555554,0.29444444444444445,1,0,0,4.454123899980914,call1,0.03194444444444444,-0.13148148148148148,1,0,0,5.101120500010438,colour3,0.40555555555555556,-0.31527777777777777,1,0,0,5.834193199989386,number4,True,True,True,23,3,2019_Nov_15_1454,MA_Theta_Exp,3.0.7,59.75207668071742,
video/Experiment/zh_sp07_Ad_Ro_1_NVocInAudio_GlobalThetaInVideo.avi,vocoded,plusVideo,sp07,Ad,Ro,1,1,1,flow/blocks/NVocInAudio_GlobalThetaInVideo_A.csv,,,,,,,,,0,1,1,1,0,16,16,8,-0.39444444444444443,0.3263888888888889,1,0,0,4.1421143999905325,call1,-0.02638888888888889,-0.1037037037037037,1,0,0,4.71302890003426,colour3,0.4361111111111111,0.325,1,0,0,5.37570599996252,number1,True,True,True,23,3,2019_Nov_15_1454,MA_Theta_Exp,3.0.7,59.75207668071742,
video/Experiment/zh_sp01_Ad_Gr_2_NVocInAudio_GlobalThetaInVideo.avi,vocoded,plusVideo,sp01,Ad,Gr,2,1,1,flow/blocks/NVocInAudio_GlobalThetaInVideo_A.csv,,,,,,,,,0,1,1,1,0,17,17,5,-0.44305555555555554,0.3277777777777778,1,0,0,4.953253599989694,call1,-0.020833333333333332,0.11851851851851852,1,0,0,5.45579269999871,colour2,0.38055555555555554,0.09861111111111111,1,0,0,5.971685399999842,number2,True,True,True,23,3,2019_Nov_15_1454,MA_Theta_Exp,3.0.7,59.75207668071742,
video/Experiment/zh_sp01_Ad_We_2_NVocInAudio_GlobalThetaInVideo.avi,vocoded,plusVideo,sp01,Ad,We,2,1,1,flow/blocks/NVocInAudio_GlobalThetaInVideo_A.csv,,,,,,,,,0,1,1,1,0,18,18,13,-0.3763888888888889,0.31805555555555554,1,0,0,4.955007100012153,call1,0.015277777777777777,-0.324537037037037,1,0,0,5.70453719998477,colour4,0.44166666666666665,0.10694444444444444,1,0,0,6.357788899971638,number2,True,True,True,23,3,2019_Nov_15_1454,MA_Theta_Exp,3.0.7,59.75207668071742,
video/Experiment/zh_sp07_Dr_Ge_3_NVocInAudio_GlobalThetaInVideo.avi,vocoded,plusVideo,sp07,Dr,Ge,3,1,1,flow/blocks/NVocInAudio_GlobalThetaInVideo_A.csv,,,,,,,,,0,1,1,1,0,19,19,18,-0.3888888888888889,0.125,1,0,0,4.4234878999996,call2,-0.04583333333333333,0.2986111111111111,1,0,0,5.074061500024982,colour1,0.4041666666666667,-0.04675925925925926,1,0,0,5.640668699983507,number3,True,True,True,23,3,2019_Nov_15_1454,MA_Theta_Exp,3.0.7,59.75207668071742,
video/Experiment/zh_sp01_Dr_Gr_2_NVocInAudio_GlobalThetaInVideo.avi,vocoded,plusVideo,sp01,Dr,Gr,2,1,1,flow/blocks/NVocInAudio_GlobalThetaInVideo_A.csv,,,,,,,,,0,1,1,1,0,20,20,21,-0.41388888888888886,0.08055555555555556,1,0,0,5.5637404000153765,call2,-0.03333333333333333,0.08333333333333333,1,0,0,6.0299535999656655,colour2,0.35694444444444445,0.09305555555555556,1,0,0,6.607973799982574,number2,True,True,True,23,3,2019_Nov_15_1454,MA_Theta_Exp,3.0.7,59.75207668071742,
video/Experiment/zh_sp01_Ad_We_4_NVocInAudio_GlobalThetaInVideo.avi,vocoded,plusVideo,sp01,Ad,We,4,1,1,flow/blocks/NVocInAudio_GlobalThetaInVideo_A.csv,,,,,,,,,0,1,1,1,0,21,21,15,-0.35,0.3074074074074074,1,0,0,5.115659900009632,call1,0.020833333333333332,-0.31342592592592594,1,0,0,5.777871300000697,colour4,0.4513888888888889,-0.32314814814814813,1,0,0,6.231472099956591,number4,True,True,True,23,3,2019_Nov_15_1454,MA_Theta_Exp,3.0.7,59.75207668071742,
video/Experiment/zh_sp01_Ad_Gr_4_NVocInAudio_GlobalThetaInVideo.avi,vocoded,plusVideo,sp01,Ad,Gr,4,1,1,flow/blocks/NVocInAudio_GlobalThetaInVideo_A.csv,,,,,,,,,0,1,1,1,0,22,22,7,-0.4152777777777778,0.3111111111111111,1,0,0,5.524424100003671,call1,-0.044444444444444446,0.12962962962962962,1,0,0,6.197239000000991,colour2,0.3875,-0.28425925925925927,1,0,0,6.785233000002336,number4,True,True,True,23,3,2019_Nov_15_1454,MA_Theta_Exp,3.0.7,59.75207668071742,
video/Experiment/zh_sp07_Dr_Ge_4_NVocInAudio_GlobalThetaInVideo.avi,vocoded,plusVideo,sp07,Dr,Ge,4,1,1,flow/blocks/NVocInAudio_GlobalThetaInVideo_A.csv,,,,,,,,,0,1,1,1,0,23,23,19,-0.42777777777777776,0.13055555555555556,1,0,0,4.548713600030169,call2,0.044444444444444446,0.33055555555555555,1,0,0,5.102538499981165,colour1,0.4083333333333333,-0.33287037037037037,1,0,0,5.820557500002906,number4,True,True,True,23,3,2019_Nov_15_1454,MA_Theta_Exp,3.0.7,59.75207668071742,
video/Experiment/zh_sp07_Ad_Ro_2_NVocInAudio_GlobalThetaInVideo.avi,vocoded,plusVideo,sp07,Ad,Ro,2,1,1,flow/blocks/NVocInAudio_GlobalThetaInVideo_A.csv,,,,,,,,,0,1,1,1,0,24,24,9,-0.3888888888888889,0.31805555555555554,1,0,0,4.546958999999333,call1,0.006944444444444444,-0.08425925925925926,1,0,0,5.093379699974321,colour3,0.44027777777777777,0.10694444444444444,1,0,0,5.580853299994487,number2,True,True,True,23,3,2019_Nov_15_1454,MA_Theta_Exp,3.0.7,59.75207668071742,
video/Experiment/zh_sp01_Dr_Ge_1_NVocInAudio_GlobalThetaInVideo.avi,vocoded,plusVideo,sp01,Dr,Ge,1,1,1,flow/blocks/NVocInAudio_GlobalThetaInVideo_A.csv,,,,,,,,,0,1,1,1,0,25,25,16,-0.4152777777777778,0.11527777777777778,1,0,0,5.002886399975978,call2,-0.03611111111111111,0.2777777777777778,1,0,0,5.514273400011007,colour1,0.4041666666666667,0.3143518518518518,1,0,0,6.211502299993299,number1,True,True,True,23,3,2019_Nov_15_1454,MA_Theta_Exp,3.0.7,59.75207668071742,
video/Experiment/zh_sp07_Ad_Ge_3_NVocInAudio_GlobalThetaInVideo.avi,vocoded,plusVideo,sp07,Ad,Ge,3,1,1,flow/blocks/NVocInAudio_GlobalThetaInVideo_A.csv,,,,,,,,,0,1,1,1,0,26,26,2,-0.3875,0.31296296296296294,1,0,0,4.447460399998818,call1,0.03194444444444444,0.2652777777777778,1,0,0,5.095289899967611,colour1,0.3819444444444444,-0.060648148148148145,1,0,0,5.644011700002011,number3,True,True,True,23,3,2019_Nov_15_1454,MA_Theta_Exp,3.0.7,59.75207668071742,
video/Experiment/zh_sp07_Ad_Gr_3_NVocInAudio_GlobalThetaInVideo.avi,vocoded,plusVideo,sp07,Ad,Gr,3,1,1,flow/blocks/NVocInAudio_GlobalThetaInVideo_A.csv,,,,,,,,,0,1,1,1,0,27,27,6,-0.3888888888888889,0.30833333333333335,1,0,0,4.724516000016592,call1,-0.03333333333333333,0.08518518518518518,1,0,0,5.213197700039018,colour2,0.3680555555555556,-0.11898148148148148,1,0,0,5.690915599989239,number3,True,True,True,23,3,2019_Nov_15_1454,MA_Theta_Exp,3.0.7,59.75207668071742,
video/Experiment/zh_sp07_Ad_We_1_NVocInAudio_GlobalThetaInVideo.avi,vocoded,plusVideo,sp07,Ad,We,1,1,1,flow/blocks/NVocInAudio_GlobalThetaInVideo_A.csv,,,,,,,,,0,1,1,1,0,28,28,12,-0.42777777777777776,0.3125,1,0,0,4.639966199989431,call1,-0.030555555555555555,-0.3175925925925926,1,0,0,5.357891599996947,colour4,0.37777777777777777,0.29583333333333334,1,0,0,6.0626600999967195,number1,True,True,True,23,3,2019_Nov_15_1454,MA_Theta_Exp,3.0.7,59.75207668071742,
video/Experiment/zh_sp01_Dr_We_4_NVocInAudio_GlobalThetaInVideo.avi,vocoded,plusVideo,sp01,Dr,We,4,1,1,flow/blocks/NVocInAudio_GlobalThetaInVideo_A.csv,,,,,,,,,0,1,1,1,0,29,29,31,-0.35833333333333334,0.10324074074074074,1,0,0,5.238351799955126,call2,-0.0375,-0.31203703703703706,1,0,0,5.832415200013202,colour4,0.4527777777777778,-0.32592592592592595,1,0,0,6.414963799994439,number4,True,True,True,23,3,2019_Nov_15_1454,MA_Theta_Exp,3.0.7,59.75207668071742,
video/Experiment/zh_sp01_Dr_Ro_3_NVocInAudio_GlobalThetaInVideo.avi,vocoded,plusVideo,sp01,Dr,Ro,3,1,1,flow/blocks/NVocInAudio_GlobalThetaInVideo_A.csv,,,,,,,,,0,1,1,1,0,30,30,26,-0.41944444444444445,0.12222222222222222,1,0,0,5.300542700046208,call2,-0.0125,-0.09814814814814815,1,0,0,6.295081100019161,colour3,0.41944444444444445,-0.10694444444444444,1,0,0,6.830941599968355,number3,True,True,True,23,3,2019_Nov_15_1454,MA_Theta_Exp,3.0.7,59.75207668071742,
video/Experiment/zh_sp07_Dr_Ro_1_NVocInAudio_GlobalThetaInVideo.avi,vocoded,plusVideo,sp07,Dr,Ro,1,1,1,flow/blocks/NVocInAudio_GlobalThetaInVideo_A.csv,,,,,,,,,0,1,1,1,0,31,31,24,-0.4361111111111111,0.13657407407407407,1,0,0,4.297448400000576,call2,-0.02638888888888889,-0.09675925925925925,1,0,0,4.779445599997416,colour3,0.38472222222222224,0.29305555555555557,1,0,0,5.315232200024184,number1,True,True,True,23,3,2019_Nov_15_1454,MA_Theta_Exp,3.0.7,59.75207668071742,
video/Experiment/zh_sp07_Dr_Gr_1_NoThetaInAudio_NoVideo.avi,noTheta,noVideo,sp07,Dr,Gr,1,2,4,flow/blocks/NoThetaInAudio_NoVideo_A.csv,,,,,,,,,0,2,2,2,0,0,0,20,-0.44722222222222224,0.10462962962962963,1,0,0,4.6505694999941625,call2,-0.030555555555555555,0.09907407407407408,1,0,0,5.184278699976858,colour2,0.3958333333333333,0.3541666666666667,1,0,0,5.732855000009295,number1,True,True,True,23,3,2019_Nov_15_1454,MA_Theta_Exp,3.0.7,59.75207668071742,
video/Experiment/zh_sp01_Dr_Gr_4_NoThetaInAudio_NoVideo.avi,noTheta,noVideo,sp01,Dr,Gr,4,2,4,flow/blocks/NoThetaInAudio_NoVideo_A.csv,,,,,,,,,0,2,2,2,0,1,1,23,-0.4013888888888889,0.08333333333333333,1,0,0,5.064513200020883,call2,0.002777777777777778,0.11388888888888889,1,0,0,5.560130400001071,colour2,0.4791666666666667,-0.3189814814814815,1,0,0,6.133369000046514,number4,True,True,True,23,3,2019_Nov_15_1454,MA_Theta_Exp,3.0.7,59.75207668071742,
video/Experiment/zh_sp01_Ad_Ro_3_NoThetaInAudio_NoVideo.avi,noTheta,noVideo,sp01,Ad,Ro,3,2,4,flow/blocks/NoThetaInAudio_NoVideo_A.csv,,,,,,,,,0,2,2,2,0,2,2,10,-0.39444444444444443,0.3472222222222222,1,0,0,4.859729699965101,call1,0.043055555555555555,-0.06898148148148148,1,0,0,5.38683100003982,colour3,0.43472222222222223,-0.08611111111111111,1,0,0,5.89082640002016,number3,True,True,True,23,3,2019_Nov_15_1454,MA_Theta_Exp,3.0.7,59.75207668071742,
video/Experiment/zh_sp01_Ad_We_1_NoThetaInAudio_NoVideo.avi,noTheta,noVideo,sp01,Ad,We,1,2,4,flow/blocks/NoThetaInAudio_NoVideo_A.csv,,,,,,,,,0,2,2,2,0,3,3,12,-0.44027777777777777,0.3055555555555556,1,0,0,5.105335300031584,call1,-0.018055555555555554,-0.30648148148148147,1,0,0,5.879954100004397,colour4,0.4263888888888889,0.30277777777777776,1,0,0,6.611757699982263,number1,True,True,True,23,3,2019_Nov_15_1454,MA_Theta_Exp,3.0.7,59.75207668071742,
video/Experiment/zh_sp07_Ad_Ro_1_NoThetaInAudio_NoVideo.avi,noTheta,noVideo,sp07,Ad,Ro,1,2,4,flow/blocks/NoThetaInAudio_NoVideo_A.csv,,,,,,,,,0,2,2,2,0,4,4,8,-0.4013888888888889,0.30416666666666664,1,0,0,4.506358099984936,call1,-0.018055555555555554,-0.12916666666666668,1,0,0,5.169530200015288,colour3,0.4222222222222222,0.2861111111111111,1,0,0,5.852113600005396,number1,True,True,True,23,3,2019_Nov_15_1454,MA_Theta_Exp,3.0.7,59.75207668071742,
video/Experiment/zh_sp07_Ad_Ro_2_NoThetaInAudio_NoVideo.avi,noTheta,noVideo,sp07,Ad,Ro,2,2,4,flow/blocks/NoThetaInAudio_NoVideo_A.csv,,,,,,,,,0,2,2,2,0,5,5,9,-0.38055555555555554,0.3282407407407407,1,0,0,4.455533700005617,call1,-0.03333333333333333,-0.11203703703703703,1,0,0,5.051296000019647,colour3,0.4375,0.13472222222222222,1,0,0,5.570149299979676,number2,True,True,True,23,3,2019_Nov_15_1454,MA_Theta_Exp,3.0.7,59.75207668071742,
video/Experiment/zh_sp07_Ad_Gr_2_NoThetaInAudio_NoVideo.avi,noTheta,noVideo,sp07,Ad,Gr,2,2,4,flow/blocks/NoThetaInAudio_NoVideo_A.csv,,,,,,,,,0,2,2,2,0,6,6,5,-0.4097222222222222,0.2861111111111111,1,0,0,4.344631100015249,call1,-0.044444444444444446,0.12268518518518519,1,0,0,4.914297399984207,colour2,0.3972222222222222,0.11296296296296296,1,0,0,5.41288610000629,number2,True,True,True,23,3,2019_Nov_15_1454,MA_Theta_Exp,3.0.7,59.75207668071742,
video/Experiment/zh_sp01_Ad_Gr_3_NoThetaInAudio_NoVideo.avi,noTheta,noVideo,sp01,Ad,Gr,3,2,4,flow/blocks/NoThetaInAudio_NoVideo_A.csv,,,,,,,,,0,2,2,2,0,7,7,6,-0.3819444444444444,0.32916666666666666,1,0,0,5.020643600029871,call1,-0.011111111111111112,0.13240740740740742,1,0,0,5.520151000004262,colour2,0.37777777777777777,-0.08842592592592592,1,0,0,5.966402199992444,number3,True,True,True,23,3,2019_Nov_15_1454,MA_Theta_Exp,3.0.7,59.75207668071742,
video/Experiment/zh_sp07_Ad_Ge_2_NoThetaInAudio_NoVideo.avi,noTheta,noVideo,sp07,Ad,Ge,2,2,4,flow/blocks/NoThetaInAudio_NoVideo_A.csv,,,,,,,,,0,2,2,2,0,8,8,1,-0.3861111111111111,0.31296296296296294,1,0,0,4.422332500049379,call1,-0.006944444444444444,0.300462962962963,1,0,0,4.843813700019382,colour1,0.4013888888888889,0.09351851851851851,1,0,0,5.338367200049106,number2,True,True,True,23,3,2019_Nov_15_1454,MA_Theta_Exp,3.0.7,59.75207668071742,
video/Experiment/zh_sp01_Dr_Ro_4_NoThetaInAudio_NoVideo.avi,noTheta,noVideo,sp01,Dr,Ro,4,2,4,flow/blocks/NoThetaInAudio_NoVideo_A.csv,,,,,,,,,0,2,2,2,0,9,9,27,-0.3763888888888889,0.12777777777777777,1,0,0,4.919172200025059,call2,-0.006944444444444444,-0.08981481481481482,1,0,0,5.469419099972583,colour3,0.4527777777777778,-0.3384259259259259,1,0,0,5.957565499993507,number4,True,True,True,23,3,2019_Nov_15_1454,MA_Theta_Exp,3.0.7,59.75207668071742,
video/Experiment/zh_sp07_Ad_Ge_4_NoThetaInAudio_NoVideo.avi,noTheta,noVideo,sp07,Ad,Ge,4,2,4,flow/blocks/NoThetaInAudio_NoVideo_A.csv,,,,,,,,,0,2,2,2,0,10,10,3,-0.46805555555555556,0.2875,1,0,0,4.855964399990626,call1,-0.002777777777777778,0.29583333333333334,1,0,0,5.4907500999979675,colour1,0.3638888888888889,-0.337037037037037,1,0,0,6.152180899982341,number4,True,True,True,23,3,2019_Nov_15_1454,MA_Theta_Exp,3.0.7,59.75207668071742,
video/Experiment/zh_sp01_Ad_We_3_NoThetaInAudio_NoVideo.avi,noTheta,noVideo,sp01,Ad,We,3,2,4,flow/blocks/NoThetaInAudio_NoVideo_A.csv,,,,,,,,,0,2,2,2,0,11,11,14,-0.3819444444444444,0.30694444444444446,1,0,0,5.226339199987706,call1,-0.001388888888888889,-0.3300925925925926,1,0,0,5.859019000025,colour4,0.45416666666666666,-0.11527777777777778,1,0,0,6.394089500012342,number3,True,True,True,23,3,2019_Nov_15_1454,MA_Theta_Exp,3.0.7,59.75207668071742,
video/Experiment/zh_sp07_Dr_Ge_1_NoThetaInAudio_NoVideo.avi,noTheta,noVideo,sp07,Dr,Ge,1,2,4,flow/blocks/NoThetaInAudio_NoVideo_A.csv,,,,,,,,,0,2,2,2,0,12,12,16,-0.4263888888888889,0.1,1,0,0,4.427854300010949,call2,-0.059722222222222225,0.2902777777777778,1,0,0,4.965329300030135,colour1,0.3638888888888889,0.3055555555555556,1,0,0,5.45791829994414,number1,True,True,True,23,3,2019_Nov_15_1454,MA_Theta_Exp,3.0.7,59.75207668071742,
video/Experiment/zh_sp01_Dr_Ro_3_NoThetaInAudio_NoVideo.avi,noTheta,noVideo,sp01,Dr,Ro,3,2,4,flow/blocks/NoThetaInAudio_NoVideo_A.csv,,,,,,,,,0,2,2,2,0,13,13,26,-0.3625,0.11435185185185186,1,0,0,4.952049100014847,call2,0.009722222222222222,-0.14166666666666666,1,0,0,5.6355716999969445,colour3,0.3888888888888889,-0.09861111111111111,1,0,0,6.1887329000164755,number3,True,True,True,23,3,2019_Nov_15_1454,MA_Theta_Exp,3.0.7,59.75207668071742,
video/Experiment/zh_sp07_Ad_Gr_4_NoThetaInAudio_NoVideo.avi,noTheta,noVideo,sp07,Ad,Gr,4,2,4,flow/blocks/NoThetaInAudio_NoVideo_A.csv,,,,,,,,,0,2,2,2,0,14,14,7,-0.35833333333333334,0.29583333333333334,1,0,0,4.291191799973603,call1,0.0,0.11157407407407408,1,0,0,4.771302100038156,colour2,0.37916666666666665,-0.3106481481481482,1,0,0,5.34269590000622,number4,True,True,True,23,3,2019_Nov_15_1454,MA_Theta_Exp,3.0.7,59.75207668071742,
video/Experiment/zh_sp07_Dr_Ge_2_NoThetaInAudio_NoVideo.avi,noTheta,noVideo,sp07,Dr,Ge,2,2,4,flow/blocks/NoThetaInAudio_NoVideo_A.csv,,,,,,,,,0,2,2,2,0,15,15,17,-0.35138888888888886,0.10833333333333334,1,0,0,4.557618600025307,call2,-0.03611111111111111,0.275,1,0,0,5.150425399944652,colour1,0.41805555555555557,0.0699074074074074,1,0,0,5.662164199980907,number2,True,True,True,23,3,2019_Nov_15_1454,MA_Theta_Exp,3.0.7,59.75207668071742,
video/Experiment/zh_sp07_Dr_Ge_4_NoThetaInAudio_NoVideo.avi,noTheta,noVideo,sp07,Dr,Ge,4,2,4,flow/blocks/NoThetaInAudio_NoVideo_A.csv,,,,,,,,,0,2,2,2,0,16,16,19,-0.3763888888888889,0.3060185185185185,1,0,0,4.439488399948459,call1,-0.029166666666666667,0.29212962962962963,1,0,0,4.923373600002378,colour1,0.3819444444444444,-0.2884259259259259,1,0,0,5.589538000000175,number4,False,True,True,23,3,2019_Nov_15_1454,MA_Theta_Exp,3.0.7,59.75207668071742,
video/Experiment/zh_sp07_Ad_Ge_1_NoThetaInAudio_NoVideo.avi,noTheta,noVideo,sp07,Ad,Ge,1,2,4,flow/blocks/NoThetaInAudio_NoVideo_A.csv,,,,,,,,,0,2,2,2,0,17,17,0,-0.4041666666666667,0.31666666666666665,1,0,0,4.273345800000243,call1,0.001388888888888889,0.32083333333333336,1,0,0,4.710579100006726,colour1,0.39166666666666666,0.3087962962962963,1,0,0,5.200338799972087,number1,True,True,True,23,3,2019_Nov_15_1454,MA_Theta_Exp,3.0.7,59.75207668071742,
video/Experiment/zh_sp01_Ad_Ge_3_NoThetaInAudio_NoVideo.avi,noTheta,noVideo,sp01,Ad,Ge,3,2,4,flow/blocks/NoThetaInAudio_NoVideo_A.csv,,,,,,,,,0,2,2,2,0,18,18,2,-0.44166666666666665,0.2851851851851852,1,0,0,4.647156199964229,call1,-0.05277777777777778,0.2851851851851852,1,0,0,5.115619299991522,colour1,0.3888888888888889,-0.15787037037037038,1,0,0,5.636457499989774,number3,True,True,True,23,3,2019_Nov_15_1454,MA_Theta_Exp,3.0.7,59.75207668071742,
video/Experiment/zh_sp01_Dr_We_3_NoThetaInAudio_NoVideo.avi,noTheta,noVideo,sp01,Dr,We,3,2,4,flow/blocks/NoThetaInAudio_NoVideo_A.csv,,,,,,,,,0,2,2,2,0,19,19,30,-0.40555555555555556,0.11990740740740741,1,0,0,4.963246600003913,call2,0.006944444444444444,-0.3037037037037037,1,0,0,6.067043199960608,colour4,0.37777777777777777,-0.11944444444444445,1,0,0,6.534547699964605,number3,True,True,True,23,3,2019_Nov_15_1454,MA_Theta_Exp,3.0.7,59.75207668071742,
video/Experiment/zh_sp01_Dr_We_2_NoThetaInAudio_NoVideo.avi,noTheta,noVideo,sp01,Dr,We,2,2,4,flow/blocks/NoThetaInAudio_NoVideo_A.csv,,,,,,,,,0,2,2,2,0,20,20,29,-0.3375,0.09768518518518518,1,0,0,5.076544100011233,call2,0.009722222222222222,-0.3189814814814815,1,0,0,5.724779499985743,colour4,0.4013888888888889,0.0625,1,0,0,6.291816500015557,number2,True,True,True,23,3,2019_Nov_15_1454,MA_Theta_Exp,3.0.7,59.75207668071742,
video/Experiment/zh_sp07_Dr_We_4_NoThetaInAudio_NoVideo.avi,noTheta,noVideo,sp07,Dr,We,4,2,4,flow/blocks/NoThetaInAudio_NoVideo_A.csv,,,,,,,,,0,2,2,2,0,21,21,31,-0.4152777777777778,0.11805555555555555,1,0,0,4.545969799975865,call2,0.009722222222222222,-0.35648148148148145,1,0,0,5.161297500017099,colour4,0.44583333333333336,-0.31666666666666665,1,0,0,5.663304799993057,number4,True,True,True,23,3,2019_Nov_15_1454,MA_Theta_Exp,3.0.7,59.75207668071742,
video/Experiment/zh_sp07_Dr_Ro_1_NoThetaInAudio_NoVideo.avi,noTheta,noVideo,sp07,Dr,Ro,1,2,4,flow/blocks/NoThetaInAudio_NoVideo_A.csv,,,,,,,,,0,2,2,2,0,22,22,24,-0.36527777777777776,0.11990740740740741,1,0,0,4.214225300005637,call2,0.058333333333333334,-0.16898148148148148,1,0,0,4.814803300017957,colour3,0.34444444444444444,0.26666666666666666,1,0,0,5.50278999999864,number1,True,True,True,23,3,2019_Nov_15_1454,MA_Theta_Exp,3.0.7,59.75207668071742,
video/Experiment/zh_sp01_Ad_We_4_NoThetaInAudio_NoVideo.avi,noTheta,noVideo,sp01,Ad,We,4,2,4,flow/blocks/NoThetaInAudio_NoVideo_A.csv,,,,,,,,,0,2,2,2,0,23,23,15,-0.4125,0.25555555555555554,1,0,0,4.885975000041071,call1,-0.044444444444444446,-0.33564814814814814,1,0,0,5.5854667000239715,colour4,0.425,-0.2777777777777778,1,0,0,6.1077547000022605,number4,True,True,True,23,3,2019_Nov_15_1454,MA_Theta_Exp,3.0.7,59.75207668071742,
video/Experiment/zh_sp01_Dr_We_1_NoThetaInAudio_NoVideo.avi,noTheta,noVideo,sp01,Dr,We,1,2,4,flow/blocks/NoThetaInAudio_NoVideo_A.csv,,,,,,,,,0,2,2,2,0,24,24,28,-0.3763888888888889,0.0875,1,0,0,5.119631899986416,call2,0.02361111111111111,-0.31203703703703706,1,0,0,5.822311100026127,colour4,0.4263888888888889,0.2833333333333333,1,0,0,6.590941499976907,number1,True,True,True,23,3,2019_Nov_15_1454,MA_Theta_Exp,3.0.7,59.75207668071742,
video/Experiment/zh_sp07_Dr_Gr_2_NoThetaInAudio_NoVideo.avi,noTheta,noVideo,sp07,Dr,Gr,2,2,4,flow/blocks/NoThetaInAudio_NoVideo_A.csv,,,,,,,,,0,2,2,2,0,25,25,21,-0.43472222222222223,0.1111111111111111,1,0,0,4.730235900031403,call2,0.05,0.1111111111111111,1,0,0,5.248390099965036,colour2,0.4166666666666667,0.12083333333333333,1,0,0,5.776386900048237,number2,True,True,True,23,3,2019_Nov_15_1454,MA_Theta_Exp,3.0.7,59.75207668071742,
video/Experiment/zh_sp07_Dr_Gr_3_NoThetaInAudio_NoVideo.avi,noTheta,noVideo,sp07,Dr,Gr,3,2,4,flow/blocks/NoThetaInAudio_NoVideo_A.csv,,,,,,,,,0,2,2,2,0,26,26,22,-0.41388888888888886,0.08935185185185185,1,0,0,4.305555600032676,call2,-0.03888888888888889,0.12777777777777777,1,0,0,4.763122899981681,colour2,0.40555555555555556,-0.09398148148148149,1,0,0,5.307976100011729,number3,True,True,True,23,3,2019_Nov_15_1454,MA_Theta_Exp,3.0.7,59.75207668071742,
video/Experiment/zh_sp01_Ad_We_2_NoThetaInAudio_NoVideo.avi,noTheta,noVideo,sp01,Ad,We,2,2,4,flow/blocks/NoThetaInAudio_NoVideo_A.csv,,,,,,,,,0,2,2,2,0,27,27,13,-0.4013888888888889,0.29583333333333334,1,0,0,4.986206699977629,call1,0.004166666666666667,-0.31203703703703706,1,0,0,5.702186600014102,colour4,0.425,0.09861111111111111,1,0,0,6.287895000015851,number2,True,True,True,23,3,2019_Nov_15_1454,MA_Theta_Exp,3.0.7,59.75207668071742,
video/Experiment/zh_sp01_Dr_Ro_2_NoThetaInAudio_NoVideo.avi,noTheta,noVideo,sp01,Dr,Ro,2,2,4,flow/blocks/NoThetaInAudio_NoVideo_A.csv,,,,,,,,,0,2,2,2,0,28,28,25,-0.3611111111111111,0.14629629629629629,1,0,0,5.101561899995431,call2,-0.019444444444444445,-0.08611111111111111,1,0,0,5.808307000028435,colour3,0.35833333333333334,0.12777777777777777,1,0,0,6.314111799991224,number2,True,True,True,23,3,2019_Nov_15_1454,MA_Theta_Exp,3.0.7,59.75207668071742,
video/Experiment/zh_sp07_Ad_Gr_1_NoThetaInAudio_NoVideo.avi,noTheta,noVideo,sp07,Ad,Gr,1,2,4,flow/blocks/NoThetaInAudio_NoVideo_A.csv,,,,,,,,,0,2,2,2,0,29,29,4,-0.36944444444444446,0.2833333333333333,1,0,0,4.270714299986139,call1,-0.05555555555555555,0.09351851851851851,1,0,0,4.721501799998805,colour2,0.37916666666666665,0.2986111111111111,1,0,0,5.243908900010865,number1,True,True,True,23,3,2019_Nov_15_1454,MA_Theta_Exp,3.0.7,59.75207668071742,
video/Experiment/zh_sp01_Ad_Ro_4_NoThetaInAudio_NoVideo.avi,noTheta,noVideo,sp01,Ad,Ro,4,2,4,flow/blocks/NoThetaInAudio_NoVideo_A.csv,,,,,,,,,0,2,2,2,0,30,30,11,-0.425,0.2625,1,0,0,5.260803400014993,call1,-0.011111111111111112,-0.1259259259259259,1,0,0,5.928446200035978,colour3,0.4166666666666667,-0.3578703703703704,1,0,0,6.524426300020423,number4,True,True,True,23,3,2019_Nov_15_1454,MA_Theta_Exp,3.0.7,59.75207668071742,
video/Experiment/zh_sp01_Dr_Ge_3_NoThetaInAudio_NoVideo.avi,noTheta,noVideo,sp01,Dr,Ge,3,2,4,flow/blocks/NoThetaInAudio_NoVideo_A.csv,,,,,,,,,0,2,2,2,0,31,31,18,-0.3958333333333333,0.07824074074074074,1,0,0,5.20574119995581,call2,-0.025,0.3,1,0,0,5.803972100024112,colour1,0.38472222222222224,-0.08981481481481482,1,0,0,6.4213634000043385,number3,True,True,True,23,3,2019_Nov_15_1454,MA_Theta_Exp,3.0.7,59.75207668071742,
video/Experiment/zh_sp01_Ad_We_4_NVocInAudio_NoVideo.avi,vocoded,noVideo,sp01,Ad,We,4,3,2,flow/blocks/NVocInAudio_NoVideo_A.csv,,,,,,,,,0,3,3,3,0,0,0,15,-0.35833333333333334,0.2935185185185185,1,0,0,5.154973500000779,call1,-0.034722222222222224,-0.2884259259259259,1,0,0,5.753796899982262,colour4,0.4013888888888889,-0.30787037037037035,1,0,0,6.300750900001731,number4,True,True,True,23,3,2019_Nov_15_1454,MA_Theta_Exp,3.0.7,59.75207668071742,
video/Experiment/zh_sp07_Dr_Gr_3_NVocInAudio_NoVideo.avi,vocoded,noVideo,sp07,Dr,Gr,3,3,2,flow/blocks/NVocInAudio_NoVideo_A.csv,,,,,,,,,0,3,3,3,0,1,1,22,-0.3277777777777778,0.12546296296296297,1,0,0,4.629823499999475,call2,0.019444444444444445,0.07824074074074074,1,0,0,5.18070720002288,colour2,0.45,-0.1037037037037037,1,0,0,5.700823899998795,number3,True,True,True,23,3,2019_Nov_15_1454,MA_Theta_Exp,3.0.7,59.75207668071742,
video/Experiment/zh_sp07_Ad_Gr_1_NVocInAudio_NoVideo.avi,vocoded,noVideo,sp07,Ad,Gr,1,3,2,flow/blocks/NVocInAudio_NoVideo_A.csv,,,,,,,,,0,3,3,3,0,2,2,4,-0.45694444444444443,0.27685185185185185,1,0,0,4.651384700031485,call1,-0.029166666666666667,0.09212962962962963,1,0,0,5.168006399995647,colour2,0.4486111111111111,0.30972222222222223,1,0,0,5.635331100027543,number1,True,True,True,23,3,2019_Nov_15_1454,MA_Theta_Exp,3.0.7,59.75207668071742,
video/Experiment/zh_sp01_Ad_We_2_NVocInAudio_NoVideo.avi,vocoded,noVideo,sp01,Ad,We,2,3,2,flow/blocks/NVocInAudio_NoVideo_A.csv,,,,,,,,,0,3,3,3,0,3,3,13,-0.4486111111111111,0.287962962962963,1,0,0,4.999854199995752,call1,-0.015277777777777777,-0.3175925925925926,1,0,0,5.6339383000158705,colour4,0.40694444444444444,0.15416666666666667,1,0,0,6.239466800005175,number2,True,True,True,23,3,2019_Nov_15_1454,MA_Theta_Exp,3.0.7,59.75207668071742,
video/Experiment/zh_sp07_Ad_Ro_4_NVocInAudio_NoVideo.avi,vocoded,noVideo,sp07,Ad,Ro,4,3,2,flow/blocks/NVocInAudio_NoVideo_A.csv,,,,,,,,,0,3,3,3,0,4,4,11,-0.40555555555555556,0.28055555555555556,1,0,0,4.4921449000248685,call1,0.0,-0.11203703703703703,1,0,0,5.102090100001078,colour3,0.45694444444444443,-0.3439814814814815,1,0,0,5.6429312999825925,number4,True,True,True,23,3,2019_Nov_15_1454,MA_Theta_Exp,3.0.7,59.75207668071742,
video/Experiment/zh_sp07_Ad_We_1_NVocInAudio_NoVideo.avi,vocoded,noVideo,sp07,Ad,We,1,3,2,flow/blocks/NVocInAudio_NoVideo_A.csv,,,,,,,,,0,3,3,3,0,5,5,12,-0.39305555555555555,0.2972222222222222,1,0,0,4.809008799958974,call1,0.001388888888888889,-0.32314814814814813,1,0,0,5.52223000000231,colour4,0.43472222222222223,0.30277777777777776,1,0,0,6.19684230000712,number1,True,True,True,23,3,2019_Nov_15_1454,MA_Theta_Exp,3.0.7,59.75207668071742,
video/Experiment/zh_sp07_Dr_We_1_NVocInAudio_NoVideo.avi,vocoded,noVideo,sp07,Dr,We,1,3,2,flow/blocks/NVocInAudio_NoVideo_A.csv,,,,,,,,,0,3,3,3,0,6,6,28,-0.3875,0.09166666666666666,1,0,0,4.466984600003343,call2,-0.029166666666666667,-0.3175925925925926,1,0,0,5.1003835999872535,colour4,0.45,0.3013888888888889,1,0,0,5.8174148999969475,number1,True,True,True,23,3,2019_Nov_15_1454,MA_Theta_Exp,3.0.7,59.75207668071742,
video/Experiment/zh_sp07_Ad_Ge_1_NVocInAudio_NoVideo.avi,vocoded,noVideo,sp07,Ad,Ge,1,3,2,flow/blocks/NVocInAudio_NoVideo_A.csv,,,,,,,,,0,3,3,3,0,7,7,0,-0.4375,0.2861111111111111,1,0,0,4.551668000000063,call1,-0.013888888888888888,0.34444444444444444,1,0,0,5.034778599976562,colour1,0.41388888888888886,0.3296296296296296,1,0,0,5.564764199953061,number1,True,True,True,23,3,2019_Nov_15_1454,MA_Theta_Exp,3.0.7,59.75207668071742,
video/Experiment/zh_sp07_Ad_Ro_1_NVocInAudio_NoVideo.avi,vocoded,noVideo,sp07,Ad,Ro,1,3,2,flow/blocks/NVocInAudio_NoVideo_A.csv,,,,,,,,,0,3,3,3,0,8,8,8,-0.4097222222222222,0.2708333333333333,1,0,0,4.078373699972872,call1,-0.011111111111111112,-0.13842592592592592,1,0,0,4.745803099998739,colour3,0.4,0.2763888888888889,1,0,0,5.361898900009692,number1,True,True,True,23,3,2019_Nov_15_1454,MA_Theta_Exp,3.0.7,59.75207668071742,
video/Experiment/zh_sp01_Ad_Ge_3_NVocInAudio_NoVideo.avi,vocoded,noVideo,sp01,Ad,Ge,3,3,2,flow/blocks/NVocInAudio_NoVideo_A.csv,,,,,,,,,0,3,3,3,0,9,9,2,-0.37916666666666665,0.3074074074074074,1,0,0,4.948173900018446,call1,-0.0375,0.29907407407407405,1,0,0,5.630872700014152,colour1,0.37916666666666665,-0.08287037037037037,1,0,0,6.230229199980386,number3,True,True,True,23,3,2019_Nov_15_1454,MA_Theta_Exp,3.0.7,59.75207668071742,
video/Experiment/zh_sp01_Dr_We_4_NVocInAudio_NoVideo.avi,vocoded,noVideo,sp01,Dr,We,4,3,2,flow/blocks/NVocInAudio_NoVideo_A.csv,,,,,,,,,0,3,3,3,0,10,10,31,-0.39444444444444443,0.08935185185185185,1,0,0,5.287850600027014,call2,0.0,-0.31203703703703706,1,0,0,5.887459099991247,colour4,0.39305555555555555,-0.275,1,0,0,6.412544899969362,number4,True,True,True,23,3,2019_Nov_15_1454,MA_Theta_Exp,3.0.7,59.75207668071742,
video/Experiment/zh_sp07_Dr_We_2_NVocInAudio_NoVideo.avi,vocoded,noVideo,sp07,Dr,We,2,3,2,flow/blocks/NVocInAudio_NoVideo_A.csv,,,,,,,,,0,3,3,3,0,11,11,29,-0.3638888888888889,0.12083333333333333,1,0,0,4.645769599999767,call2,-0.015277777777777777,-0.3106481481481482,1,0,0,5.264662500005215,colour4,0.4013888888888889,0.1,1,0,0,5.9146634000353515,number2,True,True,True,23,3,2019_Nov_15_1454,MA_Theta_Exp,3.0.7,59.75207668071742,
video/Experiment/zh_sp01_Dr_Ro_1_NVocInAudio_NoVideo.avi,vocoded,noVideo,sp01,Dr,Ro,1,3,2,flow/blocks/NVocInAudio_NoVideo_A.csv,,,,,,,,,0,3,3,3,0,12,12,24,-0.3541666666666667,0.05416666666666667,1,0,0,5.086595500004478,call2,-0.027777777777777776,-0.1300925925925926,1,0,0,5.6468102999497205,colour3,0.41388888888888886,0.3055555555555556,1,0,0,6.336634700011928,number1,True,True,True,23,3,2019_Nov_15_1454,MA_Theta_Exp,3.0.7,59.75207668071742,
video/Experiment/zh_sp07_Ad_Ge_4_NVocInAudio_NoVideo.avi,vocoded,noVideo,sp07,Ad,Ge,4,3,2,flow/blocks/NVocInAudio_NoVideo_A.csv,,,,,,,,,0,3,3,3,0,13,13,3,-0.43333333333333335,0.35138888888888886,1,0,0,4.723092000000179,call1,0.03333333333333333,0.28055555555555556,1,0,0,6.098687899997458,colour1,0.3625,-0.23842592592592593,1,0,0,6.612546799995471,number4,True,True,True,23,3,2019_Nov_15_1454,MA_Theta_Exp,3.0.7,59.75207668071742,
video/Experiment/zh_sp01_Dr_We_3_NVocInAudio_NoVideo.avi,vocoded,noVideo,sp01,Dr,We,3,3,2,flow/blocks/NVocInAudio_NoVideo_A.csv,,,,,,,,,0,3,3,3,0,14,14,30,-0.40694444444444444,0.11851851851851852,1,0,0,4.966591599979438,call2,0.009722222222222222,-0.3162037037037037,1,0,0,5.615876699972432,colour4,0.37222222222222223,-0.10833333333333334,1,0,0,6.138449500023853,number3,True,True,True,23,3,2019_Nov_15_1454,MA_Theta_Exp,3.0.7,59.75207668071742,
video/Experiment/zh_sp01_Ad_Gr_3_NVocInAudio_NoVideo.avi,vocoded,noVideo,sp01,Ad,Gr,3,3,2,flow/blocks/NVocInAudio_NoVideo_A.csv,,,,,,,,,0,3,3,3,0,15,15,6,-0.49027777777777776,0.28888888888888886,1,0,0,5.062027300009504,call1,0.015277777777777777,0.09212962962962963,1,0,0,6.717908399994485,colour2,0.40694444444444444,-0.12314814814814815,1,0,0,7.230719999992289,number3,True,True,True,23,3,2019_Nov_15_1454,MA_Theta_Exp,3.0.7,59.75207668071742,
video/Experiment/zh_sp01_Ad_Ro_3_NVocInAudio_NoVideo.avi,vocoded,noVideo,sp01,Ad,Ro,3,3,2,flow/blocks/NVocInAudio_NoVideo_A.csv,,,,,,,,,0,3,3,3,0,16,16,10,-0.4625,0.30694444444444446,1,0,0,5.32207399996696,call1,0.02361111111111111,-0.12037037037037036,1,0,0,5.949197100009769,colour3,0.35138888888888886,-0.0763888888888889,1,0,0,6.499729799979832,number3,True,True,True,23,3,2019_Nov_15_1454,MA_Theta_Exp,3.0.7,59.75207668071742,
video/Experiment/zh_sp01_Dr_Ro_4_NVocInAudio_NoVideo.avi,vocoded,noVideo,sp01,Dr,Ro,4,3,2,flow/blocks/NVocInAudio_NoVideo_A.csv,,,,,,,,,0,3,3,3,0,17,17,27,-0.4152777777777778,0.08472222222222223,1,0,0,5.453504299977794,call2,-0.03333333333333333,-0.055092592592592596,1,0,0,6.04367889999412,colour3,0.3763888888888889,-0.2967592592592593,1,0,0,6.642374000046402,number4,True,True,True,23,3,2019_Nov_15_1454,MA_Theta_Exp,3.0.7,59.75207668071742,
video/Experiment/zh_sp01_Ad_We_3_NVocInAudio_NoVideo.avi,vocoded,noVideo,sp01,Ad,We,3,3,2,flow/blocks/NVocInAudio_NoVideo_A.csv,,,,,,,,,0,3,3,3,0,18,18,14,0.37777777777777777,-0.08888888888888889,1,0,0,4.981769600010011,call1,-0.027777777777777776,-0.28564814814814815,1,0,0,7.196522200014442,colour4,0.4083333333333333,-0.10833333333333334,1,0,0,7.6910749999806285,number3,True,True,True,23,3,2019_Nov_15_1454,MA_Theta_Exp,3.0.7,59.75207668071742,
video/Experiment/zh_sp01_Ad_Ge_2_NVocInAudio_NoVideo.avi,vocoded,noVideo,sp01,Ad,Ge,2,3,2,flow/blocks/NVocInAudio_NoVideo_A.csv,,,,,,,,,0,3,3,3,0,19,19,1,-0.3763888888888889,0.30416666666666664,1,0,0,5.232671500009019,call1,-0.008333333333333333,0.29074074074074074,1,0,0,5.69875320000574,colour1,0.43333333333333335,0.04583333333333333,1,0,0,6.2523480000090785,number2,True,True,True,23,3,2019_Nov_15_1454,MA_Theta_Exp,3.0.7,59.75207668071742,
video/Experiment/zh_sp07_Ad_Ro_2_NVocInAudio_NoVideo.avi,vocoded,noVideo,sp07,Ad,Ro,2,3,2,flow/blocks/NVocInAudio_NoVideo_A.csv,,,,,,,,,0,3,3,3,0,20,20,9,-0.38333333333333336,0.31527777777777777,1,0,0,4.687695599975996,call1,0.011111111111111112,-0.12314814814814815,1,0,0,5.289559600001667,colour3,0.3763888888888889,0.11805555555555555,1,0,0,5.787349799997173,number2,True,True,True,23,3,2019_Nov_15_1454,MA_Theta_Exp,3.0.7,59.75207668071742,
video/Experiment/zh_sp01_Dr_Ro_3_NVocInAudio_NoVideo.avi,vocoded,noVideo,sp01,Dr,Ro,3,3,2,flow/blocks/NVocInAudio_NoVideo_A.csv,,,,,,,,,0,3,3,3,0,21,21,26,-0.4222222222222222,0.0824074074074074,1,0,0,5.248668399988674,call2,0.011111111111111112,-0.08009259259259259,1,0,0,5.735386199958157,colour3,0.42083333333333334,0.09027777777777778,1,0,0,6.148931700037792,number2,True,True,False,23,3,2019_Nov_15_1454,MA_Theta_Exp,3.0.7,59.75207668071742,
video/Experiment/zh_sp01_Dr_Ge_1_NVocInAudio_NoVideo.avi,vocoded,noVideo,sp01,Dr,Ge,1,3,2,flow/blocks/NVocInAudio_NoVideo_A.csv,,,,,,,,,0,3,3,3,0,22,22,16,-0.3902777777777778,0.15694444444444444,1,0,0,5.1536786000360735,call2,-0.0625,0.325,1,0,0,5.757171800010838,colour1,0.4097222222222222,0.2935185185185185,1,0,0,6.2999033000087366,number1,True,True,True,23,3,2019_Nov_15_1454,MA_Theta_Exp,3.0.7,59.75207668071742,
video/Experiment/zh_sp01_Dr_Gr_4_NVocInAudio_NoVideo.avi,vocoded,noVideo,sp01,Dr,Gr,4,3,2,flow/blocks/NVocInAudio_NoVideo_A.csv,,,,,,,,,0,3,3,3,0,23,23,23,-0.39444444444444443,0.09444444444444444,1,0,0,5.041051300009713,call2,0.016666666666666666,0.08518518518518518,1,0,0,5.7248568999930285,colour2,0.39305555555555555,-0.30092592592592593,1,0,0,6.3276361000025645,number4,True,True,True,23,3,2019_Nov_15_1454,MA_Theta_Exp,3.0.7,59.75207668071742,
video/Experiment/zh_sp01_Ad_Gr_4_NVocInAudio_NoVideo.avi,vocoded,noVideo,sp01,Ad,Gr,4,3,2,flow/blocks/NVocInAudio_NoVideo_A.csv,,,,,,,,,0,3,3,3,0,24,24,7,-0.4097222222222222,0.3236111111111111,1,0,0,5.042062900029123,call1,0.001388888888888889,0.11851851851851852,1,0,0,5.54242339998018,colour2,0.41805555555555557,-0.2800925925925926,1,0,0,6.127668500004802,number4,True,True,True,23,3,2019_Nov_15_1454,MA_Theta_Exp,3.0.7,59.75207668071742,
video/Experiment/zh_sp07_Dr_Gr_1_NVocInAudio_NoVideo.avi,vocoded,noVideo,sp07,Dr,Gr,1,3,2,flow/blocks/NVocInAudio_NoVideo_A.csv,,,,,,,,,0,3,3,3,0,25,25,20,-0.42083333333333334,0.11805555555555555,1,0,0,4.824529599980451,call2,-0.025,0.09907407407407408,1,0,0,5.357732600008603,colour2,0.38055555555555554,0.3,1,0,0,5.9907047000015154,number1,True,True,True,23,3,2019_Nov_15_1454,MA_Theta_Exp,3.0.7,59.75207668071742,
video/Experiment/zh_sp01_Ad_Gr_2_NVocInAudio_NoVideo.avi,vocoded,noVideo,sp01,Ad,Gr,2,3,2,flow/blocks/NVocInAudio_NoVideo_A.csv,,,,,,,,,0,3,3,3,0,26,26,5,-0.40555555555555556,0.2902777777777778,1,0,0,5.071999000036158,call1,0.004166666666666667,0.14351851851851852,1,0,0,5.536165900004562,colour2,0.44166666666666665,0.11712962962962963,1,0,0,6.0641581999952905,number2,True,True,True,23,3,2019_Nov_15_1454,MA_Theta_Exp,3.0.7,59.75207668071742,
video/Experiment/zh_sp07_Dr_Ge_2_NVocInAudio_NoVideo.avi,vocoded,noVideo,sp07,Dr,Ge,2,3,2,flow/blocks/NVocInAudio_NoVideo_A.csv,,,,,,,,,0,3,3,3,0,27,27,17,-0.3819444444444444,0.13055555555555556,1,0,0,4.280089500010945,call2,-0.03888888888888889,0.3194444444444444,1,0,0,4.848319199983962,colour1,0.38333333333333336,0.11712962962962963,1,0,0,5.4009552000206895,number2,True,True,True,23,3,2019_Nov_15_1454,MA_Theta_Exp,3.0.7,59.75207668071742,
video/Experiment/zh_sp07_Dr_Gr_2_NVocInAudio_NoVideo.avi,vocoded,noVideo,sp07,Dr,Gr,2,3,2,flow/blocks/NVocInAudio_NoVideo_A.csv,,,,,,,,,0,3,3,3,0,28,28,21,-0.3763888888888889,0.12129629629629629,1,0,0,4.520862499950454,call2,0.016666666666666666,0.12916666666666668,1,0,0,5.060553100018296,colour2,0.41388888888888886,0.12824074074074074,1,0,0,5.554293999972288,number2,True,True,True,23,3,2019_Nov_15_1454,MA_Theta_Exp,3.0.7,59.75207668071742,
video/Experiment/zh_sp07_Dr_Ge_4_NVocInAudio_NoVideo.avi,vocoded,noVideo,sp07,Dr,Ge,4,3,2,flow/blocks/NVocInAudio_NoVideo_A.csv,,,,,,,,,0,3,3,3,0,29,29,19,-0.44305555555555554,0.0875,1,0,0,4.470659599988721,call2,0.016666666666666666,0.2986111111111111,1,0,0,5.054608700040262,colour1,0.39861111111111114,-0.29814814814814816,1,0,0,5.742845500004478,number4,True,True,True,23,3,2019_Nov_15_1454,MA_Theta_Exp,3.0.7,59.75207668071742,
video/Experiment/zh_sp07_Dr_Ge_3_NVocInAudio_NoVideo.avi,vocoded,noVideo,sp07,Dr,Ge,3,3,2,flow/blocks/NVocInAudio_NoVideo_A.csv,,,,,,,,,0,3,3,3,0,30,30,18,-0.42916666666666664,0.125,1,0,0,4.536259600019548,call2,-0.044444444444444446,0.3402777777777778,1,0,0,5.078436400042847,colour1,0.4,-0.11481481481481481,1,0,0,5.71170569997048,number3,True,True,True,23,3,2019_Nov_15_1454,MA_Theta_Exp,3.0.7,59.75207668071742,
video/Experiment/zh_sp07_Dr_Ro_2_NVocInAudio_NoVideo.avi,vocoded,noVideo,sp07,Dr,Ro,2,3,2,flow/blocks/NVocInAudio_NoVideo_A.csv,,,,,,,,,0,3,3,3,0,31,31,25,-0.35,0.12685185185185185,1,0,0,4.605765999993309,call2,0.03888888888888889,-0.0912037037037037,1,0,0,5.095932499971241,colour3,0.4388888888888889,0.12083333333333333,1,0,0,5.607961600006092,number2,True,True,True,23,3,2019_Nov_15_1454,MA_Theta_Exp,3.0.7,59.75207668071742,
video/Experiment/zh_sp01_Dr_Gr_3_NoThetaInAudio_GlobalThetaInVideo.avi,noTheta,plusVideo,sp01,Dr,Gr,3,4,3,flow/blocks/NoThetaInAudio_GlobalThetaInVideo_A.csv,,,,,,,,,0,4,4,4,0,0,0,22,-0.38055555555555554,0.10416666666666667,1,0,0,5.211106400005519,call2,-0.06527777777777778,0.07546296296296297,1,0,0,5.673369800031651,colour2,0.3972222222222222,-0.09953703703703703,1,0,0,6.196007399994414,number3,True,True,True,23,3,2019_Nov_15_1454,MA_Theta_Exp,3.0.7,59.75207668071742,
video/Experiment/zh_sp07_Ad_Gr_4_NoThetaInAudio_GlobalThetaInVideo.avi,noTheta,plusVideo,sp07,Ad,Gr,4,4,3,flow/blocks/NoThetaInAudio_GlobalThetaInVideo_A.csv,,,,,,,,,0,4,4,4,0,1,1,7,-0.3861111111111111,0.3458333333333333,1,0,0,4.439559200021904,call1,0.019444444444444445,0.13240740740740742,1,0,0,4.954077799979132,colour2,0.41805555555555557,-0.3175925925925926,1,0,0,5.521759399969596,number4,True,True,True,23,3,2019_Nov_15_1454,MA_Theta_Exp,3.0.7,59.75207668071742,
video/Experiment/zh_sp01_Ad_Ge_4_NoThetaInAudio_GlobalThetaInVideo.avi,noTheta,plusVideo,sp01,Ad,Ge,4,4,3,flow/blocks/NoThetaInAudio_GlobalThetaInVideo_A.csv,,,,,,,,,0,4,4,4,0,2,2,3,-0.425,0.34444444444444444,1,0,0,4.913074299984146,call1,-0.03194444444444444,0.2726851851851852,1,0,0,5.362749999971129,colour1,0.41944444444444445,-0.337037037037037,1,0,0,6.129754800000228,number4,True,True,True,23,3,2019_Nov_15_1454,MA_Theta_Exp,3.0.7,59.75207668071742,
video/Experiment/zh_sp01_Ad_Gr_3_NoThetaInAudio_GlobalThetaInVideo.avi,noTheta,plusVideo,sp01,Ad,Gr,3,4,3,flow/blocks/NoThetaInAudio_GlobalThetaInVideo_A.csv,,,,,,,,,0,4,4,4,0,3,3,6,-0.4083333333333333,0.31666666666666665,1,0,0,5.266157599980943,call1,-0.019444444444444445,0.10185185185185185,1,0,0,5.767552900011651,colour2,0.3875,-0.10833333333333334,1,0,0,6.4166576999705285,number3,True,True,True,23,3,2019_Nov_15_1454,MA_Theta_Exp,3.0.7,59.75207668071742,
video/Experiment/zh_sp01_Dr_Ro_2_NoThetaInAudio_GlobalThetaInVideo.avi,noTheta,plusVideo,sp01,Dr,Ro,2,4,3,flow/blocks/NoThetaInAudio_GlobalThetaInVideo_A.csv,,,,,,,,,0,4,4,4,0,4,4,25,-0.375,0.3111111111111111,1,0,0,5.688191999972332,call1,-0.002777777777777778,-0.07592592592592592,1,0,0,6.240898400021251,colour3,0.37222222222222223,0.11388888888888889,1,0,0,6.740729000011925,number2,False,True,True,23,3,2019_Nov_15_1454,MA_Theta_Exp,3.0.7,59.75207668071742,
video/Experiment/zh_sp07_Dr_Ro_1_NoThetaInAudio_GlobalThetaInVideo.avi,noTheta,plusVideo,sp07,Dr,Ro,1,4,3,flow/blocks/NoThetaInAudio_GlobalThetaInVideo_A.csv,,,,,,,,,0,4,4,4,0,5,5,24,-0.37222222222222223,0.0763888888888889,1,0,0,4.430781800008845,call2,-0.013888888888888888,-0.10787037037037037,1,0,0,4.9898090999922715,colour3,0.39305555555555555,0.29583333333333334,1,0,0,5.583297899982426,number1,True,True,True,23,3,2019_Nov_15_1454,MA_Theta_Exp,3.0.7,59.75207668071742,
video/Experiment/zh_sp01_Ad_Gr_1_NoThetaInAudio_GlobalThetaInVideo.avi,noTheta,plusVideo,sp01,Ad,Gr,1,4,3,flow/blocks/NoThetaInAudio_GlobalThetaInVideo_A.csv,,,,,,,,,0,4,4,4,0,6,6,4,-0.325,0.3101851851851852,1,0,0,5.398645299952477,call1,-0.018055555555555554,0.07824074074074074,1,0,0,5.92190280003706,colour2,0.4111111111111111,0.2708333333333333,1,0,0,6.453975500015076,number1,True,True,True,23,3,2019_Nov_15_1454,MA_Theta_Exp,3.0.7,59.75207668071742,
video/Experiment/zh_sp07_Dr_Ro_3_NoThetaInAudio_GlobalThetaInVideo.avi,noTheta,plusVideo,sp07,Dr,Ro,3,4,3,flow/blocks/NoThetaInAudio_GlobalThetaInVideo_A.csv,,,,,,,,,0,4,4,4,0,7,7,26,-0.41388888888888886,0.10277777777777777,1,0,0,4.395481800020207,call2,0.02638888888888889,-0.08703703703703704,1,0,0,4.967308099963702,colour3,0.47638888888888886,-0.1,1,0,0,5.469250500027556,number3,True,True,True,23,3,2019_Nov_15_1454,MA_Theta_Exp,3.0.7,59.75207668071742,
video/Experiment/zh_sp07_Ad_Ge_2_NoThetaInAudio_GlobalThetaInVideo.avi,noTheta,plusVideo,sp07,Ad,Ge,2,4,3,flow/blocks/NoThetaInAudio_GlobalThetaInVideo_A.csv,,,,,,,,,0,4,4,4,0,8,8,1,-0.3958333333333333,0.3458333333333333,1,0,0,4.350599099998362,call1,-0.06805555555555555,0.29907407407407405,1,0,0,4.798664700007066,colour1,0.37222222222222223,0.0962962962962963,1,0,0,5.300533400033601,number2,True,True,True,23,3,2019_Nov_15_1454,MA_Theta_Exp,3.0.7,59.75207668071742,
video/Experiment/zh_sp01_Ad_Ro_4_NoThetaInAudio_GlobalThetaInVideo.avi,noTheta,plusVideo,sp01,Ad,Ro,4,4,3,flow/blocks/NoThetaInAudio_GlobalThetaInVideo_A.csv,,,,,,,,,0,4,4,4,0,9,9,11,-0.36944444444444446,0.3282407407407407,1,0,0,5.165610200027004,call1,0.018055555555555554,-0.11481481481481481,1,0,0,5.728442199993879,colour3,0.3819444444444444,-0.3162037037037037,1,0,0,6.262919300002977,number4,True,True,True,23,3,2019_Nov_15_1454,MA_Theta_Exp,3.0.7,59.75207668071742,
video/Experiment/zh_sp01_Dr_We_3_NoThetaInAudio_GlobalThetaInVideo.avi,noTheta,plusVideo,sp01,Dr,We,3,4,3,flow/blocks/NoThetaInAudio_GlobalThetaInVideo_A.csv,,,,,,,,,0,4,4,4,0,10,10,30,-0.4513888888888889,0.14166666666666666,1,0,0,4.961020300048403,call2,-0.015277777777777777,-0.31342592592592594,1,0,0,5.59059849998448,colour4,0.4152777777777778,-0.09305555555555556,1,0,0,6.128985000017565,number3,True,True,True,23,3,2019_Nov_15_1454,MA_Theta_Exp,3.0.7,59.75207668071742,
video/Experiment/zh_sp01_Ad_Ro_3_NoThetaInAudio_GlobalThetaInVideo.avi,noTheta,plusVideo,sp01,Ad,Ro,3,4,3,flow/blocks/NoThetaInAudio_GlobalThetaInVideo_A.csv,,,,,,,,,0,4,4,4,0,11,11,10,-0.4236111111111111,0.26805555555555555,1,0,0,5.303011399984825,call1,0.001388888888888889,-0.1050925925925926,1,0,0,5.915860400011297,colour3,0.32916666666666666,-0.1162037037037037,1,0,0,6.432183799974155,number3,True,True,True,23,3,2019_Nov_15_1454,MA_Theta_Exp,3.0.7,59.75207668071742,
video/Experiment/zh_sp01_Dr_Ge_2_NoThetaInAudio_GlobalThetaInVideo.avi,noTheta,plusVideo,sp01,Dr,Ge,2,4,3,flow/blocks/NoThetaInAudio_GlobalThetaInVideo_A.csv,,,,,,,,,0,4,4,4,0,12,12,17,-0.3597222222222222,0.08055555555555556,1,0,0,5.192213200032711,call2,0.030555555555555555,0.31527777777777777,1,0,0,5.713187800021842,colour1,0.3611111111111111,0.09074074074074075,1,0,0,6.246115299989469,number2,True,True,True,23,3,2019_Nov_15_1454,MA_Theta_Exp,3.0.7,59.75207668071742,
video/Experiment/zh_sp01_Ad_Gr_2_NoThetaInAudio_GlobalThetaInVideo.avi,noTheta,plusVideo,sp01,Ad,Gr,2,4,3,flow/blocks/NoThetaInAudio_GlobalThetaInVideo_A.csv,,,,,,,,,0,4,4,4,0,13,13,5,-0.45,0.3337962962962963,1,0,0,5.132916400034446,call1,-0.009722222222222222,0.1310185185185185,1,0,0,5.650052699958906,colour2,0.425,0.09907407407407408,1,0,0,6.153365800040774,number2,True,True,True,23,3,2019_Nov_15_1454,MA_Theta_Exp,3.0.7,59.75207668071742,
video/Experiment/zh_sp07_Dr_Gr_4_NoThetaInAudio_GlobalThetaInVideo.avi,noTheta,plusVideo,sp07,Dr,Gr,4,4,3,flow/blocks/NoThetaInAudio_GlobalThetaInVideo_A.csv,,,,,,,,,0,4,4,4,0,14,14,23,-0.40555555555555556,0.11666666666666667,1,0,0,4.361255700001493,call2,-0.06666666666666667,0.09768518518518518,1,0,0,4.798589100013487,colour2,0.41805555555555557,-0.31203703703703706,1,0,0,5.365618199983146,number4,True,True,True,23,3,2019_Nov_15_1454,MA_Theta_Exp,3.0.7,59.75207668071742,
video/Experiment/zh_sp01_Dr_Ge_4_NoThetaInAudio_GlobalThetaInVideo.avi,noTheta,plusVideo,sp01,Dr,Ge,4,4,3,flow/blocks/NoThetaInAudio_GlobalThetaInVideo_A.csv,,,,,,,,,0,4,4,4,0,15,15,19,-0.4041666666666667,0.09768518518518518,1,0,0,4.845739500015043,call2,0.022222222222222223,0.30416666666666664,1,0,0,5.362659100035671,colour1,0.41805555555555557,-0.3037037037037037,1,0,0,5.995141999970656,number4,True,True,True,23,3,2019_Nov_15_1454,MA_Theta_Exp,3.0.7,59.75207668071742,
video/Experiment/zh_sp07_Ad_We_2_NoThetaInAudio_GlobalThetaInVideo.avi,noTheta,plusVideo,sp07,Ad,We,2,4,3,flow/blocks/NoThetaInAudio_GlobalThetaInVideo_A.csv,,,,,,,,,0,4,4,4,0,16,16,13,-0.3763888888888889,0.3375,1,0,0,4.23549179994734,call1,0.03333333333333333,-0.30925925925925923,1,0,0,4.849583500006702,colour4,0.39861111111111114,0.1486111111111111,1,0,0,5.38252729998203,number2,True,True,True,23,3,2019_Nov_15_1454,MA_Theta_Exp,3.0.7,59.75207668071742,
video/Experiment/zh_sp07_Dr_We_2_NoThetaInAudio_GlobalThetaInVideo.avi,noTheta,plusVideo,sp07,Dr,We,2,4,3,flow/blocks/NoThetaInAudio_GlobalThetaInVideo_A.csv,,,,,,,,,0,4,4,4,0,17,17,29,-0.4263888888888889,0.0763888888888889,1,0,0,4.504628100025002,call2,0.04027777777777778,-0.3287037037037037,1,0,0,5.123272800003178,colour4,0.38055555555555554,0.11527777777777778,1,0,0,5.671352499979548,number2,True,True,True,23,3,2019_Nov_15_1454,MA_Theta_Exp,3.0.7,59.75207668071742,
video/Experiment/zh_sp07_Dr_Gr_1_NoThetaInAudio_GlobalThetaInVideo.avi,noTheta,plusVideo,sp07,Dr,Gr,1,4,3,flow/blocks/NoThetaInAudio_GlobalThetaInVideo_A.csv,,,,,,,,,0,4,4,4,0,18,18,20,-0.4041666666666667,0.15138888888888888,1,0,0,4.973368400009349,call2,-0.0125,0.0712962962962963,1,0,0,5.473897500021849,colour2,0.36944444444444446,0.30416666666666664,1,0,0,5.968503799987957,number1,True,True,True,23,3,2019_Nov_15_1454,MA_Theta_Exp,3.0.7,59.75207668071742,
video/Experiment/zh_sp07_Dr_We_1_NoThetaInAudio_GlobalThetaInVideo.avi,noTheta,plusVideo,sp07,Dr,We,1,4,3,flow/blocks/NoThetaInAudio_GlobalThetaInVideo_A.csv,,,,,,,,,0,4,4,4,0,19,19,28,-0.4083333333333333,0.08333333333333333,1,0,0,4.587556399987079,call2,0.02361111111111111,-0.2967592592592593,1,0,0,5.123861400003079,colour4,0.41944444444444445,0.3,1,0,0,5.804922500043176,number1,True,True,True,23,3,2019_Nov_15_1454,MA_Theta_Exp,3.0.7,59.75207668071742,
video/Experiment/zh_sp01_Ad_Ro_2_NoThetaInAudio_GlobalThetaInVideo.avi,noTheta,plusVideo,sp01,Ad,Ro,2,4,3,flow/blocks/NoThetaInAudio_GlobalThetaInVideo_A.csv,,,,,,,,,0,4,4,4,0,20,20,9,-0.37222222222222223,0.30277777777777776,1,0,0,5.031645999988541,call1,0.011111111111111112,-0.11481481481481481,1,0,0,5.650316799990833,colour3,0.3902777777777778,0.13333333333333333,1,0,0,6.2016471000388265,number2,True,True,True,23,3,2019_Nov_15_1454,MA_Theta_Exp,3.0.7,59.75207668071742,
video/Experiment/zh_sp07_Ad_We_1_NoThetaInAudio_GlobalThetaInVideo.avi,noTheta,plusVideo,sp07,Ad,We,1,4,3,flow/blocks/NoThetaInAudio_GlobalThetaInVideo_A.csv,,,,,,,,,0,4,4,4,0,21,21,12,-0.39305555555555555,0.2986111111111111,1,0,0,4.339296499965712,call1,-0.001388888888888889,-0.32592592592592595,1,0,0,4.875106799998321,colour4,0.4,0.30416666666666664,1,0,0,5.470218400005251,number1,True,True,True,23,3,2019_Nov_15_1454,MA_Theta_Exp,3.0.7,59.75207668071742,
video/Experiment/zh_sp01_Ad_Ge_3_NoThetaInAudio_GlobalThetaInVideo.avi,noTheta,plusVideo,sp01,Ad,Ge,3,4,3,flow/blocks/NoThetaInAudio_GlobalThetaInVideo_A.csv,,,,,,,,,0,4,4,4,0,22,22,2,-0.44305555555555554,0.2847222222222222,1,0,0,4.790594099962618,call1,-0.03194444444444444,0.3111111111111111,1,0,0,5.287009500025306,colour1,0.44027777777777777,-0.10648148148148148,1,0,0,5.8196266000159085,number3,True,True,True,23,3,2019_Nov_15_1454,MA_Theta_Exp,3.0.7,59.75207668071742,
video/Experiment/zh_sp07_Dr_Ge_1_NoThetaInAudio_GlobalThetaInVideo.avi,noTheta,plusVideo,sp07,Dr,Ge,1,4,3,flow/blocks/NoThetaInAudio_GlobalThetaInVideo_A.csv,,,,,,,,,0,4,4,4,0,23,23,16,-0.3472222222222222,0.13055555555555556,1,0,0,4.508048000046983,call2,-0.018055555555555554,0.3375,1,0,0,4.991629800002556,colour1,0.37083333333333335,0.3421296296296296,1,0,0,5.441418599977624,number1,True,True,True,23,3,2019_Nov_15_1454,MA_Theta_Exp,3.0.7,59.75207668071742,
video/Experiment/zh_sp01_Dr_Ge_3_NoThetaInAudio_GlobalThetaInVideo.avi,noTheta,plusVideo,sp01,Dr,Ge,3,4,3,flow/blocks/NoThetaInAudio_GlobalThetaInVideo_A.csv,,,,,,,,,0,4,4,4,0,24,24,18,-0.3527777777777778,0.10972222222222222,1,0,0,5.049651899957098,call2,0.029166666666666667,0.30416666666666664,1,0,0,5.566235999984201,colour1,0.3888888888888889,-0.11898148148148148,1,0,0,6.089783800009172,number3,True,True,True,23,3,2019_Nov_15_1454,MA_Theta_Exp,3.0.7,59.75207668071742,
video/Experiment/zh_sp07_Ad_Ro_1_NoThetaInAudio_GlobalThetaInVideo.avi,noTheta,plusVideo,sp07,Ad,Ro,1,4,3,flow/blocks/NoThetaInAudio_GlobalThetaInVideo_A.csv,,,,,,,,,0,4,4,4,0,25,25,8,-0.41805555555555557,0.3296296296296296,1,0,0,4.187021599966101,call1,0.013888888888888888,-0.1259259259259259,1,0,0,4.775456100003794,colour3,0.41805555555555557,0.3194444444444444,1,0,0,5.318672200024594,number1,True,True,True,23,3,2019_Nov_15_1454,MA_Theta_Exp,3.0.7,59.75207668071742,
video/Experiment/zh_sp07_Ad_We_3_NoThetaInAudio_GlobalThetaInVideo.avi,noTheta,plusVideo,sp07,Ad,We,3,4,3,flow/blocks/NoThetaInAudio_GlobalThetaInVideo_A.csv,,,,,,,,,0,4,4,4,0,26,26,14,-0.37083333333333335,0.30462962962962964,1,0,0,4.370272499974817,call1,0.018055555555555554,-0.34675925925925927,1,0,0,5.003178700048011,colour4,0.4666666666666667,-0.2791666666666667,1,0,0,5.505944399978034,number4,True,True,False,23,3,2019_Nov_15_1454,MA_Theta_Exp,3.0.7,59.75207668071742,
video/Experiment/zh_sp01_Dr_We_4_NoThetaInAudio_GlobalThetaInVideo.avi,noTheta,plusVideo,sp01,Dr,We,4,4,3,flow/blocks/NoThetaInAudio_GlobalThetaInVideo_A.csv,,,,,,,,,0,4,4,4,0,27,27,31,-0.37777777777777777,0.11574074074074074,1,0,0,5.013904299994465,call2,0.02361111111111111,-0.3148148148148148,1,0,0,5.560731500037946,colour4,0.4236111111111111,-0.29583333333333334,1,0,0,6.0763208999997005,number4,True,True,True,23,3,2019_Nov_15_1454,MA_Theta_Exp,3.0.7,59.75207668071742,
video/Experiment/zh_sp07_Dr_Ro_4_NoThetaInAudio_GlobalThetaInVideo.avi,noTheta,plusVideo,sp07,Dr,Ro,4,4,3,flow/blocks/NoThetaInAudio_GlobalThetaInVideo_A.csv,,,,,,,,,0,4,4,4,0,28,28,27,-0.4375,0.2972222222222222,1,0,0,4.613313299953006,call1,-0.018055555555555554,-0.12731481481481483,1,0,0,5.160653500002809,colour3,0.35138888888888886,-0.28703703703703703,1,0,0,5.639774299983401,number4,False,True,True,23,3,2019_Nov_15_1454,MA_Theta_Exp,3.0.7,59.75207668071742,
video/Experiment/zh_sp01_Dr_Gr_2_NoThetaInAudio_GlobalThetaInVideo.avi,noTheta,plusVideo,sp01,Dr,Gr,2,4,3,flow/blocks/NoThetaInAudio_GlobalThetaInVideo_A.csv,,,,,,,,,0,4,4,4,0,29,29,21,-0.4083333333333333,0.11944444444444445,1,0,0,5.37288040004205,call2,0.002777777777777778,0.08935185185185185,1,0,0,5.894226000003982,colour2,0.4041666666666667,0.09722222222222222,1,0,0,6.371441499970388,number2,True,True,True,23,3,2019_Nov_15_1454,MA_Theta_Exp,3.0.7,59.75207668071742,
video/Experiment/zh_sp07_Ad_We_4_NoThetaInAudio_GlobalThetaInVideo.avi,noTheta,plusVideo,sp07,Ad,We,4,4,3,flow/blocks/NoThetaInAudio_GlobalThetaInVideo_A.csv,,,,,,,,,0,4,4,4,0,30,30,15,-0.4263888888888889,0.3143518518518518,1,0,0,4.3424842999666,call1,0.016666666666666666,-0.3189814814814815,1,0,0,4.953999399964232,colour4,0.4444444444444444,-0.31527777777777777,1,0,0,5.587544800015166,number4,True,True,True,23,3,2019_Nov_15_1454,MA_Theta_Exp,3.0.7,59.75207668071742,
video/Experiment/zh_sp07_Ad_Ge_1_NoThetaInAudio_GlobalThetaInVideo.avi,noTheta,plusVideo,sp07,Ad,Ge,1,4,3,flow/blocks/NoThetaInAudio_GlobalThetaInVideo_A.csv,,,,,,,,,0,4,4,4,0,31,31,0,-0.3625,0.26805555555555555,1,0,0,4.287591899977997,call1,0.002777777777777778,0.3277777777777778,1,0,0,4.787727400020231,colour1,0.39861111111111114,0.3199074074074074,1,0,0,5.254430100030731,number1,True,True,True,23,3,2019_Nov_15_1454,MA_Theta_Exp,3.0.7,59.75207668071742,
