videoFile,condition,video,speaker,callSign,colour,number,seq,id,block,exp.thisRepN,exp.thisTrialN,exp.thisN,exp.thisIndex,training.thisRepN,training.thisTrialN,training.thisN,training.thisIndex,firstHalf.thisRepN,firstHalf.thisTrialN,firstHalf.thisN,firstHalf.thisIndex,blocksA.thisRepN,blocksA.thisTrialN,blocksA.thisN,blocksA.thisIndex,mouseClickOnCall.x,mouseClickOnCall.y,mouseClickOnCall.leftButton,mouseClickOnCall.midButton,mouseClickOnCall.rightButton,mouseClickOnCall.time,mouseClickOnCall.clicked_name,mouseClickOnColour.x,mouseClickOnColour.y,mouseClickOnColour.leftButton,mouseClickOnColour.midButton,mouseClickOnColour.rightButton,mouseClickOnColour.time,mouseClickOnColour.clicked_name,mouseClickOnNumber.x,mouseClickOnNumber.y,mouseClickOnNumber.leftButton,mouseClickOnNumber.midButton,mouseClickOnNumber.rightButton,mouseClickOnNumber.time,mouseClickOnNumber.clicked_name,callSignCorrect,colourCorrect,numberCorrect,participant,order,date,expName,psychopyVersion,frameRate,
video/Training/zh_sp01_Ad_We_4_NVocInAudio_NoVideo.avi,vocoded,noVideo,sp01,Ad,We,4,,,,,,,,0,0,0,0,,,,,,,,,-0.38472222222222224,0.33935185185185185,1,0,0,6.115403099975083,call1,-0.07083333333333333,-0.32314814814814813,1,0,0,6.922098400013056,colour4,0.44583333333333336,-0.28425925925925927,1,0,0,7.44102779997047,number4,True,True,True,25,5,2019_Nov_15_1712,MA_Theta_Exp,3.0.7,60.06240483833974,
video/Training/zh_sp07_Ad_Ge_3_NVocInAudio_NoVideo.avi,vocoded,noVideo,sp07,Ad,Ge,3,,,,,,,,0,1,1,1,,,,,,,,,-0.4027777777777778,0.33796296296296297,1,0,0,4.6059970000060275,call1,0.011111111111111112,0.31296296296296294,1,0,0,5.173971900017932,colour1,0.4125,-0.1425925925925926,1,0,0,5.690592099970672,number3,True,True,True,25,5,2019_Nov_15_1712,MA_Theta_Exp,3.0.7,60.06240483833974,
video/Training/zh_sp01_Dr_Ro_3_NVocInAudio_GlobalThetaInVideo.avi,vocoded,plusVideo,sp01,Dr,Ro,3,,,,,,,,0,2,2,2,,,,,,,,,-0.41388888888888886,0.14212962962962963,1,0,0,5.202414600003976,call2,0.05138888888888889,-0.1259259259259259,1,0,0,5.690807500039227,colour3,0.42777777777777776,-0.10231481481481482,1,0,0,6.0747894999803975,number3,True,True,True,25,5,2019_Nov_15_1712,MA_Theta_Exp,3.0.7,60.06240483833974,
video/Training/zh_sp07_Dr_Gr_4_NVocInAudio_GlobalThetaInVideo.avi,vocoded,plusVideo,sp07,Dr,Gr,4,,,,,,,,0,3,3,3,,,,,,,,,-0.3680555555555556,0.08796296296296297,1,0,0,4.567771599977277,call2,-0.008333333333333333,0.11574074074074074,1,0,0,5.063930900010746,colour2,0.4527777777777778,-0.35509259259259257,1,0,0,5.615203699970152,number4,True,True,True,25,5,2019_Nov_15_1712,MA_Theta_Exp,3.0.7,60.06240483833974,
video/Training/zh_sp01_Ti_Gr_2_NoThetaInAudio_NoVideo.avi,noTheta,noVideo,sp01,Ti,Gr,2,,,,,,,,0,4,4,4,,,,,,,,,-0.36527777777777776,0.3337962962962963,1,0,0,5.930949200002942,call1,0.022222222222222223,0.11435185185185186,1,0,0,6.846184700028971,colour2,0.38055555555555554,0.10046296296296296,1,0,0,7.304558000003453,number2,False,True,True,25,5,2019_Nov_15_1712,MA_Theta_Exp,3.0.7,60.06240483833974,
video/Training/zh_sp07_Ti_Ro_1_NoThetaInAudio_NoVideo.avi,noTheta,noVideo,sp07,Ti,Ro,1,,,,,,,,0,5,5,5,,,,,,,,,-0.37777777777777777,-0.13842592592592592,1,0,0,4.710057799995411,call3,0.0125,0.3435185185185185,1,0,0,7.138767700002063,colour1,0.4222222222222222,0.3060185185185185,1,0,0,7.7704620999866165,number1,True,False,True,25,5,2019_Nov_15_1712,MA_Theta_Exp,3.0.7,60.06240483833974,
video/Training/zh_sp01_Un_Ge_1_NoThetaInAudio_GlobalThetaInVideo.avi,noTheta,plusVideo,sp01,Un,Ge,1,,,,,,,,0,6,6,6,,,,,,,,,-0.35555555555555557,0.12685185185185185,1,0,0,5.8169916000333615,call2,-0.020833333333333332,0.30324074074074076,1,0,0,6.3330453999806195,colour1,0.40694444444444444,0.33935185185185185,1,0,0,6.787086099968292,number1,False,True,True,25,5,2019_Nov_15_1712,MA_Theta_Exp,3.0.7,60.06240483833974,
video/Training/zh_sp07_Un_We_2_NoThetaInAudio_GlobalThetaInVideo.avi,noTheta,plusVideo,sp07,Un,We,2,,,,,,,,0,7,7,7,,,,,,,,,-0.37777777777777777,-0.35509259259259257,1,0,0,4.626155400008429,call4,0.05277777777777778,-0.32592592592592595,1,0,0,5.2466562000336125,colour4,0.4,0.1087962962962963,1,0,0,5.847928999981377,number2,True,True,True,25,5,2019_Nov_15_1712,MA_Theta_Exp,3.0.7,60.06240483833974,
video/Training/zh_sp01_Ad_Ge_1_GlobalTheta_NoVideo.avi,globalTheta,noVideo,sp01,Ad,Ge,1,,,,,,,,0,8,8,8,,,,,,,,,-0.3875,0.31712962962962965,1,0,0,5.68724519998068,call1,0.058333333333333334,0.33796296296296297,1,0,0,6.152572999999393,colour1,0.41944444444444445,0.32407407407407407,1,0,0,6.522360500006471,number1,True,True,True,25,5,2019_Nov_15_1712,MA_Theta_Exp,3.0.7,60.06240483833974,
video/Training/zh_sp07_Ad_Ro_3_GlobalTheta_NoVideo.avi,globalTheta,noVideo,sp07,Ad,Ro,3,,,,,,,,0,9,9,9,,,,,,,,,-0.39861111111111114,-0.12037037037037036,1,0,0,5.5815130999544635,call3,0.001388888888888889,-0.06481481481481481,1,0,0,6.618860799993854,colour3,0.4513888888888889,-0.10925925925925926,1,0,0,7.152013099985197,number3,False,True,True,25,5,2019_Nov_15_1712,MA_Theta_Exp,3.0.7,60.06240483833974,
video/Experiment/zh_sp01_Dr_Gr_4_NoThetaInAudio_NoVideo.avi,noTheta,noVideo,sp01,Dr,Gr,4,0,4,flow/blocks/NoThetaInAudio_NoVideo_A.csv,,,,,,,,,0,0,0,0,0,0,0,23,-0.375,0.10601851851851851,1,0,0,5.239538900030311,call2,-0.004166666666666667,0.09490740740740741,1,0,0,5.721913399989717,colour2,0.42916666666666664,-0.33425925925925926,1,0,0,6.35368500003824,number4,True,True,True,25,5,2019_Nov_15_1712,MA_Theta_Exp,3.0.7,60.06240483833974,
video/Experiment/zh_sp01_Dr_We_2_NoThetaInAudio_NoVideo.avi,noTheta,noVideo,sp01,Dr,We,2,0,4,flow/blocks/NoThetaInAudio_NoVideo_A.csv,,,,,,,,,0,0,0,0,0,1,1,29,-0.3861111111111111,0.11296296296296296,1,0,0,5.259481999964919,call2,0.019444444444444445,-0.34814814814814815,1,0,0,5.834481300029438,colour4,0.3611111111111111,0.09907407407407408,1,0,0,6.4126466999878176,number2,True,True,True,25,5,2019_Nov_15_1712,MA_Theta_Exp,3.0.7,60.06240483833974,
video/Experiment/zh_sp07_Ad_Gr_1_NoThetaInAudio_NoVideo.avi,noTheta,noVideo,sp07,Ad,Gr,1,0,4,flow/blocks/NoThetaInAudio_NoVideo_A.csv,,,,,,,,,0,0,0,0,0,2,2,4,-0.3819444444444444,0.10601851851851851,1,0,0,6.45223920000717,call2,0.04861111111111111,0.11435185185185186,1,0,0,6.872424300003331,colour2,0.49027777777777776,0.3712962962962963,1,0,0,7.2535931000020355,number1,False,True,True,25,5,2019_Nov_15_1712,MA_Theta_Exp,3.0.7,60.06240483833974,
video/Experiment/zh_sp07_Dr_Ge_1_NoThetaInAudio_NoVideo.avi,noTheta,noVideo,sp07,Dr,Ge,1,0,4,flow/blocks/NoThetaInAudio_NoVideo_A.csv,,,,,,,,,0,0,0,0,0,3,3,16,-0.37777777777777777,-0.28564814814814815,1,0,0,5.445573600009084,call4,0.0,0.12962962962962962,1,0,0,6.818817399966065,colour2,0.4097222222222222,0.3101851851851852,1,0,0,7.2234395000268705,number1,False,False,True,25,5,2019_Nov_15_1712,MA_Theta_Exp,3.0.7,60.06240483833974,
video/Experiment/zh_sp07_Dr_We_4_NoThetaInAudio_NoVideo.avi,noTheta,noVideo,sp07,Dr,We,4,0,4,flow/blocks/NoThetaInAudio_NoVideo_A.csv,,,,,,,,,0,0,0,0,0,4,4,31,-0.3458333333333333,0.0962962962962963,1,0,0,5.57695999997668,call2,0.0,-0.38564814814814813,1,0,0,6.111793000018224,colour4,0.40555555555555556,-0.33425925925925926,1,0,0,6.899663400021382,number4,True,True,True,25,5,2019_Nov_15_1712,MA_Theta_Exp,3.0.7,60.06240483833974,
video/Experiment/zh_sp01_Ad_Gr_3_NoThetaInAudio_NoVideo.avi,noTheta,noVideo,sp01,Ad,Gr,3,0,4,flow/blocks/NoThetaInAudio_NoVideo_A.csv,,,,,,,,,0,0,0,0,0,5,5,6,-0.37083333333333335,0.3074074074074074,1,0,0,5.026956899964716,call1,0.013888888888888888,0.08518518518518518,1,0,0,5.540258100023493,colour2,0.41944444444444445,-0.14537037037037037,1,0,0,5.97510229999898,number3,True,True,True,25,5,2019_Nov_15_1712,MA_Theta_Exp,3.0.7,60.06240483833974,
video/Experiment/zh_sp07_Dr_Gr_3_NoThetaInAudio_NoVideo.avi,noTheta,noVideo,sp07,Dr,Gr,3,0,4,flow/blocks/NoThetaInAudio_NoVideo_A.csv,,,,,,,,,0,0,0,0,0,6,6,22,-0.3958333333333333,0.10462962962962963,1,0,0,4.655331199988723,call2,0.02361111111111111,0.11296296296296296,1,0,0,5.097016800020356,colour2,0.4083333333333333,-0.1398148148148148,1,0,0,5.52499030000763,number3,True,True,True,25,5,2019_Nov_15_1712,MA_Theta_Exp,3.0.7,60.06240483833974,
video/Experiment/zh_sp07_Dr_Ro_1_NoThetaInAudio_NoVideo.avi,noTheta,noVideo,sp07,Dr,Ro,1,0,4,flow/blocks/NoThetaInAudio_NoVideo_A.csv,,,,,,,,,0,0,0,0,0,7,7,24,-0.36666666666666664,0.08657407407407407,1,0,0,4.6722415999975055,call2,-0.016666666666666666,-0.14537037037037037,1,0,0,5.081620799959637,colour3,0.3819444444444444,0.3337962962962963,1,0,0,5.59579080005642,number1,True,True,True,25,5,2019_Nov_15_1712,MA_Theta_Exp,3.0.7,60.06240483833974,
video/Experiment/zh_sp07_Ad_Ge_2_NoThetaInAudio_NoVideo.avi,noTheta,noVideo,sp07,Ad,Ge,2,0,4,flow/blocks/NoThetaInAudio_NoVideo_A.csv,,,,,,,,,0,0,0,0,0,8,8,1,-0.36666666666666664,0.3212962962962963,1,0,0,4.753943099989556,call1,-0.030555555555555555,0.31851851851851853,1,0,0,5.134557400015183,colour1,0.4027777777777778,0.11157407407407408,1,0,0,5.53961249999702,number2,True,True,True,25,5,2019_Nov_15_1712,MA_Theta_Exp,3.0.7,60.06240483833974,
video/Experiment/zh_sp07_Ad_Ro_1_NoThetaInAudio_NoVideo.avi,noTheta,noVideo,sp07,Ad,Ro,1,0,4,flow/blocks/NoThetaInAudio_NoVideo_A.csv,,,,,,,,,0,0,0,0,0,9,9,8,-0.3958333333333333,0.33796296296296297,1,0,0,4.495530699961819,call1,0.009722222222222222,-0.08425925925925926,1,0,0,4.978572099993471,colour3,0.32222222222222224,0.3199074074074074,1,0,0,5.5672501000226475,number1,True,True,True,25,5,2019_Nov_15_1712,MA_Theta_Exp,3.0.7,60.06240483833974,
video/Experiment/zh_sp07_Ad_Ge_4_NoThetaInAudio_NoVideo.avi,noTheta,noVideo,sp07,Ad,Ge,4,0,4,flow/blocks/NoThetaInAudio_NoVideo_A.csv,,,,,,,,,0,0,0,0,0,10,10,3,-0.4097222222222222,0.3101851851851852,1,0,0,4.611042400007136,call1,0.08333333333333333,0.29212962962962963,1,0,0,4.993665500020143,colour1,0.3875,-0.34120370370370373,1,0,0,5.576973999966867,number4,True,True,True,25,5,2019_Nov_15_1712,MA_Theta_Exp,3.0.7,60.06240483833974,
video/Experiment/zh_sp01_Dr_We_3_NoThetaInAudio_NoVideo.avi,noTheta,noVideo,sp01,Dr,We,3,0,4,flow/blocks/NoThetaInAudio_NoVideo_A.csv,,,,,,,,,0,0,0,0,0,11,11,30,-0.3625,-0.10787037037037037,1,0,0,5.084062900044955,call3,0.011111111111111112,-0.3148148148148148,1,0,0,7.044700599974021,colour4,0.47638888888888886,-0.07314814814814814,1,0,0,7.894127000006847,number3,False,True,True,25,5,2019_Nov_15_1712,MA_Theta_Exp,3.0.7,60.06240483833974,
video/Experiment/zh_sp01_Ad_Ro_4_NoThetaInAudio_NoVideo.avi,noTheta,noVideo,sp01,Ad,Ro,4,0,4,flow/blocks/NoThetaInAudio_NoVideo_A.csv,,,,,,,,,0,0,0,0,0,12,12,11,-0.3819444444444444,0.31851851851851853,1,0,0,5.4827667999779806,call1,0.03888888888888889,-0.1050925925925926,1,0,0,5.952587300038431,colour3,0.44722222222222224,-0.3537037037037037,1,0,0,6.334623900009319,number4,True,True,True,25,5,2019_Nov_15_1712,MA_Theta_Exp,3.0.7,60.06240483833974,
video/Experiment/zh_sp07_Dr_Ge_2_NoThetaInAudio_NoVideo.avi,noTheta,noVideo,sp07,Dr,Ge,2,0,4,flow/blocks/NoThetaInAudio_NoVideo_A.csv,,,,,,,,,0,0,0,0,0,13,13,17,-0.38055555555555554,0.32546296296296295,1,0,0,4.8038026000140235,call1,0.005555555555555556,0.287962962962963,1,0,0,5.170520699990448,colour1,0.4444444444444444,0.07546296296296297,1,0,0,5.537606699974276,number2,False,True,True,25,5,2019_Nov_15_1712,MA_Theta_Exp,3.0.7,60.06240483833974,
video/Experiment/zh_sp07_Dr_Gr_2_NoThetaInAudio_NoVideo.avi,noTheta,noVideo,sp07,Dr,Gr,2,0,4,flow/blocks/NoThetaInAudio_NoVideo_A.csv,,,,,,,,,0,0,0,0,0,14,14,21,-0.3736111111111111,0.08935185185185185,1,0,0,5.4701721999445,call2,0.03888888888888889,0.10740740740740741,1,0,0,6.165080400009174,colour2,0.39861111111111114,0.12962962962962962,1,0,0,6.852872099960223,number2,True,True,True,25,5,2019_Nov_15_1712,MA_Theta_Exp,3.0.7,60.06240483833974,
video/Experiment/zh_sp07_Ad_Gr_2_NoThetaInAudio_NoVideo.avi,noTheta,noVideo,sp07,Ad,Gr,2,0,4,flow/blocks/NoThetaInAudio_NoVideo_A.csv,,,,,,,,,0,0,0,0,0,15,15,5,-0.39305555555555555,0.3212962962962963,1,0,0,5.164179500017781,call1,0.0,0.11435185185185186,1,0,0,6.0712674999958836,colour2,0.43194444444444446,0.12685185185185185,1,0,0,6.536686400009785,number2,True,True,True,25,5,2019_Nov_15_1712,MA_Theta_Exp,3.0.7,60.06240483833974,
video/Experiment/zh_sp01_Dr_Ro_3_NoThetaInAudio_NoVideo.avi,noTheta,noVideo,sp01,Dr,Ro,3,0,4,flow/blocks/NoThetaInAudio_NoVideo_A.csv,,,,,,,,,0,0,0,0,0,16,16,26,-0.37916666666666665,-0.08703703703703704,1,0,0,5.26492019998841,call3,0.011111111111111112,-0.09814814814814815,1,0,0,5.757322099991143,colour3,0.4486111111111111,-0.11203703703703703,1,0,0,6.2070266000228,number3,False,True,True,25,5,2019_Nov_15_1712,MA_Theta_Exp,3.0.7,60.06240483833974,
video/Experiment/zh_sp01_Ad_Ge_3_NoThetaInAudio_NoVideo.avi,noTheta,noVideo,sp01,Ad,Ge,3,0,4,flow/blocks/NoThetaInAudio_NoVideo_A.csv,,,,,,,,,0,0,0,0,0,17,17,2,-0.39305555555555555,0.29907407407407405,1,0,0,6.020731600001454,call1,0.016666666666666666,0.31574074074074077,1,0,0,6.434949800022878,colour1,0.375,-0.11481481481481481,1,0,0,6.923611100006383,number3,True,True,True,25,5,2019_Nov_15_1712,MA_Theta_Exp,3.0.7,60.06240483833974,
video/Experiment/zh_sp01_Ad_We_4_NoThetaInAudio_NoVideo.avi,noTheta,noVideo,sp01,Ad,We,4,0,4,flow/blocks/NoThetaInAudio_NoVideo_A.csv,,,,,,,,,0,0,0,0,0,18,18,15,-0.3972222222222222,0.30185185185185187,1,0,0,5.028569000016432,call1,0.016666666666666666,-0.32314814814814813,1,0,0,5.612152099958621,colour4,0.44722222222222224,-0.36203703703703705,1,0,0,5.9994409999926575,number4,True,True,True,25,5,2019_Nov_15_1712,MA_Theta_Exp,3.0.7,60.06240483833974,
video/Experiment/zh_sp01_Ad_We_1_NoThetaInAudio_NoVideo.avi,noTheta,noVideo,sp01,Ad,We,1,0,4,flow/blocks/NoThetaInAudio_NoVideo_A.csv,,,,,,,,,0,0,0,0,0,19,19,12,-0.4125,0.3560185185185185,1,0,0,4.919504400051665,call1,0.020833333333333332,-0.3300925925925926,1,0,0,5.548585399985313,colour4,0.4236111111111111,0.34074074074074073,1,0,0,6.152405000000726,number1,True,True,True,25,5,2019_Nov_15_1712,MA_Theta_Exp,3.0.7,60.06240483833974,
video/Experiment/zh_sp07_Dr_Ge_4_NoThetaInAudio_NoVideo.avi,noTheta,noVideo,sp07,Dr,Ge,4,0,4,flow/blocks/NoThetaInAudio_NoVideo_A.csv,,,,,,,,,0,0,0,0,0,20,20,19,-0.3680555555555556,-0.12175925925925926,1,0,0,4.725944100006018,call3,0.0125,0.31574074074074077,1,0,0,5.329413299972657,colour1,0.4125,-0.3175925925925926,1,0,0,5.979905000014696,number4,False,True,True,25,5,2019_Nov_15_1712,MA_Theta_Exp,3.0.7,60.06240483833974,
video/Experiment/zh_sp07_Ad_Ge_1_NoThetaInAudio_NoVideo.avi,noTheta,noVideo,sp07,Ad,Ge,1,0,4,flow/blocks/NoThetaInAudio_NoVideo_A.csv,,,,,,,,,0,0,0,0,0,21,21,0,-0.3888888888888889,0.32407407407407407,1,0,0,4.251279299962334,call1,0.019444444444444445,0.32407407407407407,1,0,0,4.748229500022717,colour1,0.36944444444444446,0.33101851851851855,1,0,0,5.084363200003281,number1,True,True,True,25,5,2019_Nov_15_1712,MA_Theta_Exp,3.0.7,60.06240483833974,
video/Experiment/zh_sp01_Ad_We_3_NoThetaInAudio_NoVideo.avi,noTheta,noVideo,sp01,Ad,We,3,0,4,flow/blocks/NoThetaInAudio_NoVideo_A.csv,,,,,,,,,0,0,0,0,0,22,22,14,-0.38055555555555554,0.31296296296296294,1,0,0,5.155210199998692,call1,0.02638888888888889,-0.33425925925925926,1,0,0,6.237435100018047,colour4,0.44305555555555554,-0.09953703703703703,1,0,0,6.731224499992095,number3,True,True,True,25,5,2019_Nov_15_1712,MA_Theta_Exp,3.0.7,60.06240483833974,
video/Experiment/zh_sp01_Dr_We_1_NoThetaInAudio_NoVideo.avi,noTheta,noVideo,sp01,Dr,We,1,0,4,flow/blocks/NoThetaInAudio_NoVideo_A.csv,,,,,,,,,0,0,0,0,0,23,23,28,-0.3888888888888889,-0.11481481481481481,1,0,0,9.087901299993973,call3,-0.030555555555555555,-0.3106481481481482,1,0,0,10.124514700029977,colour4,0.4083333333333333,0.32685185185185184,1,0,0,10.707265599980019,number1,False,True,True,25,5,2019_Nov_15_1712,MA_Theta_Exp,3.0.7,60.06240483833974,
video/Experiment/zh_sp01_Dr_Ro_2_NoThetaInAudio_NoVideo.avi,noTheta,noVideo,sp01,Dr,Ro,2,0,4,flow/blocks/NoThetaInAudio_NoVideo_A.csv,,,,,,,,,0,0,0,0,0,24,24,25,-0.38055555555555554,0.13657407407407407,1,0,0,8.710139999981038,call2,0.0,-0.1037037037037037,1,0,0,9.134264799999073,colour3,0.4125,0.13518518518518519,1,0,0,10.461269799969159,number2,True,True,True,25,5,2019_Nov_15_1712,MA_Theta_Exp,3.0.7,60.06240483833974,
video/Experiment/zh_sp01_Ad_Ro_3_NoThetaInAudio_NoVideo.avi,noTheta,noVideo,sp01,Ad,Ro,3,0,4,flow/blocks/NoThetaInAudio_NoVideo_A.csv,,,,,,,,,0,0,0,0,0,25,25,10,-0.40694444444444444,0.3226851851851852,1,0,0,5.44521989999339,call1,0.004166666666666667,-0.1259259259259259,1,0,0,6.031106300011743,colour3,0.4527777777777778,-0.13703703703703704,1,0,0,6.780240099993534,number3,True,True,True,25,5,2019_Nov_15_1712,MA_Theta_Exp,3.0.7,60.06240483833974,
video/Experiment/zh_sp01_Dr_Ge_3_NoThetaInAudio_NoVideo.avi,noTheta,noVideo,sp01,Dr,Ge,3,0,4,flow/blocks/NoThetaInAudio_NoVideo_A.csv,,,,,,,,,0,0,0,0,0,26,26,18,-0.4013888888888889,-0.10925925925925926,1,0,0,4.997389999974985,call3,-0.029166666666666667,0.32407407407407407,1,0,0,5.576423500024248,colour1,0.4111111111111111,-0.1425925925925926,1,0,0,6.09117349999724,number3,False,True,True,25,5,2019_Nov_15_1712,MA_Theta_Exp,3.0.7,60.06240483833974,
video/Experiment/zh_sp01_Ad_We_2_NoThetaInAudio_NoVideo.avi,noTheta,noVideo,sp01,Ad,We,2,0,4,flow/blocks/NoThetaInAudio_NoVideo_A.csv,,,,,,,,,0,0,0,0,0,27,27,13,-0.38333333333333336,0.33101851851851855,1,0,0,5.47034459997667,call1,0.025,-0.3453703703703704,1,0,0,6.520666999975219,colour4,0.4152777777777778,0.13935185185185187,1,0,0,6.974571400030982,number2,True,True,True,25,5,2019_Nov_15_1712,MA_Theta_Exp,3.0.7,60.06240483833974,
video/Experiment/zh_sp07_Dr_Gr_1_NoThetaInAudio_NoVideo.avi,noTheta,noVideo,sp07,Dr,Gr,1,0,4,flow/blocks/NoThetaInAudio_NoVideo_A.csv,,,,,,,,,0,0,0,0,0,28,28,20,-0.36527777777777776,-0.08703703703703704,1,0,0,5.347135599993635,call3,0.002777777777777778,0.11574074074074074,1,0,0,6.128720699984115,colour2,0.3972222222222222,0.3087962962962963,1,0,0,6.813563000003342,number1,False,True,True,25,5,2019_Nov_15_1712,MA_Theta_Exp,3.0.7,60.06240483833974,
video/Experiment/zh_sp07_Ad_Gr_4_NoThetaInAudio_NoVideo.avi,noTheta,noVideo,sp07,Ad,Gr,4,0,4,flow/blocks/NoThetaInAudio_NoVideo_A.csv,,,,,,,,,0,0,0,0,0,29,29,7,-0.4375,0.3212962962962963,1,0,0,4.731150499952491,call1,0.004166666666666667,0.12546296296296297,1,0,0,5.4146074000163935,colour2,0.3875,-0.3037037037037037,1,0,0,5.948363200004678,number4,True,True,True,25,5,2019_Nov_15_1712,MA_Theta_Exp,3.0.7,60.06240483833974,
video/Experiment/zh_sp01_Dr_Ro_4_NoThetaInAudio_NoVideo.avi,noTheta,noVideo,sp01,Dr,Ro,4,0,4,flow/blocks/NoThetaInAudio_NoVideo_A.csv,,,,,,,,,0,0,0,0,0,30,30,27,-0.4097222222222222,0.10046296296296296,1,0,0,5.789965900010429,call2,0.027777777777777776,-0.11898148148148148,1,0,0,6.266734200005885,colour3,0.43472222222222223,-0.3523148148148148,1,0,0,6.731534800026566,number4,True,True,True,25,5,2019_Nov_15_1712,MA_Theta_Exp,3.0.7,60.06240483833974,
video/Experiment/zh_sp07_Ad_Ro_2_NoThetaInAudio_NoVideo.avi,noTheta,noVideo,sp07,Ad,Ro,2,0,4,flow/blocks/NoThetaInAudio_NoVideo_A.csv,,,,,,,,,0,0,0,0,0,31,31,9,-0.38472222222222224,0.31712962962962965,1,0,0,4.415435899980366,call1,-0.06111111111111111,-0.08425925925925926,1,0,0,4.8638741000322625,colour3,0.4236111111111111,0.10185185185185185,1,0,0,5.329043700010516,number2,True,True,True,25,5,2019_Nov_15_1712,MA_Theta_Exp,3.0.7,60.06240483833974,
video/Experiment/zh_sp01_Ad_Gr_3_NVocInAudio_NoVideo.avi,vocoded,noVideo,sp01,Ad,Gr,3,1,2,flow/blocks/NVocInAudio_NoVideo_A.csv,,,,,,,,,0,1,1,1,0,0,0,6,-0.41388888888888886,0.3449074074074074,1,0,0,5.5918453999911435,call1,0.0125,0.11018518518518519,1,0,0,6.030551300034858,colour2,0.42916666666666664,-0.1287037037037037,1,0,0,6.459766599989962,number3,True,True,True,25,5,2019_Nov_15_1712,MA_Theta_Exp,3.0.7,60.06240483833974,
video/Experiment/zh_sp01_Ad_Gr_2_NVocInAudio_NoVideo.avi,vocoded,noVideo,sp01,Ad,Gr,2,1,2,flow/blocks/NVocInAudio_NoVideo_A.csv,,,,,,,,,0,1,1,1,0,1,1,5,-0.40694444444444444,0.3074074074074074,1,0,0,5.119541299995035,call1,0.15555555555555556,0.004629629629629629,1,0,0,5.587460000009742,colour2,0.5013888888888889,0.12962962962962962,1,0,0,6.398296700033825,number2,True,True,True,25,5,2019_Nov_15_1712,MA_Theta_Exp,3.0.7,60.06240483833974,
video/Experiment/zh_sp01_Dr_Ro_3_NVocInAudio_NoVideo.avi,vocoded,noVideo,sp01,Dr,Ro,3,1,2,flow/blocks/NVocInAudio_NoVideo_A.csv,,,,,,,,,0,1,1,1,0,2,2,26,-0.4236111111111111,0.07685185185185185,1,0,0,5.264287400001194,call2,0.05277777777777778,-0.13703703703703704,1,0,0,5.687043400015682,colour3,0.4583333333333333,-0.0912037037037037,1,0,0,6.132014099974185,number3,True,True,True,25,5,2019_Nov_15_1712,MA_Theta_Exp,3.0.7,60.06240483833974,
video/Experiment/zh_sp01_Dr_Gr_4_NVocInAudio_NoVideo.avi,vocoded,noVideo,sp01,Dr,Gr,4,1,2,flow/blocks/NVocInAudio_NoVideo_A.csv,,,,,,,,,0,1,1,1,0,3,3,23,-0.4111111111111111,0.0962962962962963,1,0,0,5.048315299965907,call2,-0.0125,0.09074074074074075,1,0,0,5.4140589000307955,colour2,0.4222222222222222,-0.3425925925925926,1,0,0,5.882663300028071,number4,True,True,True,25,5,2019_Nov_15_1712,MA_Theta_Exp,3.0.7,60.06240483833974,
video/Experiment/zh_sp07_Dr_We_1_NVocInAudio_NoVideo.avi,vocoded,noVideo,sp07,Dr,We,1,1,2,flow/blocks/NVocInAudio_NoVideo_A.csv,,,,,,,,,0,1,1,1,0,4,4,28,-0.4166666666666667,0.09907407407407408,1,0,0,4.379487900005188,call2,-0.020833333333333332,-0.3314814814814815,1,0,0,4.9135164999752305,colour4,0.35,0.3449074074074074,1,0,0,5.506294699967839,number1,True,True,True,25,5,2019_Nov_15_1712,MA_Theta_Exp,3.0.7,60.06240483833974,
video/Experiment/zh_sp01_Dr_Ge_1_NVocInAudio_NoVideo.avi,vocoded,noVideo,sp01,Dr,Ge,1,1,2,flow/blocks/NVocInAudio_NoVideo_A.csv,,,,,,,,,0,1,1,1,0,5,5,16,-0.39861111111111114,0.09212962962962963,1,0,0,4.9561326000257395,call2,0.016666666666666666,0.3087962962962963,1,0,0,5.36021489999257,colour1,0.4875,0.3365740740740741,1,0,0,5.728085100010503,number1,True,True,True,25,5,2019_Nov_15_1712,MA_Theta_Exp,3.0.7,60.06240483833974,
video/Experiment/zh_sp07_Dr_Ge_4_NVocInAudio_NoVideo.avi,vocoded,noVideo,sp07,Dr,Ge,4,1,2,flow/blocks/NVocInAudio_NoVideo_A.csv,,,,,,,,,0,1,1,1,0,6,6,19,-0.3958333333333333,0.09351851851851851,1,0,0,4.487565200019162,call2,0.059722222222222225,0.3282407407407407,1,0,0,4.968543099996168,colour1,0.42083333333333334,-0.3106481481481482,1,0,0,5.729778999986593,number4,True,True,True,25,5,2019_Nov_15_1712,MA_Theta_Exp,3.0.7,60.06240483833974,
video/Experiment/zh_sp07_Ad_Ro_2_NVocInAudio_NoVideo.avi,vocoded,noVideo,sp07,Ad,Ro,2,1,2,flow/blocks/NVocInAudio_NoVideo_A.csv,,,,,,,,,0,1,1,1,0,7,7,9,-0.3819444444444444,0.32685185185185184,1,0,0,4.544953499978874,call1,0.005555555555555556,-0.12037037037037036,1,0,0,5.066512399993371,colour3,0.4166666666666667,0.09212962962962963,1,0,0,5.523174299974926,number2,True,True,True,25,5,2019_Nov_15_1712,MA_Theta_Exp,3.0.7,60.06240483833974,
video/Experiment/zh_sp01_Dr_We_4_NVocInAudio_NoVideo.avi,vocoded,noVideo,sp01,Dr,We,4,1,2,flow/blocks/NVocInAudio_NoVideo_A.csv,,,,,,,,,0,1,1,1,0,8,8,31,-0.3819444444444444,0.0962962962962963,1,0,0,5.241619800042827,call2,0.009722222222222222,-0.34814814814814815,1,0,0,5.805328499991447,colour4,0.40694444444444444,-0.29814814814814816,1,0,0,6.219043099961709,number4,True,True,True,25,5,2019_Nov_15_1712,MA_Theta_Exp,3.0.7,60.06240483833974,
video/Experiment/zh_sp07_Dr_Ge_2_NVocInAudio_NoVideo.avi,vocoded,noVideo,sp07,Dr,Ge,2,1,2,flow/blocks/NVocInAudio_NoVideo_A.csv,,,,,,,,,0,1,1,1,0,9,9,17,-0.4097222222222222,0.12962962962962962,1,0,0,4.441109899955336,call2,-0.03333333333333333,0.2865740740740741,1,0,0,4.910658199980389,colour1,0.39444444444444443,0.10601851851851851,1,0,0,5.378055999986827,number2,True,True,True,25,5,2019_Nov_15_1712,MA_Theta_Exp,3.0.7,60.06240483833974,
video/Experiment/zh_sp07_Dr_Gr_3_NVocInAudio_NoVideo.avi,vocoded,noVideo,sp07,Dr,Gr,3,1,2,flow/blocks/NVocInAudio_NoVideo_A.csv,,,,,,,,,0,1,1,1,0,10,10,22,-0.40555555555555556,0.09907407407407408,1,0,0,4.988403700001072,call2,0.022222222222222223,0.10462962962962963,1,0,0,5.509473500016611,colour2,0.4013888888888889,-0.11203703703703703,1,0,0,6.0221707000164315,number3,True,True,True,25,5,2019_Nov_15_1712,MA_Theta_Exp,3.0.7,60.06240483833974,
video/Experiment/zh_sp01_Ad_We_3_NVocInAudio_NoVideo.avi,vocoded,noVideo,sp01,Ad,We,3,1,2,flow/blocks/NVocInAudio_NoVideo_A.csv,,,,,,,,,0,1,1,1,0,11,11,14,-0.3819444444444444,0.1337962962962963,1,0,0,5.449794799962547,call2,0.020833333333333332,-0.3189814814814815,1,0,0,7.888961100019515,colour4,0.4027777777777778,-0.12037037037037036,1,0,0,8.339205699972808,number3,False,True,True,25,5,2019_Nov_15_1712,MA_Theta_Exp,3.0.7,60.06240483833974,
video/Experiment/zh_sp01_Ad_Gr_4_NVocInAudio_NoVideo.avi,vocoded,noVideo,sp01,Ad,Gr,4,1,2,flow/blocks/NVocInAudio_NoVideo_A.csv,,,,,,,,,0,1,1,1,0,12,12,7,-0.37222222222222223,0.3143518518518518,1,0,0,4.974122400046326,call1,-0.005555555555555556,0.08796296296296297,1,0,0,5.4392707999795675,colour2,0.40694444444444444,-0.31203703703703706,1,0,0,5.921089399955235,number4,True,True,True,25,5,2019_Nov_15_1712,MA_Theta_Exp,3.0.7,60.06240483833974,
video/Experiment/zh_sp07_Ad_Gr_1_NVocInAudio_NoVideo.avi,vocoded,noVideo,sp07,Ad,Gr,1,1,2,flow/blocks/NVocInAudio_NoVideo_A.csv,,,,,,,,,0,1,1,1,0,13,13,4,-0.39861111111111114,0.3087962962962963,1,0,0,5.140864699962549,call1,0.03194444444444444,0.05185185185185185,1,0,0,5.62236480001593,colour2,0.45555555555555555,0.31574074074074077,1,0,0,6.096942399977706,number1,True,True,True,25,5,2019_Nov_15_1712,MA_Theta_Exp,3.0.7,60.06240483833974,
video/Experiment/zh_sp07_Ad_We_1_NVocInAudio_NoVideo.avi,vocoded,noVideo,sp07,Ad,We,1,1,2,flow/blocks/NVocInAudio_NoVideo_A.csv,,,,,,,,,0,1,1,1,0,14,14,12,-0.38055555555555554,0.3212962962962963,1,0,0,4.55606460000854,call1,0.016666666666666666,-0.3162037037037037,1,0,0,5.126840999990236,colour4,0.38055555555555554,0.2740740740740741,1,0,0,5.638660199998412,number1,True,True,True,25,5,2019_Nov_15_1712,MA_Theta_Exp,3.0.7,60.06240483833974,
video/Experiment/zh_sp07_Dr_We_2_NVocInAudio_NoVideo.avi,vocoded,noVideo,sp07,Dr,We,2,1,2,flow/blocks/NVocInAudio_NoVideo_A.csv,,,,,,,,,0,1,1,1,0,15,15,29,-0.4236111111111111,0.1087962962962963,1,0,0,4.766661400033627,call2,0.005555555555555556,-0.337037037037037,1,0,0,5.367421299975831,colour4,0.37916666666666665,0.03935185185185185,1,0,0,5.847925000009127,number2,True,True,True,25,5,2019_Nov_15_1712,MA_Theta_Exp,3.0.7,60.06240483833974,
video/Experiment/zh_sp01_Dr_Ro_1_NVocInAudio_NoVideo.avi,vocoded,noVideo,sp01,Dr,Ro,1,1,2,flow/blocks/NVocInAudio_NoVideo_A.csv,,,,,,,,,0,1,1,1,0,16,16,24,-0.40694444444444444,0.11851851851851852,1,0,0,5.748116700036917,call2,-0.025,-0.09675925925925925,1,0,0,6.133768500003498,colour3,0.40694444444444444,0.2949074074074074,1,0,0,6.603508700034581,number1,True,True,True,25,5,2019_Nov_15_1712,MA_Theta_Exp,3.0.7,60.06240483833974,
video/Experiment/zh_sp07_Ad_Ge_4_NVocInAudio_NoVideo.avi,vocoded,noVideo,sp07,Ad,Ge,4,1,2,flow/blocks/NVocInAudio_NoVideo_A.csv,,,,,,,,,0,1,1,1,0,17,17,3,-0.40555555555555556,0.33101851851851855,1,0,0,4.505089499987662,call1,-0.009722222222222222,0.2949074074074074,1,0,0,4.8859706000075676,colour1,0.39444444444444443,-0.29953703703703705,1,0,0,5.402758900017943,number4,True,True,True,25,5,2019_Nov_15_1712,MA_Theta_Exp,3.0.7,60.06240483833974,
video/Experiment/zh_sp01_Ad_Ge_3_NVocInAudio_NoVideo.avi,vocoded,noVideo,sp01,Ad,Ge,3,1,2,flow/blocks/NVocInAudio_NoVideo_A.csv,,,,,,,,,0,1,1,1,0,18,18,2,-0.3972222222222222,0.300462962962963,1,0,0,5.11888419999741,call1,0.05416666666666667,0.28379629629629627,1,0,0,5.496392999950331,colour1,0.42083333333333334,-0.15787037037037038,1,0,0,6.115346800012048,number3,True,True,True,25,5,2019_Nov_15_1712,MA_Theta_Exp,3.0.7,60.06240483833974,
video/Experiment/zh_sp01_Ad_We_2_NVocInAudio_NoVideo.avi,vocoded,noVideo,sp01,Ad,We,2,1,2,flow/blocks/NVocInAudio_NoVideo_A.csv,,,,,,,,,0,1,1,1,0,19,19,13,-0.44027777777777777,0.31851851851851853,1,0,0,5.046706599998288,call1,0.009722222222222222,-0.28425925925925927,1,0,0,5.774494499957655,colour4,0.4013888888888889,0.10601851851851851,1,0,0,6.311545300006401,number2,True,True,True,25,5,2019_Nov_15_1712,MA_Theta_Exp,3.0.7,60.06240483833974,
video/Experiment/zh_sp07_Dr_Ge_3_NVocInAudio_NoVideo.avi,vocoded,noVideo,sp07,Dr,Ge,3,1,2,flow/blocks/NVocInAudio_NoVideo_A.csv,,,,,,,,,0,1,1,1,0,20,20,18,-0.4027777777777778,0.10324074074074074,1,0,0,4.603318499983288,call2,-0.016666666666666666,0.3212962962962963,1,0,0,5.137407499947585,colour1,0.37222222222222223,-0.11203703703703703,1,0,0,5.545867500011809,number3,True,True,True,25,5,2019_Nov_15_1712,MA_Theta_Exp,3.0.7,60.06240483833974,
video/Experiment/zh_sp01_Ad_Ge_2_NVocInAudio_NoVideo.avi,vocoded,noVideo,sp01,Ad,Ge,2,1,2,flow/blocks/NVocInAudio_NoVideo_A.csv,,,,,,,,,0,1,1,1,0,21,21,1,-0.3861111111111111,0.3143518518518518,1,0,0,5.023061999992933,call1,0.0,0.2712962962962963,1,0,0,5.405998800008092,colour1,0.46944444444444444,0.056018518518518516,1,0,0,5.8400888000032865,number2,True,True,True,25,5,2019_Nov_15_1712,MA_Theta_Exp,3.0.7,60.06240483833974,
video/Experiment/zh_sp01_Ad_Ro_3_NVocInAudio_NoVideo.avi,vocoded,noVideo,sp01,Ad,Ro,3,1,2,flow/blocks/NVocInAudio_NoVideo_A.csv,,,,,,,,,0,1,1,1,0,22,22,10,-0.4027777777777778,0.30462962962962964,1,0,0,5.104211399971973,call1,0.020833333333333332,0.31296296296296294,1,0,0,5.580998199991882,colour1,0.37083333333333335,-0.08981481481481482,1,0,0,6.075029700004961,number3,True,False,True,25,5,2019_Nov_15_1712,MA_Theta_Exp,3.0.7,60.06240483833974,
video/Experiment/zh_sp07_Dr_Gr_2_NVocInAudio_NoVideo.avi,vocoded,noVideo,sp07,Dr,Gr,2,1,2,flow/blocks/NVocInAudio_NoVideo_A.csv,,,,,,,,,0,1,1,1,0,23,23,21,-0.3277777777777778,0.07824074074074074,1,0,0,4.500237100000959,call2,0.06527777777777778,0.09351851851851851,1,0,0,4.9341558999731205,colour2,0.36666666666666664,0.11018518518518519,1,0,0,5.380668599973433,number2,True,True,True,25,5,2019_Nov_15_1712,MA_Theta_Exp,3.0.7,60.06240483833974,
video/Experiment/zh_sp07_Ad_Ro_4_NVocInAudio_NoVideo.avi,vocoded,noVideo,sp07,Ad,Ro,4,1,2,flow/blocks/NVocInAudio_NoVideo_A.csv,,,,,,,,,0,1,1,1,0,24,24,11,-0.37916666666666665,0.2962962962962963,1,0,0,4.3770323999924585,call1,-0.006944444444444444,-0.08981481481481482,1,0,0,4.844292099995073,colour3,0.44583333333333336,-0.3592592592592593,1,0,0,5.277164300030563,number4,True,True,True,25,5,2019_Nov_15_1712,MA_Theta_Exp,3.0.7,60.06240483833974,
video/Experiment/zh_sp07_Ad_Ge_1_NVocInAudio_NoVideo.avi,vocoded,noVideo,sp07,Ad,Ge,1,1,2,flow/blocks/NVocInAudio_NoVideo_A.csv,,,,,,,,,0,1,1,1,0,25,25,0,-0.40555555555555556,0.3296296296296296,1,0,0,4.477176200016402,call1,-0.029166666666666667,0.31157407407407406,1,0,0,4.9759608000167646,colour1,0.39166666666666666,0.300462962962963,1,0,0,5.415109099994879,number1,True,True,True,25,5,2019_Nov_15_1712,MA_Theta_Exp,3.0.7,60.06240483833974,
video/Experiment/zh_sp07_Dr_Gr_1_NVocInAudio_NoVideo.avi,vocoded,noVideo,sp07,Dr,Gr,1,1,2,flow/blocks/NVocInAudio_NoVideo_A.csv,,,,,,,,,0,1,1,1,0,26,26,20,-0.36944444444444446,0.12546296296296297,1,0,0,4.764729599992279,call2,-0.006944444444444444,0.07962962962962963,1,0,0,5.178851000033319,colour2,0.3888888888888889,0.27824074074074073,1,0,0,5.597386299981736,number1,True,True,True,25,5,2019_Nov_15_1712,MA_Theta_Exp,3.0.7,60.06240483833974,
video/Experiment/zh_sp01_Dr_Ro_4_NVocInAudio_NoVideo.avi,vocoded,noVideo,sp01,Dr,Ro,4,1,2,flow/blocks/NVocInAudio_NoVideo_A.csv,,,,,,,,,0,1,1,1,0,27,27,27,-0.3611111111111111,0.1087962962962963,1,0,0,5.243259700015187,call2,0.019444444444444445,-0.08287037037037037,1,0,0,5.711983599991072,colour3,0.4041666666666667,-0.3398148148148148,1,0,0,6.143445800000336,number4,True,True,True,25,5,2019_Nov_15_1712,MA_Theta_Exp,3.0.7,60.06240483833974,
video/Experiment/zh_sp01_Ad_We_4_NVocInAudio_NoVideo.avi,vocoded,noVideo,sp01,Ad,We,4,1,2,flow/blocks/NVocInAudio_NoVideo_A.csv,,,,,,,,,0,1,1,1,0,28,28,15,-0.40694444444444444,0.287962962962963,1,0,0,4.895643799973186,call1,-0.013888888888888888,-0.29259259259259257,1,0,0,5.455732700007502,colour4,0.39444444444444443,-0.30787037037037035,1,0,0,5.828853799961507,number4,True,True,True,25,5,2019_Nov_15_1712,MA_Theta_Exp,3.0.7,60.06240483833974,
video/Experiment/zh_sp07_Dr_Ro_2_NVocInAudio_NoVideo.avi,vocoded,noVideo,sp07,Dr,Ro,2,1,2,flow/blocks/NVocInAudio_NoVideo_A.csv,,,,,,,,,0,1,1,1,0,29,29,25,-0.38055555555555554,0.07824074074074074,1,0,0,4.482126499991864,call2,-0.043055555555555555,-0.11342592592592593,1,0,0,4.918026699975599,colour3,0.44305555555555554,0.09907407407407408,1,0,0,5.412738300045021,number2,True,True,True,25,5,2019_Nov_15_1712,MA_Theta_Exp,3.0.7,60.06240483833974,
video/Experiment/zh_sp07_Ad_Ro_1_NVocInAudio_NoVideo.avi,vocoded,noVideo,sp07,Ad,Ro,1,1,2,flow/blocks/NVocInAudio_NoVideo_A.csv,,,,,,,,,0,1,1,1,0,30,30,8,-0.3902777777777778,0.07685185185185185,1,0,0,4.373074200004339,call2,-0.07222222222222222,-0.055092592592592596,1,0,0,4.734147000010125,colour3,0.4,0.3351851851851852,1,0,0,5.269815099949483,number1,False,True,True,25,5,2019_Nov_15_1712,MA_Theta_Exp,3.0.7,60.06240483833974,
video/Experiment/zh_sp01_Dr_We_3_NVocInAudio_NoVideo.avi,vocoded,noVideo,sp01,Dr,We,3,1,2,flow/blocks/NVocInAudio_NoVideo_A.csv,,,,,,,,,0,1,1,1,0,31,31,30,-0.39305555555555555,0.09212962962962963,1,0,0,5.068840000021737,call2,0.005555555555555556,-0.3175925925925926,1,0,0,5.5458769999677315,colour4,0.4097222222222222,-0.08287037037037037,1,0,0,6.057873599987943,number3,True,True,True,25,5,2019_Nov_15_1712,MA_Theta_Exp,3.0.7,60.06240483833974,
