videoFile,condition,video,speaker,callSign,colour,number,seq,id,block,exp.thisRepN,exp.thisTrialN,exp.thisN,exp.thisIndex,training.thisRepN,training.thisTrialN,training.thisN,training.thisIndex,firstHalf.thisRepN,firstHalf.thisTrialN,firstHalf.thisN,firstHalf.thisIndex,blocksA.thisRepN,blocksA.thisTrialN,blocksA.thisN,blocksA.thisIndex,secondHalf.thisRepN,secondHalf.thisTrialN,secondHalf.thisN,secondHalf.thisIndex,blocksB.thisRepN,blocksB.thisTrialN,blocksB.thisN,blocksB.thisIndex,mouseClickOnCall.x,mouseClickOnCall.y,mouseClickOnCall.leftButton,mouseClickOnCall.midButton,mouseClickOnCall.rightButton,mouseClickOnCall.time,mouseClickOnCall.clicked_name,mouseClickOnColour.x,mouseClickOnColour.y,mouseClickOnColour.leftButton,mouseClickOnColour.midButton,mouseClickOnColour.rightButton,mouseClickOnColour.time,mouseClickOnColour.clicked_name,mouseClickOnNumber.x,mouseClickOnNumber.y,mouseClickOnNumber.leftButton,mouseClickOnNumber.midButton,mouseClickOnNumber.rightButton,mouseClickOnNumber.time,mouseClickOnNumber.clicked_name,callSignCorrect,colourCorrect,numberCorrect,participant,order,date,expName,psychopyVersion,frameRate,
video/Training/zh_sp01_Ad_We_4_NVocInAudio_NoVideo.avi,vocoded,noVideo,sp01,Ad,We,4,,,,,,,,0,0,0,0,,,,,,,,,,,,,,,,,-0.38472222222222224,0.33935185185185185,1,0,0,6.115403099975083,call1,-0.07083333333333333,-0.32314814814814813,1,0,0,6.922098400013056,colour4,0.44583333333333336,-0.28425925925925927,1,0,0,7.44102779997047,number4,True,True,True,25,5,2019_Nov_15_1712,MA_Theta_Exp,3.0.7,60.06240483833974,
video/Training/zh_sp07_Ad_Ge_3_NVocInAudio_NoVideo.avi,vocoded,noVideo,sp07,Ad,Ge,3,,,,,,,,0,1,1,1,,,,,,,,,,,,,,,,,-0.4027777777777778,0.33796296296296297,1,0,0,4.6059970000060275,call1,0.011111111111111112,0.31296296296296294,1,0,0,5.173971900017932,colour1,0.4125,-0.1425925925925926,1,0,0,5.690592099970672,number3,True,True,True,25,5,2019_Nov_15_1712,MA_Theta_Exp,3.0.7,60.06240483833974,
video/Training/zh_sp01_Dr_Ro_3_NVocInAudio_GlobalThetaInVideo.avi,vocoded,plusVideo,sp01,Dr,Ro,3,,,,,,,,0,2,2,2,,,,,,,,,,,,,,,,,-0.41388888888888886,0.14212962962962963,1,0,0,5.202414600003976,call2,0.05138888888888889,-0.1259259259259259,1,0,0,5.690807500039227,colour3,0.42777777777777776,-0.10231481481481482,1,0,0,6.0747894999803975,number3,True,True,True,25,5,2019_Nov_15_1712,MA_Theta_Exp,3.0.7,60.06240483833974,
video/Training/zh_sp07_Dr_Gr_4_NVocInAudio_GlobalThetaInVideo.avi,vocoded,plusVideo,sp07,Dr,Gr,4,,,,,,,,0,3,3,3,,,,,,,,,,,,,,,,,-0.3680555555555556,0.08796296296296297,1,0,0,4.567771599977277,call2,-0.008333333333333333,0.11574074074074074,1,0,0,5.063930900010746,colour2,0.4527777777777778,-0.35509259259259257,1,0,0,5.615203699970152,number4,True,True,True,25,5,2019_Nov_15_1712,MA_Theta_Exp,3.0.7,60.06240483833974,
video/Training/zh_sp01_Ti_Gr_2_NoThetaInAudio_NoVideo.avi,noTheta,noVideo,sp01,Ti,Gr,2,,,,,,,,0,4,4,4,,,,,,,,,,,,,,,,,-0.36527777777777776,0.3337962962962963,1,0,0,5.930949200002942,call1,0.022222222222222223,0.11435185185185186,1,0,0,6.846184700028971,colour2,0.38055555555555554,0.10046296296296296,1,0,0,7.304558000003453,number2,False,True,True,25,5,2019_Nov_15_1712,MA_Theta_Exp,3.0.7,60.06240483833974,
video/Training/zh_sp07_Ti_Ro_1_NoThetaInAudio_NoVideo.avi,noTheta,noVideo,sp07,Ti,Ro,1,,,,,,,,0,5,5,5,,,,,,,,,,,,,,,,,-0.37777777777777777,-0.13842592592592592,1,0,0,4.710057799995411,call3,0.0125,0.3435185185185185,1,0,0,7.138767700002063,colour1,0.4222222222222222,0.3060185185185185,1,0,0,7.7704620999866165,number1,True,False,True,25,5,2019_Nov_15_1712,MA_Theta_Exp,3.0.7,60.06240483833974,
video/Training/zh_sp01_Un_Ge_1_NoThetaInAudio_GlobalThetaInVideo.avi,noTheta,plusVideo,sp01,Un,Ge,1,,,,,,,,0,6,6,6,,,,,,,,,,,,,,,,,-0.35555555555555557,0.12685185185185185,1,0,0,5.8169916000333615,call2,-0.020833333333333332,0.30324074074074076,1,0,0,6.3330453999806195,colour1,0.40694444444444444,0.33935185185185185,1,0,0,6.787086099968292,number1,False,True,True,25,5,2019_Nov_15_1712,MA_Theta_Exp,3.0.7,60.06240483833974,
video/Training/zh_sp07_Un_We_2_NoThetaInAudio_GlobalThetaInVideo.avi,noTheta,plusVideo,sp07,Un,We,2,,,,,,,,0,7,7,7,,,,,,,,,,,,,,,,,-0.37777777777777777,-0.35509259259259257,1,0,0,4.626155400008429,call4,0.05277777777777778,-0.32592592592592595,1,0,0,5.2466562000336125,colour4,0.4,0.1087962962962963,1,0,0,5.847928999981377,number2,True,True,True,25,5,2019_Nov_15_1712,MA_Theta_Exp,3.0.7,60.06240483833974,
video/Training/zh_sp01_Ad_Ge_1_GlobalTheta_NoVideo.avi,globalTheta,noVideo,sp01,Ad,Ge,1,,,,,,,,0,8,8,8,,,,,,,,,,,,,,,,,-0.3875,0.31712962962962965,1,0,0,5.68724519998068,call1,0.058333333333333334,0.33796296296296297,1,0,0,6.152572999999393,colour1,0.41944444444444445,0.32407407407407407,1,0,0,6.522360500006471,number1,True,True,True,25,5,2019_Nov_15_1712,MA_Theta_Exp,3.0.7,60.06240483833974,
video/Training/zh_sp07_Ad_Ro_3_GlobalTheta_NoVideo.avi,globalTheta,noVideo,sp07,Ad,Ro,3,,,,,,,,0,9,9,9,,,,,,,,,,,,,,,,,-0.39861111111111114,-0.12037037037037036,1,0,0,5.5815130999544635,call3,0.001388888888888889,-0.06481481481481481,1,0,0,6.618860799993854,colour3,0.4513888888888889,-0.10925925925925926,1,0,0,7.152013099985197,number3,False,True,True,25,5,2019_Nov_15_1712,MA_Theta_Exp,3.0.7,60.06240483833974,
video/Experiment/zh_sp01_Dr_Gr_4_NoThetaInAudio_NoVideo.avi,noTheta,noVideo,sp01,Dr,Gr,4,0,4,flow/blocks/NoThetaInAudio_NoVideo_A.csv,,,,,,,,,0,0,0,0,0,0,0,23,,,,,,,,,-0.375,0.10601851851851851,1,0,0,5.239538900030311,call2,-0.004166666666666667,0.09490740740740741,1,0,0,5.721913399989717,colour2,0.42916666666666664,-0.33425925925925926,1,0,0,6.35368500003824,number4,True,True,True,25,5,2019_Nov_15_1712,MA_Theta_Exp,3.0.7,60.06240483833974,
video/Experiment/zh_sp01_Dr_We_2_NoThetaInAudio_NoVideo.avi,noTheta,noVideo,sp01,Dr,We,2,0,4,flow/blocks/NoThetaInAudio_NoVideo_A.csv,,,,,,,,,0,0,0,0,0,1,1,29,,,,,,,,,-0.3861111111111111,0.11296296296296296,1,0,0,5.259481999964919,call2,0.019444444444444445,-0.34814814814814815,1,0,0,5.834481300029438,colour4,0.3611111111111111,0.09907407407407408,1,0,0,6.4126466999878176,number2,True,True,True,25,5,2019_Nov_15_1712,MA_Theta_Exp,3.0.7,60.06240483833974,
video/Experiment/zh_sp07_Ad_Gr_1_NoThetaInAudio_NoVideo.avi,noTheta,noVideo,sp07,Ad,Gr,1,0,4,flow/blocks/NoThetaInAudio_NoVideo_A.csv,,,,,,,,,0,0,0,0,0,2,2,4,,,,,,,,,-0.3819444444444444,0.10601851851851851,1,0,0,6.45223920000717,call2,0.04861111111111111,0.11435185185185186,1,0,0,6.872424300003331,colour2,0.49027777777777776,0.3712962962962963,1,0,0,7.2535931000020355,number1,False,True,True,25,5,2019_Nov_15_1712,MA_Theta_Exp,3.0.7,60.06240483833974,
video/Experiment/zh_sp07_Dr_Ge_1_NoThetaInAudio_NoVideo.avi,noTheta,noVideo,sp07,Dr,Ge,1,0,4,flow/blocks/NoThetaInAudio_NoVideo_A.csv,,,,,,,,,0,0,0,0,0,3,3,16,,,,,,,,,-0.37777777777777777,-0.28564814814814815,1,0,0,5.445573600009084,call4,0.0,0.12962962962962962,1,0,0,6.818817399966065,colour2,0.4097222222222222,0.3101851851851852,1,0,0,7.2234395000268705,number1,False,False,True,25,5,2019_Nov_15_1712,MA_Theta_Exp,3.0.7,60.06240483833974,
video/Experiment/zh_sp07_Dr_We_4_NoThetaInAudio_NoVideo.avi,noTheta,noVideo,sp07,Dr,We,4,0,4,flow/blocks/NoThetaInAudio_NoVideo_A.csv,,,,,,,,,0,0,0,0,0,4,4,31,,,,,,,,,-0.3458333333333333,0.0962962962962963,1,0,0,5.57695999997668,call2,0.0,-0.38564814814814813,1,0,0,6.111793000018224,colour4,0.40555555555555556,-0.33425925925925926,1,0,0,6.899663400021382,number4,True,True,True,25,5,2019_Nov_15_1712,MA_Theta_Exp,3.0.7,60.06240483833974,
video/Experiment/zh_sp01_Ad_Gr_3_NoThetaInAudio_NoVideo.avi,noTheta,noVideo,sp01,Ad,Gr,3,0,4,flow/blocks/NoThetaInAudio_NoVideo_A.csv,,,,,,,,,0,0,0,0,0,5,5,6,,,,,,,,,-0.37083333333333335,0.3074074074074074,1,0,0,5.026956899964716,call1,0.013888888888888888,0.08518518518518518,1,0,0,5.540258100023493,colour2,0.41944444444444445,-0.14537037037037037,1,0,0,5.97510229999898,number3,True,True,True,25,5,2019_Nov_15_1712,MA_Theta_Exp,3.0.7,60.06240483833974,
video/Experiment/zh_sp07_Dr_Gr_3_NoThetaInAudio_NoVideo.avi,noTheta,noVideo,sp07,Dr,Gr,3,0,4,flow/blocks/NoThetaInAudio_NoVideo_A.csv,,,,,,,,,0,0,0,0,0,6,6,22,,,,,,,,,-0.3958333333333333,0.10462962962962963,1,0,0,4.655331199988723,call2,0.02361111111111111,0.11296296296296296,1,0,0,5.097016800020356,colour2,0.4083333333333333,-0.1398148148148148,1,0,0,5.52499030000763,number3,True,True,True,25,5,2019_Nov_15_1712,MA_Theta_Exp,3.0.7,60.06240483833974,
video/Experiment/zh_sp07_Dr_Ro_1_NoThetaInAudio_NoVideo.avi,noTheta,noVideo,sp07,Dr,Ro,1,0,4,flow/blocks/NoThetaInAudio_NoVideo_A.csv,,,,,,,,,0,0,0,0,0,7,7,24,,,,,,,,,-0.36666666666666664,0.08657407407407407,1,0,0,4.6722415999975055,call2,-0.016666666666666666,-0.14537037037037037,1,0,0,5.081620799959637,colour3,0.3819444444444444,0.3337962962962963,1,0,0,5.59579080005642,number1,True,True,True,25,5,2019_Nov_15_1712,MA_Theta_Exp,3.0.7,60.06240483833974,
video/Experiment/zh_sp07_Ad_Ge_2_NoThetaInAudio_NoVideo.avi,noTheta,noVideo,sp07,Ad,Ge,2,0,4,flow/blocks/NoThetaInAudio_NoVideo_A.csv,,,,,,,,,0,0,0,0,0,8,8,1,,,,,,,,,-0.36666666666666664,0.3212962962962963,1,0,0,4.753943099989556,call1,-0.030555555555555555,0.31851851851851853,1,0,0,5.134557400015183,colour1,0.4027777777777778,0.11157407407407408,1,0,0,5.53961249999702,number2,True,True,True,25,5,2019_Nov_15_1712,MA_Theta_Exp,3.0.7,60.06240483833974,
video/Experiment/zh_sp07_Ad_Ro_1_NoThetaInAudio_NoVideo.avi,noTheta,noVideo,sp07,Ad,Ro,1,0,4,flow/blocks/NoThetaInAudio_NoVideo_A.csv,,,,,,,,,0,0,0,0,0,9,9,8,,,,,,,,,-0.3958333333333333,0.33796296296296297,1,0,0,4.495530699961819,call1,0.009722222222222222,-0.08425925925925926,1,0,0,4.978572099993471,colour3,0.32222222222222224,0.3199074074074074,1,0,0,5.5672501000226475,number1,True,True,True,25,5,2019_Nov_15_1712,MA_Theta_Exp,3.0.7,60.06240483833974,
video/Experiment/zh_sp07_Ad_Ge_4_NoThetaInAudio_NoVideo.avi,noTheta,noVideo,sp07,Ad,Ge,4,0,4,flow/blocks/NoThetaInAudio_NoVideo_A.csv,,,,,,,,,0,0,0,0,0,10,10,3,,,,,,,,,-0.4097222222222222,0.3101851851851852,1,0,0,4.611042400007136,call1,0.08333333333333333,0.29212962962962963,1,0,0,4.993665500020143,colour1,0.3875,-0.34120370370370373,1,0,0,5.576973999966867,number4,True,True,True,25,5,2019_Nov_15_1712,MA_Theta_Exp,3.0.7,60.06240483833974,
video/Experiment/zh_sp01_Dr_We_3_NoThetaInAudio_NoVideo.avi,noTheta,noVideo,sp01,Dr,We,3,0,4,flow/blocks/NoThetaInAudio_NoVideo_A.csv,,,,,,,,,0,0,0,0,0,11,11,30,,,,,,,,,-0.3625,-0.10787037037037037,1,0,0,5.084062900044955,call3,0.011111111111111112,-0.3148148148148148,1,0,0,7.044700599974021,colour4,0.47638888888888886,-0.07314814814814814,1,0,0,7.894127000006847,number3,False,True,True,25,5,2019_Nov_15_1712,MA_Theta_Exp,3.0.7,60.06240483833974,
video/Experiment/zh_sp01_Ad_Ro_4_NoThetaInAudio_NoVideo.avi,noTheta,noVideo,sp01,Ad,Ro,4,0,4,flow/blocks/NoThetaInAudio_NoVideo_A.csv,,,,,,,,,0,0,0,0,0,12,12,11,,,,,,,,,-0.3819444444444444,0.31851851851851853,1,0,0,5.4827667999779806,call1,0.03888888888888889,-0.1050925925925926,1,0,0,5.952587300038431,colour3,0.44722222222222224,-0.3537037037037037,1,0,0,6.334623900009319,number4,True,True,True,25,5,2019_Nov_15_1712,MA_Theta_Exp,3.0.7,60.06240483833974,
video/Experiment/zh_sp07_Dr_Ge_2_NoThetaInAudio_NoVideo.avi,noTheta,noVideo,sp07,Dr,Ge,2,0,4,flow/blocks/NoThetaInAudio_NoVideo_A.csv,,,,,,,,,0,0,0,0,0,13,13,17,,,,,,,,,-0.38055555555555554,0.32546296296296295,1,0,0,4.8038026000140235,call1,0.005555555555555556,0.287962962962963,1,0,0,5.170520699990448,colour1,0.4444444444444444,0.07546296296296297,1,0,0,5.537606699974276,number2,False,True,True,25,5,2019_Nov_15_1712,MA_Theta_Exp,3.0.7,60.06240483833974,
video/Experiment/zh_sp07_Dr_Gr_2_NoThetaInAudio_NoVideo.avi,noTheta,noVideo,sp07,Dr,Gr,2,0,4,flow/blocks/NoThetaInAudio_NoVideo_A.csv,,,,,,,,,0,0,0,0,0,14,14,21,,,,,,,,,-0.3736111111111111,0.08935185185185185,1,0,0,5.4701721999445,call2,0.03888888888888889,0.10740740740740741,1,0,0,6.165080400009174,colour2,0.39861111111111114,0.12962962962962962,1,0,0,6.852872099960223,number2,True,True,True,25,5,2019_Nov_15_1712,MA_Theta_Exp,3.0.7,60.06240483833974,
video/Experiment/zh_sp07_Ad_Gr_2_NoThetaInAudio_NoVideo.avi,noTheta,noVideo,sp07,Ad,Gr,2,0,4,flow/blocks/NoThetaInAudio_NoVideo_A.csv,,,,,,,,,0,0,0,0,0,15,15,5,,,,,,,,,-0.39305555555555555,0.3212962962962963,1,0,0,5.164179500017781,call1,0.0,0.11435185185185186,1,0,0,6.0712674999958836,colour2,0.43194444444444446,0.12685185185185185,1,0,0,6.536686400009785,number2,True,True,True,25,5,2019_Nov_15_1712,MA_Theta_Exp,3.0.7,60.06240483833974,
video/Experiment/zh_sp01_Dr_Ro_3_NoThetaInAudio_NoVideo.avi,noTheta,noVideo,sp01,Dr,Ro,3,0,4,flow/blocks/NoThetaInAudio_NoVideo_A.csv,,,,,,,,,0,0,0,0,0,16,16,26,,,,,,,,,-0.37916666666666665,-0.08703703703703704,1,0,0,5.26492019998841,call3,0.011111111111111112,-0.09814814814814815,1,0,0,5.757322099991143,colour3,0.4486111111111111,-0.11203703703703703,1,0,0,6.2070266000228,number3,False,True,True,25,5,2019_Nov_15_1712,MA_Theta_Exp,3.0.7,60.06240483833974,
video/Experiment/zh_sp01_Ad_Ge_3_NoThetaInAudio_NoVideo.avi,noTheta,noVideo,sp01,Ad,Ge,3,0,4,flow/blocks/NoThetaInAudio_NoVideo_A.csv,,,,,,,,,0,0,0,0,0,17,17,2,,,,,,,,,-0.39305555555555555,0.29907407407407405,1,0,0,6.020731600001454,call1,0.016666666666666666,0.31574074074074077,1,0,0,6.434949800022878,colour1,0.375,-0.11481481481481481,1,0,0,6.923611100006383,number3,True,True,True,25,5,2019_Nov_15_1712,MA_Theta_Exp,3.0.7,60.06240483833974,
video/Experiment/zh_sp01_Ad_We_4_NoThetaInAudio_NoVideo.avi,noTheta,noVideo,sp01,Ad,We,4,0,4,flow/blocks/NoThetaInAudio_NoVideo_A.csv,,,,,,,,,0,0,0,0,0,18,18,15,,,,,,,,,-0.3972222222222222,0.30185185185185187,1,0,0,5.028569000016432,call1,0.016666666666666666,-0.32314814814814813,1,0,0,5.612152099958621,colour4,0.44722222222222224,-0.36203703703703705,1,0,0,5.9994409999926575,number4,True,True,True,25,5,2019_Nov_15_1712,MA_Theta_Exp,3.0.7,60.06240483833974,
video/Experiment/zh_sp01_Ad_We_1_NoThetaInAudio_NoVideo.avi,noTheta,noVideo,sp01,Ad,We,1,0,4,flow/blocks/NoThetaInAudio_NoVideo_A.csv,,,,,,,,,0,0,0,0,0,19,19,12,,,,,,,,,-0.4125,0.3560185185185185,1,0,0,4.919504400051665,call1,0.020833333333333332,-0.3300925925925926,1,0,0,5.548585399985313,colour4,0.4236111111111111,0.34074074074074073,1,0,0,6.152405000000726,number1,True,True,True,25,5,2019_Nov_15_1712,MA_Theta_Exp,3.0.7,60.06240483833974,
video/Experiment/zh_sp07_Dr_Ge_4_NoThetaInAudio_NoVideo.avi,noTheta,noVideo,sp07,Dr,Ge,4,0,4,flow/blocks/NoThetaInAudio_NoVideo_A.csv,,,,,,,,,0,0,0,0,0,20,20,19,,,,,,,,,-0.3680555555555556,-0.12175925925925926,1,0,0,4.725944100006018,call3,0.0125,0.31574074074074077,1,0,0,5.329413299972657,colour1,0.4125,-0.3175925925925926,1,0,0,5.979905000014696,number4,False,True,True,25,5,2019_Nov_15_1712,MA_Theta_Exp,3.0.7,60.06240483833974,
video/Experiment/zh_sp07_Ad_Ge_1_NoThetaInAudio_NoVideo.avi,noTheta,noVideo,sp07,Ad,Ge,1,0,4,flow/blocks/NoThetaInAudio_NoVideo_A.csv,,,,,,,,,0,0,0,0,0,21,21,0,,,,,,,,,-0.3888888888888889,0.32407407407407407,1,0,0,4.251279299962334,call1,0.019444444444444445,0.32407407407407407,1,0,0,4.748229500022717,colour1,0.36944444444444446,0.33101851851851855,1,0,0,5.084363200003281,number1,True,True,True,25,5,2019_Nov_15_1712,MA_Theta_Exp,3.0.7,60.06240483833974,
video/Experiment/zh_sp01_Ad_We_3_NoThetaInAudio_NoVideo.avi,noTheta,noVideo,sp01,Ad,We,3,0,4,flow/blocks/NoThetaInAudio_NoVideo_A.csv,,,,,,,,,0,0,0,0,0,22,22,14,,,,,,,,,-0.38055555555555554,0.31296296296296294,1,0,0,5.155210199998692,call1,0.02638888888888889,-0.33425925925925926,1,0,0,6.237435100018047,colour4,0.44305555555555554,-0.09953703703703703,1,0,0,6.731224499992095,number3,True,True,True,25,5,2019_Nov_15_1712,MA_Theta_Exp,3.0.7,60.06240483833974,
video/Experiment/zh_sp01_Dr_We_1_NoThetaInAudio_NoVideo.avi,noTheta,noVideo,sp01,Dr,We,1,0,4,flow/blocks/NoThetaInAudio_NoVideo_A.csv,,,,,,,,,0,0,0,0,0,23,23,28,,,,,,,,,-0.3888888888888889,-0.11481481481481481,1,0,0,9.087901299993973,call3,-0.030555555555555555,-0.3106481481481482,1,0,0,10.124514700029977,colour4,0.4083333333333333,0.32685185185185184,1,0,0,10.707265599980019,number1,False,True,True,25,5,2019_Nov_15_1712,MA_Theta_Exp,3.0.7,60.06240483833974,
video/Experiment/zh_sp01_Dr_Ro_2_NoThetaInAudio_NoVideo.avi,noTheta,noVideo,sp01,Dr,Ro,2,0,4,flow/blocks/NoThetaInAudio_NoVideo_A.csv,,,,,,,,,0,0,0,0,0,24,24,25,,,,,,,,,-0.38055555555555554,0.13657407407407407,1,0,0,8.710139999981038,call2,0.0,-0.1037037037037037,1,0,0,9.134264799999073,colour3,0.4125,0.13518518518518519,1,0,0,10.461269799969159,number2,True,True,True,25,5,2019_Nov_15_1712,MA_Theta_Exp,3.0.7,60.06240483833974,
video/Experiment/zh_sp01_Ad_Ro_3_NoThetaInAudio_NoVideo.avi,noTheta,noVideo,sp01,Ad,Ro,3,0,4,flow/blocks/NoThetaInAudio_NoVideo_A.csv,,,,,,,,,0,0,0,0,0,25,25,10,,,,,,,,,-0.40694444444444444,0.3226851851851852,1,0,0,5.44521989999339,call1,0.004166666666666667,-0.1259259259259259,1,0,0,6.031106300011743,colour3,0.4527777777777778,-0.13703703703703704,1,0,0,6.780240099993534,number3,True,True,True,25,5,2019_Nov_15_1712,MA_Theta_Exp,3.0.7,60.06240483833974,
video/Experiment/zh_sp01_Dr_Ge_3_NoThetaInAudio_NoVideo.avi,noTheta,noVideo,sp01,Dr,Ge,3,0,4,flow/blocks/NoThetaInAudio_NoVideo_A.csv,,,,,,,,,0,0,0,0,0,26,26,18,,,,,,,,,-0.4013888888888889,-0.10925925925925926,1,0,0,4.997389999974985,call3,-0.029166666666666667,0.32407407407407407,1,0,0,5.576423500024248,colour1,0.4111111111111111,-0.1425925925925926,1,0,0,6.09117349999724,number3,False,True,True,25,5,2019_Nov_15_1712,MA_Theta_Exp,3.0.7,60.06240483833974,
video/Experiment/zh_sp01_Ad_We_2_NoThetaInAudio_NoVideo.avi,noTheta,noVideo,sp01,Ad,We,2,0,4,flow/blocks/NoThetaInAudio_NoVideo_A.csv,,,,,,,,,0,0,0,0,0,27,27,13,,,,,,,,,-0.38333333333333336,0.33101851851851855,1,0,0,5.47034459997667,call1,0.025,-0.3453703703703704,1,0,0,6.520666999975219,colour4,0.4152777777777778,0.13935185185185187,1,0,0,6.974571400030982,number2,True,True,True,25,5,2019_Nov_15_1712,MA_Theta_Exp,3.0.7,60.06240483833974,
video/Experiment/zh_sp07_Dr_Gr_1_NoThetaInAudio_NoVideo.avi,noTheta,noVideo,sp07,Dr,Gr,1,0,4,flow/blocks/NoThetaInAudio_NoVideo_A.csv,,,,,,,,,0,0,0,0,0,28,28,20,,,,,,,,,-0.36527777777777776,-0.08703703703703704,1,0,0,5.347135599993635,call3,0.002777777777777778,0.11574074074074074,1,0,0,6.128720699984115,colour2,0.3972222222222222,0.3087962962962963,1,0,0,6.813563000003342,number1,False,True,True,25,5,2019_Nov_15_1712,MA_Theta_Exp,3.0.7,60.06240483833974,
video/Experiment/zh_sp07_Ad_Gr_4_NoThetaInAudio_NoVideo.avi,noTheta,noVideo,sp07,Ad,Gr,4,0,4,flow/blocks/NoThetaInAudio_NoVideo_A.csv,,,,,,,,,0,0,0,0,0,29,29,7,,,,,,,,,-0.4375,0.3212962962962963,1,0,0,4.731150499952491,call1,0.004166666666666667,0.12546296296296297,1,0,0,5.4146074000163935,colour2,0.3875,-0.3037037037037037,1,0,0,5.948363200004678,number4,True,True,True,25,5,2019_Nov_15_1712,MA_Theta_Exp,3.0.7,60.06240483833974,
video/Experiment/zh_sp01_Dr_Ro_4_NoThetaInAudio_NoVideo.avi,noTheta,noVideo,sp01,Dr,Ro,4,0,4,flow/blocks/NoThetaInAudio_NoVideo_A.csv,,,,,,,,,0,0,0,0,0,30,30,27,,,,,,,,,-0.4097222222222222,0.10046296296296296,1,0,0,5.789965900010429,call2,0.027777777777777776,-0.11898148148148148,1,0,0,6.266734200005885,colour3,0.43472222222222223,-0.3523148148148148,1,0,0,6.731534800026566,number4,True,True,True,25,5,2019_Nov_15_1712,MA_Theta_Exp,3.0.7,60.06240483833974,
video/Experiment/zh_sp07_Ad_Ro_2_NoThetaInAudio_NoVideo.avi,noTheta,noVideo,sp07,Ad,Ro,2,0,4,flow/blocks/NoThetaInAudio_NoVideo_A.csv,,,,,,,,,0,0,0,0,0,31,31,9,,,,,,,,,-0.38472222222222224,0.31712962962962965,1,0,0,4.415435899980366,call1,-0.06111111111111111,-0.08425925925925926,1,0,0,4.8638741000322625,colour3,0.4236111111111111,0.10185185185185185,1,0,0,5.329043700010516,number2,True,True,True,25,5,2019_Nov_15_1712,MA_Theta_Exp,3.0.7,60.06240483833974,
video/Experiment/zh_sp01_Ad_Gr_3_NVocInAudio_NoVideo.avi,vocoded,noVideo,sp01,Ad,Gr,3,1,2,flow/blocks/NVocInAudio_NoVideo_A.csv,,,,,,,,,0,1,1,1,0,0,0,6,,,,,,,,,-0.41388888888888886,0.3449074074074074,1,0,0,5.5918453999911435,call1,0.0125,0.11018518518518519,1,0,0,6.030551300034858,colour2,0.42916666666666664,-0.1287037037037037,1,0,0,6.459766599989962,number3,True,True,True,25,5,2019_Nov_15_1712,MA_Theta_Exp,3.0.7,60.06240483833974,
video/Experiment/zh_sp01_Ad_Gr_2_NVocInAudio_NoVideo.avi,vocoded,noVideo,sp01,Ad,Gr,2,1,2,flow/blocks/NVocInAudio_NoVideo_A.csv,,,,,,,,,0,1,1,1,0,1,1,5,,,,,,,,,-0.40694444444444444,0.3074074074074074,1,0,0,5.119541299995035,call1,0.15555555555555556,0.004629629629629629,1,0,0,5.587460000009742,colour2,0.5013888888888889,0.12962962962962962,1,0,0,6.398296700033825,number2,True,True,True,25,5,2019_Nov_15_1712,MA_Theta_Exp,3.0.7,60.06240483833974,
video/Experiment/zh_sp01_Dr_Ro_3_NVocInAudio_NoVideo.avi,vocoded,noVideo,sp01,Dr,Ro,3,1,2,flow/blocks/NVocInAudio_NoVideo_A.csv,,,,,,,,,0,1,1,1,0,2,2,26,,,,,,,,,-0.4236111111111111,0.07685185185185185,1,0,0,5.264287400001194,call2,0.05277777777777778,-0.13703703703703704,1,0,0,5.687043400015682,colour3,0.4583333333333333,-0.0912037037037037,1,0,0,6.132014099974185,number3,True,True,True,25,5,2019_Nov_15_1712,MA_Theta_Exp,3.0.7,60.06240483833974,
video/Experiment/zh_sp01_Dr_Gr_4_NVocInAudio_NoVideo.avi,vocoded,noVideo,sp01,Dr,Gr,4,1,2,flow/blocks/NVocInAudio_NoVideo_A.csv,,,,,,,,,0,1,1,1,0,3,3,23,,,,,,,,,-0.4111111111111111,0.0962962962962963,1,0,0,5.048315299965907,call2,-0.0125,0.09074074074074075,1,0,0,5.4140589000307955,colour2,0.4222222222222222,-0.3425925925925926,1,0,0,5.882663300028071,number4,True,True,True,25,5,2019_Nov_15_1712,MA_Theta_Exp,3.0.7,60.06240483833974,
video/Experiment/zh_sp07_Dr_We_1_NVocInAudio_NoVideo.avi,vocoded,noVideo,sp07,Dr,We,1,1,2,flow/blocks/NVocInAudio_NoVideo_A.csv,,,,,,,,,0,1,1,1,0,4,4,28,,,,,,,,,-0.4166666666666667,0.09907407407407408,1,0,0,4.379487900005188,call2,-0.020833333333333332,-0.3314814814814815,1,0,0,4.9135164999752305,colour4,0.35,0.3449074074074074,1,0,0,5.506294699967839,number1,True,True,True,25,5,2019_Nov_15_1712,MA_Theta_Exp,3.0.7,60.06240483833974,
video/Experiment/zh_sp01_Dr_Ge_1_NVocInAudio_NoVideo.avi,vocoded,noVideo,sp01,Dr,Ge,1,1,2,flow/blocks/NVocInAudio_NoVideo_A.csv,,,,,,,,,0,1,1,1,0,5,5,16,,,,,,,,,-0.39861111111111114,0.09212962962962963,1,0,0,4.9561326000257395,call2,0.016666666666666666,0.3087962962962963,1,0,0,5.36021489999257,colour1,0.4875,0.3365740740740741,1,0,0,5.728085100010503,number1,True,True,True,25,5,2019_Nov_15_1712,MA_Theta_Exp,3.0.7,60.06240483833974,
video/Experiment/zh_sp07_Dr_Ge_4_NVocInAudio_NoVideo.avi,vocoded,noVideo,sp07,Dr,Ge,4,1,2,flow/blocks/NVocInAudio_NoVideo_A.csv,,,,,,,,,0,1,1,1,0,6,6,19,,,,,,,,,-0.3958333333333333,0.09351851851851851,1,0,0,4.487565200019162,call2,0.059722222222222225,0.3282407407407407,1,0,0,4.968543099996168,colour1,0.42083333333333334,-0.3106481481481482,1,0,0,5.729778999986593,number4,True,True,True,25,5,2019_Nov_15_1712,MA_Theta_Exp,3.0.7,60.06240483833974,
video/Experiment/zh_sp07_Ad_Ro_2_NVocInAudio_NoVideo.avi,vocoded,noVideo,sp07,Ad,Ro,2,1,2,flow/blocks/NVocInAudio_NoVideo_A.csv,,,,,,,,,0,1,1,1,0,7,7,9,,,,,,,,,-0.3819444444444444,0.32685185185185184,1,0,0,4.544953499978874,call1,0.005555555555555556,-0.12037037037037036,1,0,0,5.066512399993371,colour3,0.4166666666666667,0.09212962962962963,1,0,0,5.523174299974926,number2,True,True,True,25,5,2019_Nov_15_1712,MA_Theta_Exp,3.0.7,60.06240483833974,
video/Experiment/zh_sp01_Dr_We_4_NVocInAudio_NoVideo.avi,vocoded,noVideo,sp01,Dr,We,4,1,2,flow/blocks/NVocInAudio_NoVideo_A.csv,,,,,,,,,0,1,1,1,0,8,8,31,,,,,,,,,-0.3819444444444444,0.0962962962962963,1,0,0,5.241619800042827,call2,0.009722222222222222,-0.34814814814814815,1,0,0,5.805328499991447,colour4,0.40694444444444444,-0.29814814814814816,1,0,0,6.219043099961709,number4,True,True,True,25,5,2019_Nov_15_1712,MA_Theta_Exp,3.0.7,60.06240483833974,
video/Experiment/zh_sp07_Dr_Ge_2_NVocInAudio_NoVideo.avi,vocoded,noVideo,sp07,Dr,Ge,2,1,2,flow/blocks/NVocInAudio_NoVideo_A.csv,,,,,,,,,0,1,1,1,0,9,9,17,,,,,,,,,-0.4097222222222222,0.12962962962962962,1,0,0,4.441109899955336,call2,-0.03333333333333333,0.2865740740740741,1,0,0,4.910658199980389,colour1,0.39444444444444443,0.10601851851851851,1,0,0,5.378055999986827,number2,True,True,True,25,5,2019_Nov_15_1712,MA_Theta_Exp,3.0.7,60.06240483833974,
video/Experiment/zh_sp07_Dr_Gr_3_NVocInAudio_NoVideo.avi,vocoded,noVideo,sp07,Dr,Gr,3,1,2,flow/blocks/NVocInAudio_NoVideo_A.csv,,,,,,,,,0,1,1,1,0,10,10,22,,,,,,,,,-0.40555555555555556,0.09907407407407408,1,0,0,4.988403700001072,call2,0.022222222222222223,0.10462962962962963,1,0,0,5.509473500016611,colour2,0.4013888888888889,-0.11203703703703703,1,0,0,6.0221707000164315,number3,True,True,True,25,5,2019_Nov_15_1712,MA_Theta_Exp,3.0.7,60.06240483833974,
video/Experiment/zh_sp01_Ad_We_3_NVocInAudio_NoVideo.avi,vocoded,noVideo,sp01,Ad,We,3,1,2,flow/blocks/NVocInAudio_NoVideo_A.csv,,,,,,,,,0,1,1,1,0,11,11,14,,,,,,,,,-0.3819444444444444,0.1337962962962963,1,0,0,5.449794799962547,call2,0.020833333333333332,-0.3189814814814815,1,0,0,7.888961100019515,colour4,0.4027777777777778,-0.12037037037037036,1,0,0,8.339205699972808,number3,False,True,True,25,5,2019_Nov_15_1712,MA_Theta_Exp,3.0.7,60.06240483833974,
video/Experiment/zh_sp01_Ad_Gr_4_NVocInAudio_NoVideo.avi,vocoded,noVideo,sp01,Ad,Gr,4,1,2,flow/blocks/NVocInAudio_NoVideo_A.csv,,,,,,,,,0,1,1,1,0,12,12,7,,,,,,,,,-0.37222222222222223,0.3143518518518518,1,0,0,4.974122400046326,call1,-0.005555555555555556,0.08796296296296297,1,0,0,5.4392707999795675,colour2,0.40694444444444444,-0.31203703703703706,1,0,0,5.921089399955235,number4,True,True,True,25,5,2019_Nov_15_1712,MA_Theta_Exp,3.0.7,60.06240483833974,
video/Experiment/zh_sp07_Ad_Gr_1_NVocInAudio_NoVideo.avi,vocoded,noVideo,sp07,Ad,Gr,1,1,2,flow/blocks/NVocInAudio_NoVideo_A.csv,,,,,,,,,0,1,1,1,0,13,13,4,,,,,,,,,-0.39861111111111114,0.3087962962962963,1,0,0,5.140864699962549,call1,0.03194444444444444,0.05185185185185185,1,0,0,5.62236480001593,colour2,0.45555555555555555,0.31574074074074077,1,0,0,6.096942399977706,number1,True,True,True,25,5,2019_Nov_15_1712,MA_Theta_Exp,3.0.7,60.06240483833974,
video/Experiment/zh_sp07_Ad_We_1_NVocInAudio_NoVideo.avi,vocoded,noVideo,sp07,Ad,We,1,1,2,flow/blocks/NVocInAudio_NoVideo_A.csv,,,,,,,,,0,1,1,1,0,14,14,12,,,,,,,,,-0.38055555555555554,0.3212962962962963,1,0,0,4.55606460000854,call1,0.016666666666666666,-0.3162037037037037,1,0,0,5.126840999990236,colour4,0.38055555555555554,0.2740740740740741,1,0,0,5.638660199998412,number1,True,True,True,25,5,2019_Nov_15_1712,MA_Theta_Exp,3.0.7,60.06240483833974,
video/Experiment/zh_sp07_Dr_We_2_NVocInAudio_NoVideo.avi,vocoded,noVideo,sp07,Dr,We,2,1,2,flow/blocks/NVocInAudio_NoVideo_A.csv,,,,,,,,,0,1,1,1,0,15,15,29,,,,,,,,,-0.4236111111111111,0.1087962962962963,1,0,0,4.766661400033627,call2,0.005555555555555556,-0.337037037037037,1,0,0,5.367421299975831,colour4,0.37916666666666665,0.03935185185185185,1,0,0,5.847925000009127,number2,True,True,True,25,5,2019_Nov_15_1712,MA_Theta_Exp,3.0.7,60.06240483833974,
video/Experiment/zh_sp01_Dr_Ro_1_NVocInAudio_NoVideo.avi,vocoded,noVideo,sp01,Dr,Ro,1,1,2,flow/blocks/NVocInAudio_NoVideo_A.csv,,,,,,,,,0,1,1,1,0,16,16,24,,,,,,,,,-0.40694444444444444,0.11851851851851852,1,0,0,5.748116700036917,call2,-0.025,-0.09675925925925925,1,0,0,6.133768500003498,colour3,0.40694444444444444,0.2949074074074074,1,0,0,6.603508700034581,number1,True,True,True,25,5,2019_Nov_15_1712,MA_Theta_Exp,3.0.7,60.06240483833974,
video/Experiment/zh_sp07_Ad_Ge_4_NVocInAudio_NoVideo.avi,vocoded,noVideo,sp07,Ad,Ge,4,1,2,flow/blocks/NVocInAudio_NoVideo_A.csv,,,,,,,,,0,1,1,1,0,17,17,3,,,,,,,,,-0.40555555555555556,0.33101851851851855,1,0,0,4.505089499987662,call1,-0.009722222222222222,0.2949074074074074,1,0,0,4.8859706000075676,colour1,0.39444444444444443,-0.29953703703703705,1,0,0,5.402758900017943,number4,True,True,True,25,5,2019_Nov_15_1712,MA_Theta_Exp,3.0.7,60.06240483833974,
video/Experiment/zh_sp01_Ad_Ge_3_NVocInAudio_NoVideo.avi,vocoded,noVideo,sp01,Ad,Ge,3,1,2,flow/blocks/NVocInAudio_NoVideo_A.csv,,,,,,,,,0,1,1,1,0,18,18,2,,,,,,,,,-0.3972222222222222,0.300462962962963,1,0,0,5.11888419999741,call1,0.05416666666666667,0.28379629629629627,1,0,0,5.496392999950331,colour1,0.42083333333333334,-0.15787037037037038,1,0,0,6.115346800012048,number3,True,True,True,25,5,2019_Nov_15_1712,MA_Theta_Exp,3.0.7,60.06240483833974,
video/Experiment/zh_sp01_Ad_We_2_NVocInAudio_NoVideo.avi,vocoded,noVideo,sp01,Ad,We,2,1,2,flow/blocks/NVocInAudio_NoVideo_A.csv,,,,,,,,,0,1,1,1,0,19,19,13,,,,,,,,,-0.44027777777777777,0.31851851851851853,1,0,0,5.046706599998288,call1,0.009722222222222222,-0.28425925925925927,1,0,0,5.774494499957655,colour4,0.4013888888888889,0.10601851851851851,1,0,0,6.311545300006401,number2,True,True,True,25,5,2019_Nov_15_1712,MA_Theta_Exp,3.0.7,60.06240483833974,
video/Experiment/zh_sp07_Dr_Ge_3_NVocInAudio_NoVideo.avi,vocoded,noVideo,sp07,Dr,Ge,3,1,2,flow/blocks/NVocInAudio_NoVideo_A.csv,,,,,,,,,0,1,1,1,0,20,20,18,,,,,,,,,-0.4027777777777778,0.10324074074074074,1,0,0,4.603318499983288,call2,-0.016666666666666666,0.3212962962962963,1,0,0,5.137407499947585,colour1,0.37222222222222223,-0.11203703703703703,1,0,0,5.545867500011809,number3,True,True,True,25,5,2019_Nov_15_1712,MA_Theta_Exp,3.0.7,60.06240483833974,
video/Experiment/zh_sp01_Ad_Ge_2_NVocInAudio_NoVideo.avi,vocoded,noVideo,sp01,Ad,Ge,2,1,2,flow/blocks/NVocInAudio_NoVideo_A.csv,,,,,,,,,0,1,1,1,0,21,21,1,,,,,,,,,-0.3861111111111111,0.3143518518518518,1,0,0,5.023061999992933,call1,0.0,0.2712962962962963,1,0,0,5.405998800008092,colour1,0.46944444444444444,0.056018518518518516,1,0,0,5.8400888000032865,number2,True,True,True,25,5,2019_Nov_15_1712,MA_Theta_Exp,3.0.7,60.06240483833974,
video/Experiment/zh_sp01_Ad_Ro_3_NVocInAudio_NoVideo.avi,vocoded,noVideo,sp01,Ad,Ro,3,1,2,flow/blocks/NVocInAudio_NoVideo_A.csv,,,,,,,,,0,1,1,1,0,22,22,10,,,,,,,,,-0.4027777777777778,0.30462962962962964,1,0,0,5.104211399971973,call1,0.020833333333333332,0.31296296296296294,1,0,0,5.580998199991882,colour1,0.37083333333333335,-0.08981481481481482,1,0,0,6.075029700004961,number3,True,False,True,25,5,2019_Nov_15_1712,MA_Theta_Exp,3.0.7,60.06240483833974,
video/Experiment/zh_sp07_Dr_Gr_2_NVocInAudio_NoVideo.avi,vocoded,noVideo,sp07,Dr,Gr,2,1,2,flow/blocks/NVocInAudio_NoVideo_A.csv,,,,,,,,,0,1,1,1,0,23,23,21,,,,,,,,,-0.3277777777777778,0.07824074074074074,1,0,0,4.500237100000959,call2,0.06527777777777778,0.09351851851851851,1,0,0,4.9341558999731205,colour2,0.36666666666666664,0.11018518518518519,1,0,0,5.380668599973433,number2,True,True,True,25,5,2019_Nov_15_1712,MA_Theta_Exp,3.0.7,60.06240483833974,
video/Experiment/zh_sp07_Ad_Ro_4_NVocInAudio_NoVideo.avi,vocoded,noVideo,sp07,Ad,Ro,4,1,2,flow/blocks/NVocInAudio_NoVideo_A.csv,,,,,,,,,0,1,1,1,0,24,24,11,,,,,,,,,-0.37916666666666665,0.2962962962962963,1,0,0,4.3770323999924585,call1,-0.006944444444444444,-0.08981481481481482,1,0,0,4.844292099995073,colour3,0.44583333333333336,-0.3592592592592593,1,0,0,5.277164300030563,number4,True,True,True,25,5,2019_Nov_15_1712,MA_Theta_Exp,3.0.7,60.06240483833974,
video/Experiment/zh_sp07_Ad_Ge_1_NVocInAudio_NoVideo.avi,vocoded,noVideo,sp07,Ad,Ge,1,1,2,flow/blocks/NVocInAudio_NoVideo_A.csv,,,,,,,,,0,1,1,1,0,25,25,0,,,,,,,,,-0.40555555555555556,0.3296296296296296,1,0,0,4.477176200016402,call1,-0.029166666666666667,0.31157407407407406,1,0,0,4.9759608000167646,colour1,0.39166666666666666,0.300462962962963,1,0,0,5.415109099994879,number1,True,True,True,25,5,2019_Nov_15_1712,MA_Theta_Exp,3.0.7,60.06240483833974,
video/Experiment/zh_sp07_Dr_Gr_1_NVocInAudio_NoVideo.avi,vocoded,noVideo,sp07,Dr,Gr,1,1,2,flow/blocks/NVocInAudio_NoVideo_A.csv,,,,,,,,,0,1,1,1,0,26,26,20,,,,,,,,,-0.36944444444444446,0.12546296296296297,1,0,0,4.764729599992279,call2,-0.006944444444444444,0.07962962962962963,1,0,0,5.178851000033319,colour2,0.3888888888888889,0.27824074074074073,1,0,0,5.597386299981736,number1,True,True,True,25,5,2019_Nov_15_1712,MA_Theta_Exp,3.0.7,60.06240483833974,
video/Experiment/zh_sp01_Dr_Ro_4_NVocInAudio_NoVideo.avi,vocoded,noVideo,sp01,Dr,Ro,4,1,2,flow/blocks/NVocInAudio_NoVideo_A.csv,,,,,,,,,0,1,1,1,0,27,27,27,,,,,,,,,-0.3611111111111111,0.1087962962962963,1,0,0,5.243259700015187,call2,0.019444444444444445,-0.08287037037037037,1,0,0,5.711983599991072,colour3,0.4041666666666667,-0.3398148148148148,1,0,0,6.143445800000336,number4,True,True,True,25,5,2019_Nov_15_1712,MA_Theta_Exp,3.0.7,60.06240483833974,
video/Experiment/zh_sp01_Ad_We_4_NVocInAudio_NoVideo.avi,vocoded,noVideo,sp01,Ad,We,4,1,2,flow/blocks/NVocInAudio_NoVideo_A.csv,,,,,,,,,0,1,1,1,0,28,28,15,,,,,,,,,-0.40694444444444444,0.287962962962963,1,0,0,4.895643799973186,call1,-0.013888888888888888,-0.29259259259259257,1,0,0,5.455732700007502,colour4,0.39444444444444443,-0.30787037037037035,1,0,0,5.828853799961507,number4,True,True,True,25,5,2019_Nov_15_1712,MA_Theta_Exp,3.0.7,60.06240483833974,
video/Experiment/zh_sp07_Dr_Ro_2_NVocInAudio_NoVideo.avi,vocoded,noVideo,sp07,Dr,Ro,2,1,2,flow/blocks/NVocInAudio_NoVideo_A.csv,,,,,,,,,0,1,1,1,0,29,29,25,,,,,,,,,-0.38055555555555554,0.07824074074074074,1,0,0,4.482126499991864,call2,-0.043055555555555555,-0.11342592592592593,1,0,0,4.918026699975599,colour3,0.44305555555555554,0.09907407407407408,1,0,0,5.412738300045021,number2,True,True,True,25,5,2019_Nov_15_1712,MA_Theta_Exp,3.0.7,60.06240483833974,
video/Experiment/zh_sp07_Ad_Ro_1_NVocInAudio_NoVideo.avi,vocoded,noVideo,sp07,Ad,Ro,1,1,2,flow/blocks/NVocInAudio_NoVideo_A.csv,,,,,,,,,0,1,1,1,0,30,30,8,,,,,,,,,-0.3902777777777778,0.07685185185185185,1,0,0,4.373074200004339,call2,-0.07222222222222222,-0.055092592592592596,1,0,0,4.734147000010125,colour3,0.4,0.3351851851851852,1,0,0,5.269815099949483,number1,False,True,True,25,5,2019_Nov_15_1712,MA_Theta_Exp,3.0.7,60.06240483833974,
video/Experiment/zh_sp01_Dr_We_3_NVocInAudio_NoVideo.avi,vocoded,noVideo,sp01,Dr,We,3,1,2,flow/blocks/NVocInAudio_NoVideo_A.csv,,,,,,,,,0,1,1,1,0,31,31,30,,,,,,,,,-0.39305555555555555,0.09212962962962963,1,0,0,5.068840000021737,call2,0.005555555555555556,-0.3175925925925926,1,0,0,5.5458769999677315,colour4,0.4097222222222222,-0.08287037037037037,1,0,0,6.057873599987943,number3,True,True,True,25,5,2019_Nov_15_1712,MA_Theta_Exp,3.0.7,60.06240483833974,
video/Experiment/zh_sp07_Dr_Gr_1_NoThetaInAudio_GlobalThetaInVideo.avi,noTheta,plusVideo,sp07,Dr,Gr,1,2,3,flow/blocks/NoThetaInAudio_GlobalThetaInVideo_A.csv,,,,,,,,,0,2,2,2,0,0,0,20,,,,,,,,,-0.375,0.09351851851851851,1,0,0,4.83106840000255,call2,0.009722222222222222,0.11157407407407408,1,0,0,5.298847799946088,colour2,0.3958333333333333,0.3212962962962963,1,0,0,5.718866300012451,number1,True,True,True,25,5,2019_Nov_15_1712,MA_Theta_Exp,3.0.7,60.06240483833974,
video/Experiment/zh_sp01_Dr_Ge_3_NoThetaInAudio_GlobalThetaInVideo.avi,noTheta,plusVideo,sp01,Dr,Ge,3,2,3,flow/blocks/NoThetaInAudio_GlobalThetaInVideo_A.csv,,,,,,,,,0,2,2,2,0,1,1,18,,,,,,,,,-0.37916666666666665,0.1087962962962963,1,0,0,4.990000999998301,call2,0.006944444444444444,0.28935185185185186,1,0,0,5.406688000017311,colour1,0.4083333333333333,-0.14953703703703702,1,0,0,5.86353400000371,number3,True,True,True,25,5,2019_Nov_15_1712,MA_Theta_Exp,3.0.7,60.06240483833974,
video/Experiment/zh_sp07_Ad_Ge_1_NoThetaInAudio_GlobalThetaInVideo.avi,noTheta,plusVideo,sp07,Ad,Ge,1,2,3,flow/blocks/NoThetaInAudio_GlobalThetaInVideo_A.csv,,,,,,,,,0,2,2,2,0,2,2,0,,,,,,,,,-0.3819444444444444,0.30324074074074076,1,0,0,4.791824900021311,call1,0.04722222222222222,0.300462962962963,1,0,0,5.290175499976613,colour1,0.3888888888888889,0.31574074074074077,1,0,0,5.685551999951713,number1,True,True,True,25,5,2019_Nov_15_1712,MA_Theta_Exp,3.0.7,60.06240483833974,
video/Experiment/zh_sp07_Dr_Ro_3_NoThetaInAudio_GlobalThetaInVideo.avi,noTheta,plusVideo,sp07,Dr,Ro,3,2,3,flow/blocks/NoThetaInAudio_GlobalThetaInVideo_A.csv,,,,,,,,,0,2,2,2,0,3,3,26,,,,,,,,,-0.3763888888888889,0.28935185185185186,1,0,0,4.366510899970308,call1,0.002777777777777778,-0.13148148148148148,1,0,0,4.828965000051539,colour3,0.48333333333333334,-0.10092592592592593,1,0,0,5.231109199987259,number3,False,True,True,25,5,2019_Nov_15_1712,MA_Theta_Exp,3.0.7,60.06240483833974,
video/Experiment/zh_sp07_Dr_Gr_4_NoThetaInAudio_GlobalThetaInVideo.avi,noTheta,plusVideo,sp07,Dr,Gr,4,2,3,flow/blocks/NoThetaInAudio_GlobalThetaInVideo_A.csv,,,,,,,,,0,2,2,2,0,4,4,23,,,,,,,,,-0.4041666666666667,0.10324074074074074,1,0,0,4.410373600025196,call2,0.002777777777777778,0.07268518518518519,1,0,0,5.178438399976585,colour2,0.3597222222222222,-0.1175925925925926,1,0,0,5.715150600008201,number3,True,True,False,25,5,2019_Nov_15_1712,MA_Theta_Exp,3.0.7,60.06240483833974,
video/Experiment/zh_sp01_Dr_Ge_4_NoThetaInAudio_GlobalThetaInVideo.avi,noTheta,plusVideo,sp01,Dr,Ge,4,2,3,flow/blocks/NoThetaInAudio_GlobalThetaInVideo_A.csv,,,,,,,,,0,2,2,2,0,5,5,19,,,,,,,,,-0.37916666666666665,0.10324074074074074,1,0,0,5.317443599982653,call2,0.05,0.2935185185185185,1,0,0,5.844759999949019,colour1,0.4236111111111111,-0.29814814814814816,1,0,0,6.687443500035442,number4,True,True,True,25,5,2019_Nov_15_1712,MA_Theta_Exp,3.0.7,60.06240483833974,
video/Experiment/zh_sp07_Ad_We_1_NoThetaInAudio_GlobalThetaInVideo.avi,noTheta,plusVideo,sp07,Ad,We,1,2,3,flow/blocks/NoThetaInAudio_GlobalThetaInVideo_A.csv,,,,,,,,,0,2,2,2,0,6,6,12,,,,,,,,,-0.3875,0.2962962962962963,1,0,0,5.156059600005392,call1,0.029166666666666667,-0.2967592592592593,1,0,0,5.7065796999959275,colour4,0.4027777777777778,0.287962962962963,1,0,0,6.336184899962973,number1,True,True,True,25,5,2019_Nov_15_1712,MA_Theta_Exp,3.0.7,60.06240483833974,
video/Experiment/zh_sp07_Ad_We_2_NoThetaInAudio_GlobalThetaInVideo.avi,noTheta,plusVideo,sp07,Ad,We,2,2,3,flow/blocks/NoThetaInAudio_GlobalThetaInVideo_A.csv,,,,,,,,,0,2,2,2,0,7,7,13,,,,,,,,,-0.3819444444444444,0.2810185185185185,1,0,0,4.765084200014826,call1,0.0375,-0.32314814814814813,1,0,0,5.530219899956137,colour4,0.39166666666666666,0.08101851851851852,1,0,0,6.044977000041399,number2,True,True,True,25,5,2019_Nov_15_1712,MA_Theta_Exp,3.0.7,60.06240483833974,
video/Experiment/zh_sp01_Ad_Ge_3_NoThetaInAudio_GlobalThetaInVideo.avi,noTheta,plusVideo,sp01,Ad,Ge,3,2,3,flow/blocks/NoThetaInAudio_GlobalThetaInVideo_A.csv,,,,,,,,,0,2,2,2,0,8,8,2,,,,,,,,,-0.38055555555555554,0.29768518518518516,1,0,0,4.910628799989354,call1,0.0125,0.3199074074074074,1,0,0,5.325179400038905,colour1,0.39444444444444443,-0.11203703703703703,1,0,0,5.796460899990052,number3,True,True,True,25,5,2019_Nov_15_1712,MA_Theta_Exp,3.0.7,60.06240483833974,
video/Experiment/zh_sp01_Dr_Gr_3_NoThetaInAudio_GlobalThetaInVideo.avi,noTheta,plusVideo,sp01,Dr,Gr,3,2,3,flow/blocks/NoThetaInAudio_GlobalThetaInVideo_A.csv,,,,,,,,,0,2,2,2,0,9,9,22,,,,,,,,,-0.37916666666666665,0.10601851851851851,1,0,0,5.101795299968217,call2,0.006944444444444444,0.10324074074074074,1,0,0,5.547428300022148,colour2,0.3625,-0.14537037037037037,1,0,0,5.966064199979883,number3,True,True,True,25,5,2019_Nov_15_1712,MA_Theta_Exp,3.0.7,60.06240483833974,
video/Experiment/zh_sp01_Ad_Gr_2_NoThetaInAudio_GlobalThetaInVideo.avi,noTheta,plusVideo,sp01,Ad,Gr,2,2,3,flow/blocks/NoThetaInAudio_GlobalThetaInVideo_A.csv,,,,,,,,,0,2,2,2,0,10,10,5,,,,,,,,,-0.37777777777777777,0.31157407407407406,1,0,0,5.261500899970997,call1,0.029166666666666667,0.13240740740740742,1,0,0,5.631423000013456,colour2,0.4111111111111111,0.09907407407407408,1,0,0,6.028725099982694,number2,True,True,True,25,5,2019_Nov_15_1712,MA_Theta_Exp,3.0.7,60.06240483833974,
video/Experiment/zh_sp01_Ad_Ro_2_NoThetaInAudio_GlobalThetaInVideo.avi,noTheta,plusVideo,sp01,Ad,Ro,2,2,3,flow/blocks/NoThetaInAudio_GlobalThetaInVideo_A.csv,,,,,,,,,0,2,2,2,0,11,11,9,,,,,,,,,-0.39861111111111114,0.11296296296296296,1,0,0,5.267676000017673,call2,0.03333333333333333,-0.13842592592592592,1,0,0,5.651729699980933,colour3,0.44027777777777777,0.0837962962962963,1,0,0,6.0634865000029095,number2,False,True,True,25,5,2019_Nov_15_1712,MA_Theta_Exp,3.0.7,60.06240483833974,
video/Experiment/zh_sp07_Ad_We_4_NoThetaInAudio_GlobalThetaInVideo.avi,noTheta,plusVideo,sp07,Ad,We,4,2,3,flow/blocks/NoThetaInAudio_GlobalThetaInVideo_A.csv,,,,,,,,,0,2,2,2,0,12,12,15,,,,,,,,,-0.39444444444444443,0.2851851851851852,1,0,0,4.841021400003228,call1,0.001388888888888889,-0.31203703703703706,1,0,0,5.324285700044129,colour4,0.3638888888888889,-0.324537037037037,1,0,0,5.658235099981539,number4,True,True,True,25,5,2019_Nov_15_1712,MA_Theta_Exp,3.0.7,60.06240483833974,
video/Experiment/zh_sp07_Ad_We_3_NoThetaInAudio_GlobalThetaInVideo.avi,noTheta,plusVideo,sp07,Ad,We,3,2,3,flow/blocks/NoThetaInAudio_GlobalThetaInVideo_A.csv,,,,,,,,,0,2,2,2,0,13,13,14,,,,,,,,,-0.3611111111111111,0.3060185185185185,1,0,0,4.753600900003221,call1,0.013888888888888888,-0.2967592592592593,1,0,0,5.333331299945712,colour4,0.4166666666666667,-0.17592592592592593,1,0,0,5.900665600027423,number3,True,True,True,25,5,2019_Nov_15_1712,MA_Theta_Exp,3.0.7,60.06240483833974,
video/Experiment/zh_sp01_Ad_Gr_3_NoThetaInAudio_GlobalThetaInVideo.avi,noTheta,plusVideo,sp01,Ad,Gr,3,2,3,flow/blocks/NoThetaInAudio_GlobalThetaInVideo_A.csv,,,,,,,,,0,2,2,2,0,14,14,6,,,,,,,,,-0.3625,0.30462962962962964,1,0,0,4.9814737000269815,call1,-0.005555555555555556,0.13935185185185187,1,0,0,5.374752399977297,colour2,0.41805555555555557,-0.10231481481481482,1,0,0,5.792463599995244,number3,True,True,True,25,5,2019_Nov_15_1712,MA_Theta_Exp,3.0.7,60.06240483833974,
video/Experiment/zh_sp01_Ad_Ge_4_NoThetaInAudio_GlobalThetaInVideo.avi,noTheta,plusVideo,sp01,Ad,Ge,4,2,3,flow/blocks/NoThetaInAudio_GlobalThetaInVideo_A.csv,,,,,,,,,0,2,2,2,0,15,15,3,,,,,,,,,-0.3958333333333333,0.31157407407407406,1,0,0,5.185957600013353,call1,0.019444444444444445,0.2962962962962963,1,0,0,5.587976199982222,colour1,0.4,-0.30787037037037035,1,0,0,6.236254699993879,number4,True,True,True,25,5,2019_Nov_15_1712,MA_Theta_Exp,3.0.7,60.06240483833974,
video/Experiment/zh_sp07_Ad_Gr_4_NoThetaInAudio_GlobalThetaInVideo.avi,noTheta,plusVideo,sp07,Ad,Gr,4,2,3,flow/blocks/NoThetaInAudio_GlobalThetaInVideo_A.csv,,,,,,,,,0,2,2,2,0,16,16,7,,,,,,,,,-0.3888888888888889,0.0962962962962963,1,0,0,4.548406700021587,call2,-0.009722222222222222,0.07962962962962963,1,0,0,5.000750900013372,colour2,0.45555555555555555,-0.2898148148148148,1,0,0,5.433297399955336,number4,False,True,True,25,5,2019_Nov_15_1712,MA_Theta_Exp,3.0.7,60.06240483833974,
video/Experiment/zh_sp07_Dr_Ro_4_NoThetaInAudio_GlobalThetaInVideo.avi,noTheta,plusVideo,sp07,Dr,Ro,4,2,3,flow/blocks/NoThetaInAudio_GlobalThetaInVideo_A.csv,,,,,,,,,0,2,2,2,0,17,17,27,,,,,,,,,-0.3819444444444444,0.08518518518518518,1,0,0,4.430696399998851,call2,-0.06527777777777778,-0.1300925925925926,1,0,0,4.863562100043055,colour3,0.44305555555555554,-0.31342592592592594,1,0,0,5.296972699987236,number4,True,True,True,25,5,2019_Nov_15_1712,MA_Theta_Exp,3.0.7,60.06240483833974,
video/Experiment/zh_sp01_Ad_Gr_1_NoThetaInAudio_GlobalThetaInVideo.avi,noTheta,plusVideo,sp01,Ad,Gr,1,2,3,flow/blocks/NoThetaInAudio_GlobalThetaInVideo_A.csv,,,,,,,,,0,2,2,2,0,18,18,4,,,,,,,,,-0.4236111111111111,0.3143518518518518,1,0,0,5.262414900003932,call1,-0.034722222222222224,0.08101851851851852,1,0,0,5.685235200042371,colour2,0.4125,0.29907407407407405,1,0,0,6.114939599996433,number1,True,True,True,25,5,2019_Nov_15_1712,MA_Theta_Exp,3.0.7,60.06240483833974,
video/Experiment/zh_sp01_Dr_We_3_NoThetaInAudio_GlobalThetaInVideo.avi,noTheta,plusVideo,sp01,Dr,We,3,2,3,flow/blocks/NoThetaInAudio_GlobalThetaInVideo_A.csv,,,,,,,,,0,2,2,2,0,19,19,30,,,,,,,,,-0.3736111111111111,0.08518518518518518,1,0,0,5.143866400001571,call2,0.02638888888888889,-0.31203703703703706,1,0,0,5.69151850003982,colour4,0.3819444444444444,-0.1162037037037037,1,0,0,6.104084699996747,number3,True,True,True,25,5,2019_Nov_15_1712,MA_Theta_Exp,3.0.7,60.06240483833974,
video/Experiment/zh_sp01_Ad_Ro_4_NoThetaInAudio_GlobalThetaInVideo.avi,noTheta,plusVideo,sp01,Ad,Ro,4,2,3,flow/blocks/NoThetaInAudio_GlobalThetaInVideo_A.csv,,,,,,,,,0,2,2,2,0,20,20,11,,,,,,,,,-0.37777777777777777,0.31574074074074077,1,0,0,4.992015399970114,call1,-0.005555555555555556,-0.14537037037037037,1,0,0,5.440806400030851,colour3,0.4152777777777778,-0.324537037037037,1,0,0,5.874177699966822,number4,True,True,True,25,5,2019_Nov_15_1712,MA_Theta_Exp,3.0.7,60.06240483833974,
video/Experiment/zh_sp07_Ad_Ro_1_NoThetaInAudio_GlobalThetaInVideo.avi,noTheta,plusVideo,sp07,Ad,Ro,1,2,3,flow/blocks/NoThetaInAudio_GlobalThetaInVideo_A.csv,,,,,,,,,0,2,2,2,0,21,21,8,,,,,,,,,-0.3888888888888889,0.2949074074074074,1,0,0,4.42839830002049,call1,-0.03611111111111111,-0.09259259259259259,1,0,0,4.846290999965277,colour3,0.41388888888888886,0.2949074074074074,1,0,0,5.332756699994206,number1,True,True,True,25,5,2019_Nov_15_1712,MA_Theta_Exp,3.0.7,60.06240483833974,
video/Experiment/zh_sp07_Dr_We_2_NoThetaInAudio_GlobalThetaInVideo.avi,noTheta,plusVideo,sp07,Dr,We,2,2,3,flow/blocks/NoThetaInAudio_GlobalThetaInVideo_A.csv,,,,,,,,,0,2,2,2,0,22,22,29,,,,,,,,,-0.3958333333333333,0.08935185185185185,1,0,0,4.920939399977215,call2,-0.002777777777777778,-0.34120370370370373,1,0,0,5.415882999950554,colour4,0.3472222222222222,0.03796296296296296,1,0,0,5.921245000034105,number2,True,True,True,25,5,2019_Nov_15_1712,MA_Theta_Exp,3.0.7,60.06240483833974,
video/Experiment/zh_sp01_Dr_Ro_2_NoThetaInAudio_GlobalThetaInVideo.avi,noTheta,plusVideo,sp01,Dr,Ro,2,2,3,flow/blocks/NoThetaInAudio_GlobalThetaInVideo_A.csv,,,,,,,,,0,2,2,2,0,23,23,25,,,,,,,,,-0.3625,0.09490740740740741,1,0,0,5.7806807000306435,call2,-0.011111111111111112,-0.1162037037037037,1,0,0,6.211110599979293,colour3,0.42777777777777776,0.06712962962962964,1,0,0,6.695707100036088,number2,True,True,True,25,5,2019_Nov_15_1712,MA_Theta_Exp,3.0.7,60.06240483833974,
video/Experiment/zh_sp01_Ad_Ro_3_NoThetaInAudio_GlobalThetaInVideo.avi,noTheta,plusVideo,sp01,Ad,Ro,3,2,3,flow/blocks/NoThetaInAudio_GlobalThetaInVideo_A.csv,,,,,,,,,0,2,2,2,0,24,24,10,,,,,,,,,-0.3972222222222222,0.30185185185185187,1,0,0,5.085704799974337,call1,-0.018055555555555554,-0.060648148148148145,1,0,0,5.470207899983507,colour3,0.4305555555555556,-0.16203703703703703,1,0,0,6.018465700035449,number3,True,True,True,25,5,2019_Nov_15_1712,MA_Theta_Exp,3.0.7,60.06240483833974,
video/Experiment/zh_sp07_Dr_Ro_1_NoThetaInAudio_GlobalThetaInVideo.avi,noTheta,plusVideo,sp07,Dr,Ro,1,2,3,flow/blocks/NoThetaInAudio_GlobalThetaInVideo_A.csv,,,,,,,,,0,2,2,2,0,25,25,24,,,,,,,,,-0.4166666666666667,0.09351851851851851,1,0,0,4.634334600006696,call2,0.002777777777777778,-0.11481481481481481,1,0,0,5.0823394000181,colour3,0.3736111111111111,0.29907407407407405,1,0,0,5.561882000009064,number1,True,True,True,25,5,2019_Nov_15_1712,MA_Theta_Exp,3.0.7,60.06240483833974,
video/Experiment/zh_sp07_Dr_We_1_NoThetaInAudio_GlobalThetaInVideo.avi,noTheta,plusVideo,sp07,Dr,We,1,2,3,flow/blocks/NoThetaInAudio_GlobalThetaInVideo_A.csv,,,,,,,,,0,2,2,2,0,26,26,28,,,,,,,,,-0.3888888888888889,0.11435185185185186,1,0,0,4.593481400050223,call2,-0.018055555555555554,-0.274537037037037,1,0,0,5.042255999986082,colour4,0.4152777777777778,0.2949074074074074,1,0,0,5.659120599972084,number1,True,True,True,25,5,2019_Nov_15_1712,MA_Theta_Exp,3.0.7,60.06240483833974,
video/Experiment/zh_sp01_Dr_Gr_2_NoThetaInAudio_GlobalThetaInVideo.avi,noTheta,plusVideo,sp01,Dr,Gr,2,2,3,flow/blocks/NoThetaInAudio_GlobalThetaInVideo_A.csv,,,,,,,,,0,2,2,2,0,27,27,21,,,,,,,,,-0.3763888888888889,0.08935185185185185,1,0,0,5.150259900023229,call2,-0.004166666666666667,0.1087962962962963,1,0,0,5.511675699963234,colour2,0.4361111111111111,0.12824074074074074,1,0,0,6.1641034000203945,number2,True,True,True,25,5,2019_Nov_15_1712,MA_Theta_Exp,3.0.7,60.06240483833974,
video/Experiment/zh_sp07_Ad_Ge_2_NoThetaInAudio_GlobalThetaInVideo.avi,noTheta,plusVideo,sp07,Ad,Ge,2,2,3,flow/blocks/NoThetaInAudio_GlobalThetaInVideo_A.csv,,,,,,,,,0,2,2,2,0,28,28,1,,,,,,,,,-0.3875,0.32685185185185184,1,0,0,5.407648799999151,call1,-0.009722222222222222,0.3282407407407407,1,0,0,5.782195899984799,colour1,0.39444444444444443,0.07546296296296297,1,0,0,6.229421500000171,number2,True,True,True,25,5,2019_Nov_15_1712,MA_Theta_Exp,3.0.7,60.06240483833974,
video/Experiment/zh_sp07_Dr_Ge_1_NoThetaInAudio_GlobalThetaInVideo.avi,noTheta,plusVideo,sp07,Dr,Ge,1,2,3,flow/blocks/NoThetaInAudio_GlobalThetaInVideo_A.csv,,,,,,,,,0,2,2,2,0,29,29,16,,,,,,,,,-0.375,0.0962962962962963,1,0,0,4.421645499998704,call2,0.030555555555555555,0.30324074074074076,1,0,0,4.801246499991976,colour1,0.48333333333333334,0.3421296296296296,1,0,0,5.138667099992745,number1,True,True,True,25,5,2019_Nov_15_1712,MA_Theta_Exp,3.0.7,60.06240483833974,
video/Experiment/zh_sp01_Dr_Ge_2_NoThetaInAudio_GlobalThetaInVideo.avi,noTheta,plusVideo,sp01,Dr,Ge,2,2,3,flow/blocks/NoThetaInAudio_GlobalThetaInVideo_A.csv,,,,,,,,,0,2,2,2,0,30,30,17,,,,,,,,,-0.4083333333333333,0.10740740740740741,1,0,0,5.044539799971972,call2,0.022222222222222223,0.3351851851851852,1,0,0,5.493272899999283,colour1,0.46944444444444444,0.09212962962962963,1,0,0,5.879280799999833,number2,True,True,True,25,5,2019_Nov_15_1712,MA_Theta_Exp,3.0.7,60.06240483833974,
video/Experiment/zh_sp01_Dr_We_4_NoThetaInAudio_GlobalThetaInVideo.avi,noTheta,plusVideo,sp01,Dr,We,4,2,3,flow/blocks/NoThetaInAudio_GlobalThetaInVideo_A.csv,,,,,,,,,0,2,2,2,0,31,31,31,,,,,,,,,-0.3819444444444444,0.11990740740740741,1,0,0,4.876939699985087,call2,0.0375,-0.32037037037037036,1,0,0,5.599529400002211,colour4,0.36666666666666664,-0.30092592592592593,1,0,0,5.930429800006095,number4,True,True,True,25,5,2019_Nov_15_1712,MA_Theta_Exp,3.0.7,60.06240483833974,
video/Experiment/zh_sp07_Ad_We_4_GlobalTheta_NoVideo.avi,globalTheta,noVideo,sp07,Ad,We,4,3,5,flow/blocks/GlobalTheta_NoVideo_A.csv,,,,,,,,,0,3,3,3,0,0,0,15,,,,,,,,,-0.42916666666666664,0.32685185185185184,1,0,0,4.631529599952046,call1,-0.041666666666666664,-0.32175925925925924,1,0,0,5.163791000028141,colour4,0.35555555555555557,-0.32731481481481484,1,0,0,5.5119429000187665,number4,True,True,True,25,5,2019_Nov_15_1712,MA_Theta_Exp,3.0.7,60.06240483833974,
video/Experiment/zh_sp01_Ad_Ge_3_GlobalTheta_NoVideo.avi,globalTheta,noVideo,sp01,Ad,Ge,3,3,5,flow/blocks/GlobalTheta_NoVideo_A.csv,,,,,,,,,0,3,3,3,0,1,1,2,,,,,,,,,-0.4527777777777778,0.3101851851851852,1,0,0,4.79827839997597,call1,0.016666666666666666,0.31712962962962965,1,0,0,5.216414100024849,colour1,0.375,-0.1162037037037037,1,0,0,5.7145675999927334,number3,True,True,True,25,5,2019_Nov_15_1712,MA_Theta_Exp,3.0.7,60.06240483833974,
video/Experiment/zh_sp01_Ad_We_2_GlobalTheta_NoVideo.avi,globalTheta,noVideo,sp01,Ad,We,2,3,5,flow/blocks/GlobalTheta_NoVideo_A.csv,,,,,,,,,0,3,3,3,0,2,2,13,,,,,,,,,-0.38472222222222224,0.31851851851851853,1,0,0,5.282626900007017,call1,-0.002777777777777778,-0.29814814814814816,1,0,0,5.779467199987266,colour4,0.4222222222222222,0.14351851851851852,1,0,0,6.292887099960353,number2,True,True,True,25,5,2019_Nov_15_1712,MA_Theta_Exp,3.0.7,60.06240483833974,
video/Experiment/zh_sp07_Ad_Ro_1_GlobalTheta_NoVideo.avi,globalTheta,noVideo,sp07,Ad,Ro,1,3,5,flow/blocks/GlobalTheta_NoVideo_A.csv,,,,,,,,,0,3,3,3,0,3,3,8,,,,,,,,,-0.4222222222222222,0.09351851851851851,1,0,0,4.542809700011276,call2,0.005555555555555556,-0.14814814814814814,1,0,0,8.725997800007463,colour3,0.3861111111111111,0.30324074074074076,1,0,0,9.208609400026035,number1,False,True,True,25,5,2019_Nov_15_1712,MA_Theta_Exp,3.0.7,60.06240483833974,
video/Experiment/zh_sp07_Dr_We_3_GlobalTheta_NoVideo.avi,globalTheta,noVideo,sp07,Dr,We,3,3,5,flow/blocks/GlobalTheta_NoVideo_A.csv,,,,,,,,,0,3,3,3,0,4,4,30,,,,,,,,,-0.37083333333333335,0.30462962962962964,1,0,0,4.397909300052561,call1,-0.005555555555555556,-0.324537037037037,1,0,0,4.915313999983482,colour4,0.46111111111111114,-0.12175925925925926,1,0,0,5.302122599969152,number3,False,True,True,25,5,2019_Nov_15_1712,MA_Theta_Exp,3.0.7,60.06240483833974,
video/Experiment/zh_sp01_Ad_Ge_2_GlobalTheta_NoVideo.avi,globalTheta,noVideo,sp01,Ad,Ge,2,3,5,flow/blocks/GlobalTheta_NoVideo_A.csv,,,,,,,,,0,3,3,3,0,5,5,1,,,,,,,,,-0.3875,0.28935185185185186,1,0,0,5.624662199988961,call1,-0.011111111111111112,0.29212962962962963,1,0,0,6.024292999994941,colour1,0.4222222222222222,0.11574074074074074,1,0,0,6.409228299977258,number2,True,True,True,25,5,2019_Nov_15_1712,MA_Theta_Exp,3.0.7,60.06240483833974,
video/Experiment/zh_sp01_Dr_Ro_3_GlobalTheta_NoVideo.avi,globalTheta,noVideo,sp01,Dr,Ro,3,3,5,flow/blocks/GlobalTheta_NoVideo_A.csv,,,,,,,,,0,3,3,3,0,6,6,26,,,,,,,,,-0.3819444444444444,0.1087962962962963,1,0,0,5.044855199987069,call2,0.016666666666666666,-0.1439814814814815,1,0,0,5.558314200025052,colour3,0.33611111111111114,-0.10092592592592593,1,0,0,5.912636700028088,number3,True,True,True,25,5,2019_Nov_15_1712,MA_Theta_Exp,3.0.7,60.06240483833974,
video/Experiment/zh_sp07_Dr_Ge_1_GlobalTheta_NoVideo.avi,globalTheta,noVideo,sp07,Dr,Ge,1,3,5,flow/blocks/GlobalTheta_NoVideo_A.csv,,,,,,,,,0,3,3,3,0,7,7,16,,,,,,,,,-0.40694444444444444,0.2740740740740741,1,0,0,4.286923700012267,call1,-0.04027777777777778,0.29768518518518516,1,0,0,4.679900599992834,colour1,0.45,0.3435185185185185,1,0,0,5.0515854000113904,number1,False,True,True,25,5,2019_Nov_15_1712,MA_Theta_Exp,3.0.7,60.06240483833974,
video/Experiment/zh_sp01_Ad_Ro_4_GlobalTheta_NoVideo.avi,globalTheta,noVideo,sp01,Ad,Ro,4,3,5,flow/blocks/GlobalTheta_NoVideo_A.csv,,,,,,,,,0,3,3,3,0,8,8,11,,,,,,,,,-0.35694444444444445,0.2824074074074074,1,0,0,5.028161199996248,call1,-0.029166666666666667,-0.1162037037037037,1,0,0,5.495610999991186,colour3,0.43472222222222223,-0.3314814814814815,1,0,0,5.945492199971341,number4,True,True,True,25,5,2019_Nov_15_1712,MA_Theta_Exp,3.0.7,60.06240483833974,
video/Experiment/zh_sp07_Ad_Gr_4_GlobalTheta_NoVideo.avi,globalTheta,noVideo,sp07,Ad,Gr,4,3,5,flow/blocks/GlobalTheta_NoVideo_A.csv,,,,,,,,,0,3,3,3,0,9,9,7,,,,,,,,,-0.4,0.31574074074074077,1,0,0,4.2928763999952935,call1,-0.025,0.1449074074074074,1,0,0,4.723448999982793,colour2,0.39861111111111114,-0.3300925925925926,1,0,0,5.158157299971208,number4,True,True,True,25,5,2019_Nov_15_1712,MA_Theta_Exp,3.0.7,60.06240483833974,
video/Experiment/zh_sp01_Dr_Gr_3_GlobalTheta_NoVideo.avi,globalTheta,noVideo,sp01,Dr,Gr,3,3,5,flow/blocks/GlobalTheta_NoVideo_A.csv,,,,,,,,,0,3,3,3,0,10,10,22,,,,,,,,,-0.4027777777777778,0.09490740740740741,1,0,0,4.840035300003365,call2,-0.001388888888888889,0.07824074074074074,1,0,0,5.277316600026097,colour2,0.42777777777777776,-0.12314814814814815,1,0,0,5.692488299973775,number3,True,True,True,25,5,2019_Nov_15_1712,MA_Theta_Exp,3.0.7,60.06240483833974,
video/Experiment/zh_sp07_Ad_Ro_3_GlobalTheta_NoVideo.avi,globalTheta,noVideo,sp07,Ad,Ro,3,3,5,flow/blocks/GlobalTheta_NoVideo_A.csv,,,,,,,,,0,3,3,3,0,11,11,10,,,,,,,,,-0.3888888888888889,0.2949074074074074,1,0,0,5.371386900020298,call1,0.002777777777777778,0.13518518518518519,1,0,0,5.78599010000471,colour2,0.3388888888888889,-0.12731481481481483,1,0,0,6.182962899969425,number3,True,False,True,25,5,2019_Nov_15_1712,MA_Theta_Exp,3.0.7,60.06240483833974,
video/Experiment/zh_sp01_Dr_We_1_GlobalTheta_NoVideo.avi,globalTheta,noVideo,sp01,Dr,We,1,3,5,flow/blocks/GlobalTheta_NoVideo_A.csv,,,,,,,,,0,3,3,3,0,12,12,28,,,,,,,,,-0.3486111111111111,0.10324074074074074,1,0,0,5.011272499978077,call2,0.03888888888888889,-0.2800925925925926,1,0,0,5.464509399957024,colour4,0.41944444444444445,0.3143518518518518,1,0,0,5.998001500032842,number1,True,True,True,25,5,2019_Nov_15_1712,MA_Theta_Exp,3.0.7,60.06240483833974,
video/Experiment/zh_sp01_Dr_Ge_3_GlobalTheta_NoVideo.avi,globalTheta,noVideo,sp01,Dr,Ge,3,3,5,flow/blocks/GlobalTheta_NoVideo_A.csv,,,,,,,,,0,3,3,3,0,13,13,18,,,,,,,,,-0.4152777777777778,0.10601851851851851,1,0,0,5.209417000005487,call2,0.04722222222222222,0.31574074074074077,1,0,0,5.707640100037679,colour1,0.4083333333333333,-0.11481481481481481,1,0,0,6.179247899970505,number3,True,True,True,25,5,2019_Nov_15_1712,MA_Theta_Exp,3.0.7,60.06240483833974,
video/Experiment/zh_sp07_Ad_We_1_GlobalTheta_NoVideo.avi,globalTheta,noVideo,sp07,Ad,We,1,3,5,flow/blocks/GlobalTheta_NoVideo_A.csv,,,,,,,,,0,3,3,3,0,14,14,12,,,,,,,,,-0.35694444444444445,0.2949074074074074,1,0,0,5.122697899991181,call1,0.0625,-0.2884259259259259,1,0,0,5.751385800016578,colour4,0.35555555555555557,0.26851851851851855,1,0,0,6.279628599993885,number1,True,True,True,25,5,2019_Nov_15_1712,MA_Theta_Exp,3.0.7,60.06240483833974,
video/Experiment/zh_sp01_Dr_Ro_2_GlobalTheta_NoVideo.avi,globalTheta,noVideo,sp01,Dr,Ro,2,3,5,flow/blocks/GlobalTheta_NoVideo_A.csv,,,,,,,,,0,3,3,3,0,15,15,25,,,,,,,,,-0.38472222222222224,0.07685185185185185,1,0,0,5.0833703999524005,call2,-0.043055555555555555,-0.1037037037037037,1,0,0,5.438951999996789,colour3,0.4722222222222222,0.07962962962962963,1,0,0,5.8631530000129715,number2,True,True,True,25,5,2019_Nov_15_1712,MA_Theta_Exp,3.0.7,60.06240483833974,
video/Experiment/zh_sp01_Ad_We_3_GlobalTheta_NoVideo.avi,globalTheta,noVideo,sp01,Ad,We,3,3,5,flow/blocks/GlobalTheta_NoVideo_A.csv,,,,,,,,,0,3,3,3,0,16,16,14,,,,,,,,,-0.3486111111111111,0.3060185185185185,1,0,0,6.08262649999233,call1,0.018055555555555554,-0.3050925925925926,1,0,0,6.66043249994982,colour4,0.43333333333333335,-0.12731481481481483,1,0,0,7.046071799995843,number3,True,True,True,25,5,2019_Nov_15_1712,MA_Theta_Exp,3.0.7,60.06240483833974,
video/Experiment/zh_sp07_Dr_Ge_2_GlobalTheta_NoVideo.avi,globalTheta,noVideo,sp07,Dr,Ge,2,3,5,flow/blocks/GlobalTheta_NoVideo_A.csv,,,,,,,,,0,3,3,3,0,17,17,17,,,,,,,,,-0.34444444444444444,0.287962962962963,1,0,0,4.688030899967998,call1,-0.04027777777777778,0.2949074074074074,1,0,0,5.019372799957637,colour1,0.44305555555555554,0.06574074074074074,1,0,0,5.4402603000053205,number2,False,True,True,25,5,2019_Nov_15_1712,MA_Theta_Exp,3.0.7,60.06240483833974,
video/Experiment/zh_sp01_Ad_Gr_1_GlobalTheta_NoVideo.avi,globalTheta,noVideo,sp01,Ad,Gr,1,3,5,flow/blocks/GlobalTheta_NoVideo_A.csv,,,,,,,,,0,3,3,3,0,18,18,4,,,,,,,,,-0.4638888888888889,0.2851851851851852,1,0,0,5.4755836999975145,call1,0.0,0.11018518518518519,1,0,0,6.108889300026931,colour2,0.44722222222222224,0.2601851851851852,1,0,0,6.73882039997261,number1,True,True,True,25,5,2019_Nov_15_1712,MA_Theta_Exp,3.0.7,60.06240483833974,
video/Experiment/zh_sp01_Ad_Ge_1_GlobalTheta_NoVideo.avi,globalTheta,noVideo,sp01,Ad,Ge,1,3,5,flow/blocks/GlobalTheta_NoVideo_A.csv,,,,,,,,,0,3,3,3,0,19,19,0,,,,,,,,,-0.3819444444444444,0.3060185185185185,1,0,0,5.525418600009289,call1,-0.04583333333333333,0.30324074074074076,1,0,0,5.906467699969653,colour1,0.40694444444444444,0.29907407407407405,1,0,0,6.252380200021435,number1,True,True,True,25,5,2019_Nov_15_1712,MA_Theta_Exp,3.0.7,60.06240483833974,
video/Experiment/zh_sp07_Dr_Ro_4_GlobalTheta_NoVideo.avi,globalTheta,noVideo,sp07,Dr,Ro,4,3,5,flow/blocks/GlobalTheta_NoVideo_A.csv,,,,,,,,,0,3,3,3,0,20,20,27,,,,,,,,,-0.39861111111111114,0.09490740740740741,1,0,0,4.852306300017517,call2,-0.015277777777777777,0.3143518518518518,1,0,0,5.431340200011618,colour1,0.38472222222222224,-0.30092592592592593,1,0,0,5.951925899949856,number4,True,False,True,25,5,2019_Nov_15_1712,MA_Theta_Exp,3.0.7,60.06240483833974,
video/Experiment/zh_sp01_Dr_We_2_GlobalTheta_NoVideo.avi,globalTheta,noVideo,sp01,Dr,We,2,3,5,flow/blocks/GlobalTheta_NoVideo_A.csv,,,,,,,,,0,3,3,3,0,21,21,29,,,,,,,,,-0.3611111111111111,0.26435185185185184,1,0,0,5.494403299991973,call1,0.030555555555555555,-0.3425925925925926,1,0,0,6.358561500033829,colour4,0.4027777777777778,0.08796296296296297,1,0,0,6.874129300005734,number2,False,True,True,25,5,2019_Nov_15_1712,MA_Theta_Exp,3.0.7,60.06240483833974,
video/Experiment/zh_sp01_Dr_Gr_2_GlobalTheta_NoVideo.avi,globalTheta,noVideo,sp01,Dr,Gr,2,3,5,flow/blocks/GlobalTheta_NoVideo_A.csv,,,,,,,,,0,3,3,3,0,22,22,21,,,,,,,,,-0.35,0.10046296296296296,1,0,0,5.215635000029579,call2,-0.005555555555555556,0.08935185185185185,1,0,0,5.648308200004976,colour2,0.3388888888888889,0.12129629629629629,1,0,0,6.034463699965272,number2,True,True,True,25,5,2019_Nov_15_1712,MA_Theta_Exp,3.0.7,60.06240483833974,
video/Experiment/zh_sp07_Ad_Ge_4_GlobalTheta_NoVideo.avi,globalTheta,noVideo,sp07,Ad,Ge,4,3,5,flow/blocks/GlobalTheta_NoVideo_A.csv,,,,,,,,,0,3,3,3,0,23,23,3,,,,,,,,,-0.39305555555555555,0.30324074074074076,1,0,0,4.404369600000791,call1,-0.004166666666666667,0.3074074074074074,1,0,0,4.817119700019248,colour1,0.3819444444444444,-0.3175925925925926,1,0,0,5.286546499992255,number4,True,True,True,25,5,2019_Nov_15_1712,MA_Theta_Exp,3.0.7,60.06240483833974,
video/Experiment/zh_sp01_Dr_Ro_1_GlobalTheta_NoVideo.avi,globalTheta,noVideo,sp01,Dr,Ro,1,3,5,flow/blocks/GlobalTheta_NoVideo_A.csv,,,,,,,,,0,3,3,3,0,24,24,24,,,,,,,,,-0.4375,0.11712962962962963,1,0,0,4.991327200026717,call2,-0.013888888888888888,-0.11342592592592593,1,0,0,5.3743651999975555,colour3,0.3888888888888889,0.3074074074074074,1,0,0,5.774283899983857,number1,True,True,True,25,5,2019_Nov_15_1712,MA_Theta_Exp,3.0.7,60.06240483833974,
video/Experiment/zh_sp07_Dr_We_4_GlobalTheta_NoVideo.avi,globalTheta,noVideo,sp07,Dr,We,4,3,5,flow/blocks/GlobalTheta_NoVideo_A.csv,,,,,,,,,0,3,3,3,0,25,25,31,,,,,,,,,-0.3972222222222222,0.1087962962962963,1,0,0,4.2853366999770515,call2,-0.027777777777777776,-0.30092592592592593,1,0,0,4.721005400002468,colour4,0.4013888888888889,-0.09814814814814815,1,0,0,5.146799399983138,number3,True,True,False,25,5,2019_Nov_15_1712,MA_Theta_Exp,3.0.7,60.06240483833974,
video/Experiment/zh_sp01_Dr_Gr_1_GlobalTheta_NoVideo.avi,globalTheta,noVideo,sp01,Dr,Gr,1,3,5,flow/blocks/GlobalTheta_NoVideo_A.csv,,,,,,,,,0,3,3,3,0,26,26,20,,,,,,,,,-0.3972222222222222,0.08657407407407407,1,0,0,5.0545596000156365,call2,-0.027777777777777776,0.09768518518518518,1,0,0,5.504540099995211,colour2,0.40694444444444444,0.31296296296296294,1,0,0,5.9568726000143215,number1,True,True,True,25,5,2019_Nov_15_1712,MA_Theta_Exp,3.0.7,60.06240483833974,
video/Experiment/zh_sp07_Ad_Gr_3_GlobalTheta_NoVideo.avi,globalTheta,noVideo,sp07,Ad,Gr,3,3,5,flow/blocks/GlobalTheta_NoVideo_A.csv,,,,,,,,,0,3,3,3,0,27,27,6,,,,,,,,,-0.3541666666666667,0.2712962962962963,1,0,0,4.870821600023191,call1,0.001388888888888889,0.09768518518518518,1,0,0,5.225582899991423,colour2,0.4166666666666667,-0.1412037037037037,1,0,0,5.626191500050481,number3,True,True,True,25,5,2019_Nov_15_1712,MA_Theta_Exp,3.0.7,60.06240483833974,
video/Experiment/zh_sp07_Dr_Gr_4_GlobalTheta_NoVideo.avi,globalTheta,noVideo,sp07,Dr,Gr,4,3,5,flow/blocks/GlobalTheta_NoVideo_A.csv,,,,,,,,,0,3,3,3,0,28,28,23,,,,,,,,,-0.3902777777777778,0.08796296296296297,1,0,0,4.557273700018413,call2,0.0,0.0837962962962963,1,0,0,5.092214900010731,colour2,0.4,-0.10231481481481482,1,0,0,5.438679000013508,number3,True,True,False,25,5,2019_Nov_15_1712,MA_Theta_Exp,3.0.7,60.06240483833974,
video/Experiment/zh_sp07_Ad_Gr_2_GlobalTheta_NoVideo.avi,globalTheta,noVideo,sp07,Ad,Gr,2,3,5,flow/blocks/GlobalTheta_NoVideo_A.csv,,,,,,,,,0,3,3,3,0,29,29,5,,,,,,,,,-0.3611111111111111,0.2949074074074074,1,0,0,4.7415576000348665,call1,-0.004166666666666667,0.13240740740740742,1,0,0,5.070236600004137,colour2,0.4125,0.07546296296296297,1,0,0,5.500045900000259,number2,True,True,True,25,5,2019_Nov_15_1712,MA_Theta_Exp,3.0.7,60.06240483833974,
video/Experiment/zh_sp07_Dr_Ge_4_GlobalTheta_NoVideo.avi,globalTheta,noVideo,sp07,Dr,Ge,4,3,5,flow/blocks/GlobalTheta_NoVideo_A.csv,,,,,,,,,0,3,3,3,0,30,30,19,,,,,,,,,-0.4263888888888889,0.0824074074074074,1,0,0,4.153447400021832,call2,-0.04583333333333333,0.3143518518518518,1,0,0,4.682565199967939,colour1,0.3958333333333333,-0.31203703703703706,1,0,0,5.63165440002922,number4,True,True,True,25,5,2019_Nov_15_1712,MA_Theta_Exp,3.0.7,60.06240483833974,
video/Experiment/zh_sp07_Ad_Ro_2_GlobalTheta_NoVideo.avi,globalTheta,noVideo,sp07,Ad,Ro,2,3,5,flow/blocks/GlobalTheta_NoVideo_A.csv,,,,,,,,,0,3,3,3,0,31,31,9,,,,,,,,,-0.3736111111111111,0.30185185185185187,1,0,0,5.034481699985918,call1,0.013888888888888888,0.2810185185185185,1,0,0,6.300375199993141,colour1,0.3,0.11712962962962963,1,0,0,6.638043500017375,number2,True,False,True,25,5,2019_Nov_15_1712,MA_Theta_Exp,3.0.7,60.06240483833974,
video/Experiment/zh_sp01_Dr_Gr_2_NVocInAudio_GlobalThetaInVideo.avi,vocoded,plusVideo,sp01,Dr,Gr,2,4,1,flow/blocks/NVocInAudio_GlobalThetaInVideo_A.csv,,,,,,,,,0,4,4,4,0,0,0,21,,,,,,,,,-0.40555555555555556,0.08518518518518518,1,0,0,5.366110600007232,call2,0.013888888888888888,0.09074074074074075,1,0,0,5.797417099995073,colour2,0.4263888888888889,0.12268518518518519,1,0,0,6.141770699992776,number2,True,True,True,25,5,2019_Nov_15_1712,MA_Theta_Exp,3.0.7,60.06240483833974,
video/Experiment/zh_sp01_Ad_We_2_NVocInAudio_GlobalThetaInVideo.avi,vocoded,plusVideo,sp01,Ad,We,2,4,1,flow/blocks/NVocInAudio_GlobalThetaInVideo_A.csv,,,,,,,,,0,4,4,4,0,1,1,13,,,,,,,,,-0.4027777777777778,0.29212962962962963,1,0,0,5.121832099976018,call1,0.006944444444444444,-0.29398148148148145,1,0,0,5.711787700012792,colour4,0.4236111111111111,0.1087962962962963,1,0,0,6.187466200033668,number2,True,True,True,25,5,2019_Nov_15_1712,MA_Theta_Exp,3.0.7,60.06240483833974,
video/Experiment/zh_sp01_Ad_Ge_2_NVocInAudio_GlobalThetaInVideo.avi,vocoded,plusVideo,sp01,Ad,Ge,2,4,1,flow/blocks/NVocInAudio_GlobalThetaInVideo_A.csv,,,,,,,,,0,4,4,4,0,2,2,1,,,,,,,,,-0.375,0.29907407407407405,1,0,0,5.216549300006591,call1,0.03611111111111111,0.3282407407407407,1,0,0,5.629586100054439,colour1,0.32916666666666666,0.11157407407407408,1,0,0,5.999181599996518,number2,True,True,True,25,5,2019_Nov_15_1712,MA_Theta_Exp,3.0.7,60.06240483833974,
video/Experiment/zh_sp01_Ad_We_4_NVocInAudio_GlobalThetaInVideo.avi,vocoded,plusVideo,sp01,Ad,We,4,4,1,flow/blocks/NVocInAudio_GlobalThetaInVideo_A.csv,,,,,,,,,0,4,4,4,0,3,3,15,,,,,,,,,-0.4152777777777778,0.287962962962963,1,0,0,4.942138700047508,call1,-0.03333333333333333,-0.31203703703703706,1,0,0,5.461317799985409,colour4,0.39861111111111114,-0.32037037037037036,1,0,0,5.847330299962778,number4,True,True,True,25,5,2019_Nov_15_1712,MA_Theta_Exp,3.0.7,60.06240483833974,
video/Experiment/zh_sp07_Dr_Ro_1_NVocInAudio_GlobalThetaInVideo.avi,vocoded,plusVideo,sp07,Dr,Ro,1,4,1,flow/blocks/NVocInAudio_GlobalThetaInVideo_A.csv,,,,,,,,,0,4,4,4,0,4,4,24,,,,,,,,,-0.3819444444444444,0.07268518518518519,1,0,0,4.40344309998909,call2,-0.015277777777777777,-0.1175925925925926,1,0,0,4.841654699994251,colour3,0.39305555555555555,0.29074074074074074,1,0,0,5.306804099993315,number1,True,True,True,25,5,2019_Nov_15_1712,MA_Theta_Exp,3.0.7,60.06240483833974,
video/Experiment/zh_sp07_Ad_Gr_1_NVocInAudio_GlobalThetaInVideo.avi,vocoded,plusVideo,sp07,Ad,Gr,1,4,1,flow/blocks/NVocInAudio_GlobalThetaInVideo_A.csv,,,,,,,,,0,4,4,4,0,5,5,4,,,,,,,,,-0.38055555555555554,0.2824074074074074,1,0,0,4.834621099987999,call1,0.030555555555555555,0.07407407407407407,1,0,0,5.239535600005183,colour2,0.39166666666666666,0.30324074074074076,1,0,0,5.604906400025357,number1,True,True,True,25,5,2019_Nov_15_1712,MA_Theta_Exp,3.0.7,60.06240483833974,
video/Experiment/zh_sp07_Ad_We_1_NVocInAudio_GlobalThetaInVideo.avi,vocoded,plusVideo,sp07,Ad,We,1,4,1,flow/blocks/NVocInAudio_GlobalThetaInVideo_A.csv,,,,,,,,,0,4,4,4,0,6,6,12,,,,,,,,,-0.38333333333333336,0.2949074074074074,1,0,0,4.986815400014166,call1,0.001388888888888889,-0.33425925925925926,1,0,0,5.973267199995462,colour4,0.3875,0.3365740740740741,1,0,0,6.542527899960987,number1,True,True,True,25,5,2019_Nov_15_1712,MA_Theta_Exp,3.0.7,60.06240483833974,
video/Experiment/zh_sp01_Dr_We_2_NVocInAudio_GlobalThetaInVideo.avi,vocoded,plusVideo,sp01,Dr,We,2,4,1,flow/blocks/NVocInAudio_GlobalThetaInVideo_A.csv,,,,,,,,,0,4,4,4,0,7,7,29,,,,,,,,,-0.3625,0.09490740740740741,1,0,0,5.284664500039071,call2,0.04861111111111111,-0.34814814814814815,1,0,0,5.783072799968068,colour4,0.45,0.07962962962962963,1,0,0,6.246347900014371,number2,True,True,True,25,5,2019_Nov_15_1712,MA_Theta_Exp,3.0.7,60.06240483833974,
video/Experiment/zh_sp01_Ad_Ge_4_NVocInAudio_GlobalThetaInVideo.avi,vocoded,plusVideo,sp01,Ad,Ge,4,4,1,flow/blocks/NVocInAudio_GlobalThetaInVideo_A.csv,,,,,,,,,0,4,4,4,0,8,8,3,,,,,,,,,-0.4152777777777778,0.2949074074074074,1,0,0,4.888469900004566,call1,-0.03194444444444444,0.32546296296296295,1,0,0,5.307505999982823,colour1,0.37777777777777777,-0.3175925925925926,1,0,0,5.827671399980318,number4,True,True,True,25,5,2019_Nov_15_1712,MA_Theta_Exp,3.0.7,60.06240483833974,
video/Experiment/zh_sp01_Dr_Ro_2_NVocInAudio_GlobalThetaInVideo.avi,vocoded,plusVideo,sp01,Dr,Ro,2,4,1,flow/blocks/NVocInAudio_GlobalThetaInVideo_A.csv,,,,,,,,,0,4,4,4,0,9,9,25,,,,,,,,,-0.3888888888888889,0.0824074074074074,1,0,0,5.054226099979132,call2,-0.03888888888888889,-0.09537037037037037,1,0,0,5.458953799970914,colour3,0.4083333333333333,0.08657407407407407,1,0,0,5.807787500030827,number2,True,True,True,25,5,2019_Nov_15_1712,MA_Theta_Exp,3.0.7,60.06240483833974,
video/Experiment/zh_sp07_Dr_Gr_3_NVocInAudio_GlobalThetaInVideo.avi,vocoded,plusVideo,sp07,Dr,Gr,3,4,1,flow/blocks/NVocInAudio_GlobalThetaInVideo_A.csv,,,,,,,,,0,4,4,4,0,10,10,22,,,,,,,,,-0.3638888888888889,0.08657407407407407,1,0,0,4.471039799973369,call2,0.005555555555555556,0.08935185185185185,1,0,0,4.821322300005704,colour2,0.4152777777777778,-0.12731481481481483,1,0,0,5.1713425000198185,number3,True,True,True,25,5,2019_Nov_15_1712,MA_Theta_Exp,3.0.7,60.06240483833974,
video/Experiment/zh_sp07_Dr_We_3_NVocInAudio_GlobalThetaInVideo.avi,vocoded,plusVideo,sp07,Dr,We,3,4,1,flow/blocks/NVocInAudio_GlobalThetaInVideo_A.csv,,,,,,,,,0,4,4,4,0,11,11,30,,,,,,,,,-0.37222222222222223,0.08796296296296297,1,0,0,4.6249136000406,call2,-0.022222222222222223,-0.30925925925925923,1,0,0,5.076023800007533,colour4,0.4527777777777778,-0.11342592592592593,1,0,0,5.574536199972499,number3,True,True,True,25,5,2019_Nov_15_1712,MA_Theta_Exp,3.0.7,60.06240483833974,
video/Experiment/zh_sp07_Ad_Ge_1_NVocInAudio_GlobalThetaInVideo.avi,vocoded,plusVideo,sp07,Ad,Ge,1,4,1,flow/blocks/NVocInAudio_GlobalThetaInVideo_A.csv,,,,,,,,,0,4,4,4,0,12,12,0,,,,,,,,,-0.39444444444444443,0.31712962962962965,1,0,0,4.448668600001838,call1,0.05277777777777778,0.300462962962963,1,0,0,4.767077100055758,colour1,0.49444444444444446,0.3212962962962963,1,0,0,5.129142999998294,number1,True,True,True,25,5,2019_Nov_15_1712,MA_Theta_Exp,3.0.7,60.06240483833974,
video/Experiment/zh_sp01_Dr_Gr_1_NVocInAudio_GlobalThetaInVideo.avi,vocoded,plusVideo,sp01,Dr,Gr,1,4,1,flow/blocks/NVocInAudio_GlobalThetaInVideo_A.csv,,,,,,,,,0,4,4,4,0,13,13,20,,,,,,,,,-0.31666666666666665,0.08935185185185185,1,0,0,5.350074300018605,call2,-0.011111111111111112,0.0962962962962963,1,0,0,5.735467300051823,colour2,0.4027777777777778,0.300462962962963,1,0,0,6.182366700028069,number1,True,True,True,25,5,2019_Nov_15_1712,MA_Theta_Exp,3.0.7,60.06240483833974,
video/Experiment/zh_sp01_Dr_We_4_NVocInAudio_GlobalThetaInVideo.avi,vocoded,plusVideo,sp01,Dr,We,4,4,1,flow/blocks/NVocInAudio_GlobalThetaInVideo_A.csv,,,,,,,,,0,4,4,4,0,14,14,31,,,,,,,,,-0.3763888888888889,0.06574074074074074,1,0,0,4.968918500002474,call2,-0.04583333333333333,-0.3037037037037037,1,0,0,5.365898100018967,colour4,0.44027777777777777,-0.3287037037037037,1,0,0,5.716777199995704,number4,True,True,True,25,5,2019_Nov_15_1712,MA_Theta_Exp,3.0.7,60.06240483833974,
video/Experiment/zh_sp07_Ad_Ro_1_NVocInAudio_GlobalThetaInVideo.avi,vocoded,plusVideo,sp07,Ad,Ro,1,4,1,flow/blocks/NVocInAudio_GlobalThetaInVideo_A.csv,,,,,,,,,0,4,4,4,0,15,15,8,,,,,,,,,-0.3736111111111111,0.2824074074074074,1,0,0,4.671130599977914,call1,0.002777777777777778,-0.13842592592592592,1,0,0,5.116028299962636,colour3,0.42083333333333334,0.2949074074074074,1,0,0,5.690643800015096,number1,True,True,True,25,5,2019_Nov_15_1712,MA_Theta_Exp,3.0.7,60.06240483833974,
video/Experiment/zh_sp07_Ad_Ro_4_NVocInAudio_GlobalThetaInVideo.avi,vocoded,plusVideo,sp07,Ad,Ro,4,4,1,flow/blocks/NVocInAudio_GlobalThetaInVideo_A.csv,,,,,,,,,0,4,4,4,0,16,16,11,,,,,,,,,-0.3597222222222222,0.3013888888888889,1,0,0,4.609372599981725,call1,0.04861111111111111,-0.15138888888888888,1,0,0,5.028975800029002,colour3,0.375,-0.29583333333333334,1,0,0,5.459581300034188,number4,True,True,True,25,5,2019_Nov_15_1712,MA_Theta_Exp,3.0.7,60.06240483833974,
video/Experiment/zh_sp01_Dr_Ge_2_NVocInAudio_GlobalThetaInVideo.avi,vocoded,plusVideo,sp01,Dr,Ge,2,4,1,flow/blocks/NVocInAudio_GlobalThetaInVideo_A.csv,,,,,,,,,0,4,4,4,0,17,17,17,,,,,,,,,-0.3680555555555556,0.10833333333333334,1,0,0,5.6151918999967165,call2,0.0375,0.3236111111111111,1,0,0,6.007312500034459,colour1,0.36527777777777776,0.125,1,0,0,6.397107400000095,number2,True,True,True,25,5,2019_Nov_15_1712,MA_Theta_Exp,3.0.7,60.06240483833974,
video/Experiment/zh_sp07_Dr_Ge_3_NVocInAudio_GlobalThetaInVideo.avi,vocoded,plusVideo,sp07,Dr,Ge,3,4,1,flow/blocks/NVocInAudio_GlobalThetaInVideo_A.csv,,,,,,,,,0,4,4,4,0,18,18,18,,,,,,,,,-0.38333333333333336,0.08472222222222223,1,0,0,5.10373819997767,call2,-0.001388888888888889,0.30277777777777776,1,0,0,5.588771299982909,colour1,0.4083333333333333,-0.11666666666666667,1,0,0,6.053105300001334,number3,True,True,True,25,5,2019_Nov_15_1712,MA_Theta_Exp,3.0.7,60.06240483833974,
video/Experiment/zh_sp07_Dr_We_1_NVocInAudio_GlobalThetaInVideo.avi,vocoded,plusVideo,sp07,Dr,We,1,4,1,flow/blocks/NVocInAudio_GlobalThetaInVideo_A.csv,,,,,,,,,0,4,4,4,0,19,19,28,,,,,,,,,-0.39444444444444443,0.07222222222222222,1,0,0,4.633619999978691,call2,-0.008333333333333333,-0.3277777777777778,1,0,0,5.1206286999513395,colour4,0.3861111111111111,0.32083333333333336,1,0,0,5.669663899985608,number1,True,True,True,25,5,2019_Nov_15_1712,MA_Theta_Exp,3.0.7,60.06240483833974,
video/Experiment/zh_sp01_Dr_Ro_3_NVocInAudio_GlobalThetaInVideo.avi,vocoded,plusVideo,sp01,Dr,Ro,3,4,1,flow/blocks/NVocInAudio_GlobalThetaInVideo_A.csv,,,,,,,,,0,4,4,4,0,20,20,26,,,,,,,,,-0.39444444444444443,0.08611111111111111,1,0,0,4.8094877999974415,call2,-0.008333333333333333,-0.11388888888888889,1,0,0,5.223625400045421,colour3,0.37916666666666665,-0.1111111111111111,1,0,0,5.577425400028005,number3,True,True,True,25,5,2019_Nov_15_1712,MA_Theta_Exp,3.0.7,60.06240483833974,
video/Experiment/zh_sp07_Dr_Ro_4_NVocInAudio_GlobalThetaInVideo.avi,vocoded,plusVideo,sp07,Dr,Ro,4,4,1,flow/blocks/NVocInAudio_GlobalThetaInVideo_A.csv,,,,,,,,,0,4,4,4,0,21,21,27,,,,,,,,,-0.3972222222222222,0.1,1,0,0,4.426392499997746,call2,0.009722222222222222,-0.08611111111111111,1,0,0,5.040012799960095,colour3,0.40555555555555556,-0.3236111111111111,1,0,0,5.409235200029798,number4,True,True,True,25,5,2019_Nov_15_1712,MA_Theta_Exp,3.0.7,60.06240483833974,
video/Experiment/zh_sp07_Ad_Gr_3_NVocInAudio_GlobalThetaInVideo.avi,vocoded,plusVideo,sp07,Ad,Gr,3,4,1,flow/blocks/NVocInAudio_GlobalThetaInVideo_A.csv,,,,,,,,,0,4,4,4,0,22,22,6,,,,,,,,,-0.35138888888888886,0.3263888888888889,1,0,0,8.084432200004812,call1,0.04722222222222222,-0.30694444444444446,1,0,0,8.7322946000495,colour4,0.4125,-0.07361111111111111,1,0,0,9.837052499991842,number3,True,False,True,25,5,2019_Nov_15_1712,MA_Theta_Exp,3.0.7,60.06240483833974,
video/Experiment/zh_sp01_Dr_Ge_1_NVocInAudio_GlobalThetaInVideo.avi,vocoded,plusVideo,sp01,Dr,Ge,1,4,1,flow/blocks/NVocInAudio_GlobalThetaInVideo_A.csv,,,,,,,,,0,4,4,4,0,23,23,16,,,,,,,,,-0.35833333333333334,0.11805555555555555,1,0,0,4.934172300039791,call2,0.020833333333333332,0.2972222222222222,1,0,0,5.502483799995389,colour1,0.39305555555555555,0.30694444444444446,1,0,0,5.806587699975353,number1,True,True,True,25,5,2019_Nov_15_1712,MA_Theta_Exp,3.0.7,60.06240483833974,
video/Experiment/zh_sp07_Ad_Ro_3_NVocInAudio_GlobalThetaInVideo.avi,vocoded,plusVideo,sp07,Ad,Ro,3,4,1,flow/blocks/NVocInAudio_GlobalThetaInVideo_A.csv,,,,,,,,,0,4,4,4,0,24,24,10,,,,,,,,,-0.38055555555555554,0.26944444444444443,1,0,0,4.541685700009111,call1,0.05555555555555555,-0.10277777777777777,1,0,0,5.145341900002677,colour3,0.39861111111111114,-0.10416666666666667,1,0,0,5.447750199993607,number3,True,True,True,25,5,2019_Nov_15_1712,MA_Theta_Exp,3.0.7,60.06240483833974,
video/Experiment/zh_sp01_Dr_Gr_4_NVocInAudio_GlobalThetaInVideo.avi,vocoded,plusVideo,sp01,Dr,Gr,4,4,1,flow/blocks/NVocInAudio_GlobalThetaInVideo_A.csv,,,,,,,,,0,4,4,4,0,25,25,23,,,,,,,,,-0.4,0.09861111111111111,1,0,0,5.157116899965331,call2,-0.03194444444444444,0.12083333333333333,1,0,0,5.676494700019248,colour2,0.4111111111111111,-0.27361111111111114,1,0,0,6.287959099980071,number4,True,True,True,25,5,2019_Nov_15_1712,MA_Theta_Exp,3.0.7,60.06240483833974,
video/Experiment/zh_sp07_Dr_Ge_4_NVocInAudio_GlobalThetaInVideo.avi,vocoded,plusVideo,sp07,Dr,Ge,4,4,1,flow/blocks/NVocInAudio_GlobalThetaInVideo_A.csv,,,,,,,,,0,4,4,4,0,26,26,19,,,,,,,,,-0.3736111111111111,0.13055555555555556,1,0,0,4.529958200000692,call2,0.041666666666666664,0.31666666666666665,1,0,0,4.979653599963058,colour1,0.44166666666666665,-0.2833333333333333,1,0,0,5.543593599984888,number4,True,True,True,25,5,2019_Nov_15_1712,MA_Theta_Exp,3.0.7,60.06240483833974,
video/Experiment/zh_sp01_Ad_Gr_2_NVocInAudio_GlobalThetaInVideo.avi,vocoded,plusVideo,sp01,Ad,Gr,2,4,1,flow/blocks/NVocInAudio_GlobalThetaInVideo_A.csv,,,,,,,,,0,4,4,4,0,27,27,5,,,,,,,,,-0.3680555555555556,0.2902777777777778,1,0,0,5.3809487000107765,call1,0.0125,0.12222222222222222,1,0,0,5.696622800023761,colour2,0.32222222222222224,0.07777777777777778,1,0,0,6.015098800009582,number2,True,True,True,25,5,2019_Nov_15_1712,MA_Theta_Exp,3.0.7,60.06240483833974,
video/Experiment/zh_sp01_Ad_Gr_4_NVocInAudio_GlobalThetaInVideo.avi,vocoded,plusVideo,sp01,Ad,Gr,4,4,1,flow/blocks/NVocInAudio_GlobalThetaInVideo_A.csv,,,,,,,,,0,4,4,4,0,28,28,7,,,,,,,,,-0.3527777777777778,0.3055555555555556,1,0,0,5.12563239998417,call1,0.08055555555555556,0.07916666666666666,1,0,0,5.511380599986296,colour2,0.4083333333333333,-0.28888888888888886,1,0,0,6.027086400019471,number4,True,True,True,25,5,2019_Nov_15_1712,MA_Theta_Exp,3.0.7,60.06240483833974,
video/Experiment/zh_sp07_Ad_Ge_3_NVocInAudio_GlobalThetaInVideo.avi,vocoded,plusVideo,sp07,Ad,Ge,3,4,1,flow/blocks/NVocInAudio_GlobalThetaInVideo_A.csv,,,,,,,,,0,4,4,4,0,29,29,2,,,,,,,,,-0.37222222222222223,0.2986111111111111,1,0,0,4.445444099954329,call1,-0.0625,0.3,1,0,0,4.759051900007762,colour1,0.4583333333333333,-0.11805555555555555,1,0,0,5.2241917999926955,number3,True,True,True,25,5,2019_Nov_15_1712,MA_Theta_Exp,3.0.7,60.06240483833974,
video/Experiment/zh_sp07_Ad_Ro_2_NVocInAudio_GlobalThetaInVideo.avi,vocoded,plusVideo,sp07,Ad,Ro,2,4,1,flow/blocks/NVocInAudio_GlobalThetaInVideo_A.csv,,,,,,,,,0,4,4,4,0,30,30,9,,,,,,,,,-0.37222222222222223,0.2777777777777778,1,0,0,4.362201799987815,call1,-0.008333333333333333,-0.09722222222222222,1,0,0,4.832588599994779,colour3,0.4152777777777778,0.07777777777777778,1,0,0,5.204490499978419,number2,True,True,True,25,5,2019_Nov_15_1712,MA_Theta_Exp,3.0.7,60.06240483833974,
video/Experiment/zh_sp01_Ad_We_3_NVocInAudio_GlobalThetaInVideo.avi,vocoded,plusVideo,sp01,Ad,We,3,4,1,flow/blocks/NVocInAudio_GlobalThetaInVideo_A.csv,,,,,,,,,0,4,4,4,0,31,31,14,,,,,,,,,-0.3972222222222222,0.2972222222222222,1,0,0,5.015164899989031,call1,-0.011111111111111112,-0.31805555555555554,1,0,0,5.514204200007953,colour4,0.5166666666666667,-0.10555555555555556,1,0,0,5.9833863999811,number3,True,True,True,25,5,2019_Nov_15_1712,MA_Theta_Exp,3.0.7,60.06240483833974,
video/Experiment/zh_sp01_Un_Ge_3_NoThetaInAudio_NoVideo.avi,noTheta,noVideo,sp01,Un,Ge,3,0,4,flow/blocks/NoThetaInAudio_NoVideo_B.csv,,,,,,,,,,,,,,,,,0,0,0,0,0,0,0,18,-0.375,0.10416666666666667,1,0,0,6.089202100003604,call2,-0.025,0.29583333333333334,1,0,0,6.60496399999829,colour1,0.4583333333333333,-0.14444444444444443,1,0,0,7.105164899956435,number3,False,True,True,25,5,2019_Nov_15_1712,MA_Theta_Exp,3.0.7,60.06240483833974,
video/Experiment/zh_sp01_Ti_Gr_1_NoThetaInAudio_NoVideo.avi,noTheta,noVideo,sp01,Ti,Gr,1,0,4,flow/blocks/NoThetaInAudio_NoVideo_B.csv,,,,,,,,,,,,,,,,,0,0,0,0,0,1,1,4,-0.41944444444444445,-0.125,1,0,0,5.277429900015704,call3,-0.027777777777777776,0.1125,1,0,0,5.778189099975862,colour2,0.33194444444444443,0.31666666666666665,1,0,0,6.197193200001493,number1,True,True,True,25,5,2019_Nov_15_1712,MA_Theta_Exp,3.0.7,60.06240483833974,
video/Experiment/zh_sp01_Un_Ro_2_NoThetaInAudio_NoVideo.avi,noTheta,noVideo,sp01,Un,Ro,2,0,4,flow/blocks/NoThetaInAudio_NoVideo_B.csv,,,,,,,,,,,,,,,,,0,0,0,0,0,2,2,25,-0.44583333333333336,-0.3263888888888889,1,0,0,6.261190199991688,call4,0.02361111111111111,-0.07083333333333333,1,0,0,6.683046399964951,colour3,0.4166666666666667,0.12222222222222222,1,0,0,7.016742300009355,number2,True,True,True,25,5,2019_Nov_15_1712,MA_Theta_Exp,3.0.7,60.06240483833974,
video/Experiment/zh_sp01_Un_Ge_1_NoThetaInAudio_NoVideo.avi,noTheta,noVideo,sp01,Un,Ge,1,0,4,flow/blocks/NoThetaInAudio_NoVideo_B.csv,,,,,,,,,,,,,,,,,0,0,0,0,0,3,3,16,-0.4125,0.10138888888888889,1,0,0,5.1796172999893315,call2,-0.041666666666666664,0.3138888888888889,1,0,0,5.534462600015104,colour1,0.36944444444444446,0.34444444444444444,1,0,0,5.8833726000157185,number1,False,True,True,25,5,2019_Nov_15_1712,MA_Theta_Exp,3.0.7,60.06240483833974,
video/Experiment/zh_sp01_Un_Ro_4_NoThetaInAudio_NoVideo.avi,noTheta,noVideo,sp01,Un,Ro,4,0,4,flow/blocks/NoThetaInAudio_NoVideo_B.csv,,,,,,,,,,,,,,,,,0,0,0,0,0,4,4,27,-0.3972222222222222,0.08472222222222223,1,0,0,4.932931200019084,call2,0.004166666666666667,-0.10138888888888889,1,0,0,5.31933410000056,colour3,0.3680555555555556,-0.325,1,0,0,5.665472199965734,number4,False,True,True,25,5,2019_Nov_15_1712,MA_Theta_Exp,3.0.7,60.06240483833974,
video/Experiment/zh_sp01_Ti_Ro_1_NoThetaInAudio_NoVideo.avi,noTheta,noVideo,sp01,Ti,Ro,1,0,4,flow/blocks/NoThetaInAudio_NoVideo_B.csv,,,,,,,,,,,,,,,,,0,0,0,0,0,5,5,8,-0.4083333333333333,-0.15,1,0,0,4.979210599965882,call3,-0.001388888888888889,-0.1375,1,0,0,5.33479689998785,colour3,0.375,0.2833333333333333,1,0,0,5.716111199988518,number1,True,True,True,25,5,2019_Nov_15_1712,MA_Theta_Exp,3.0.7,60.06240483833974,
video/Experiment/zh_sp07_Ti_Gr_2_NoThetaInAudio_NoVideo.avi,noTheta,noVideo,sp07,Ti,Gr,2,0,4,flow/blocks/NoThetaInAudio_NoVideo_B.csv,,,,,,,,,,,,,,,,,0,0,0,0,0,6,6,5,-0.4125,-0.13333333333333333,1,0,0,4.362618200015277,call3,0.034722222222222224,0.08472222222222223,1,0,0,4.816086400009226,colour2,0.37777777777777777,0.11527777777777778,1,0,0,5.151107499958016,number2,True,True,True,25,5,2019_Nov_15_1712,MA_Theta_Exp,3.0.7,60.06240483833974,
video/Experiment/zh_sp07_Un_Gr_4_NoThetaInAudio_NoVideo.avi,noTheta,noVideo,sp07,Un,Gr,4,0,4,flow/blocks/NoThetaInAudio_NoVideo_B.csv,,,,,,,,,,,,,,,,,0,0,0,0,0,7,7,23,-0.3736111111111111,-0.2986111111111111,1,0,0,4.4884666000143625,call4,0.030555555555555555,0.11944444444444445,1,0,0,5.035162599990144,colour2,0.4013888888888889,-0.11527777777777778,1,0,0,5.389751999988221,number3,True,True,False,25,5,2019_Nov_15_1712,MA_Theta_Exp,3.0.7,60.06240483833974,
video/Experiment/zh_sp07_Ti_Ro_3_NoThetaInAudio_NoVideo.avi,noTheta,noVideo,sp07,Ti,Ro,3,0,4,flow/blocks/NoThetaInAudio_NoVideo_B.csv,,,,,,,,,,,,,,,,,0,0,0,0,0,8,8,10,-0.4166666666666667,-0.1375,1,0,0,4.697146199992858,call3,-0.030555555555555555,-0.13055555555555556,1,0,0,5.082628300006036,colour3,0.41944444444444445,-0.11388888888888889,1,0,0,5.413793999992777,number3,True,True,True,25,5,2019_Nov_15_1712,MA_Theta_Exp,3.0.7,60.06240483833974,
video/Experiment/zh_sp01_Ti_Ge_3_NoThetaInAudio_NoVideo.avi,noTheta,noVideo,sp01,Ti,Ge,3,0,4,flow/blocks/NoThetaInAudio_NoVideo_B.csv,,,,,,,,,,,,,,,,,0,0,0,0,0,9,9,2,-0.36944444444444446,-0.09444444444444444,1,0,0,5.073111800011247,call3,0.011111111111111112,0.33055555555555555,1,0,0,5.600405699980911,colour1,0.3472222222222222,-0.1361111111111111,1,0,0,6.072887499991339,number3,True,True,True,25,5,2019_Nov_15_1712,MA_Theta_Exp,3.0.7,60.06240483833974,
video/Experiment/zh_sp01_Un_We_4_NoThetaInAudio_NoVideo.avi,noTheta,noVideo,sp01,Un,We,4,0,4,flow/blocks/NoThetaInAudio_NoVideo_B.csv,,,,,,,,,,,,,,,,,0,0,0,0,0,10,10,31,-0.39305555555555555,-0.3111111111111111,1,0,0,4.860982200014405,call4,0.04583333333333333,-0.30972222222222223,1,0,0,5.274997500004247,colour4,0.3736111111111111,-0.3055555555555556,1,0,0,5.59612780000316,number4,True,True,True,25,5,2019_Nov_15_1712,MA_Theta_Exp,3.0.7,60.06240483833974,
video/Experiment/zh_sp07_Un_We_3_NoThetaInAudio_NoVideo.avi,noTheta,noVideo,sp07,Un,We,3,0,4,flow/blocks/NoThetaInAudio_NoVideo_B.csv,,,,,,,,,,,,,,,,,0,0,0,0,0,11,11,30,-0.3972222222222222,0.08611111111111111,1,0,0,4.316986399993766,call2,-0.022222222222222223,-0.3236111111111111,1,0,0,5.082462300022598,colour4,0.46944444444444444,-0.1638888888888889,1,0,0,5.921415899996646,number3,False,True,True,25,5,2019_Nov_15_1712,MA_Theta_Exp,3.0.7,60.06240483833974,
video/Experiment/zh_sp07_Un_Gr_3_NoThetaInAudio_NoVideo.avi,noTheta,noVideo,sp07,Un,Gr,3,0,4,flow/blocks/NoThetaInAudio_NoVideo_B.csv,,,,,,,,,,,,,,,,,0,0,0,0,0,12,12,22,-0.40555555555555556,-0.12361111111111112,1,0,0,4.754622799984645,call3,0.011111111111111112,0.09861111111111111,1,0,0,5.25948879995849,colour2,0.3875,-0.1361111111111111,1,0,0,5.6224150999914855,number3,False,True,True,25,5,2019_Nov_15_1712,MA_Theta_Exp,3.0.7,60.06240483833974,
video/Experiment/zh_sp01_Ti_Gr_3_NoThetaInAudio_NoVideo.avi,noTheta,noVideo,sp01,Ti,Gr,3,0,4,flow/blocks/NoThetaInAudio_NoVideo_B.csv,,,,,,,,,,,,,,,,,0,0,0,0,0,13,13,6,-0.37222222222222223,-0.12361111111111112,1,0,0,4.872207599983085,call3,0.0125,0.10833333333333334,1,0,0,5.335698299983051,colour2,0.3125,-0.08194444444444444,1,0,0,5.659985499980394,number3,True,True,True,25,5,2019_Nov_15_1712,MA_Theta_Exp,3.0.7,60.06240483833974,
video/Experiment/zh_sp07_Un_Gr_2_NoThetaInAudio_NoVideo.avi,noTheta,noVideo,sp07,Un,Gr,2,0,4,flow/blocks/NoThetaInAudio_NoVideo_B.csv,,,,,,,,,,,,,,,,,0,0,0,0,0,14,14,21,-0.35555555555555557,-0.30694444444444446,1,0,0,4.422481700021308,call4,0.018055555555555554,0.09444444444444444,1,0,0,4.96020229998976,colour2,0.37222222222222223,0.10277777777777777,1,0,0,5.284703500044998,number2,True,True,True,25,5,2019_Nov_15_1712,MA_Theta_Exp,3.0.7,60.06240483833974,
video/Experiment/zh_sp01_Ti_Ro_4_NoThetaInAudio_NoVideo.avi,noTheta,noVideo,sp01,Ti,Ro,4,0,4,flow/blocks/NoThetaInAudio_NoVideo_B.csv,,,,,,,,,,,,,,,,,0,0,0,0,0,15,15,11,-0.4,-0.1375,1,0,0,5.22788430005312,call3,-0.025,-0.11805555555555555,1,0,0,5.578534799977206,colour3,0.4375,-0.3013888888888889,1,0,0,5.873206499963999,number4,True,True,True,25,5,2019_Nov_15_1712,MA_Theta_Exp,3.0.7,60.06240483833974,
video/Experiment/zh_sp01_Ti_Ge_4_NoThetaInAudio_NoVideo.avi,noTheta,noVideo,sp01,Ti,Ge,4,0,4,flow/blocks/NoThetaInAudio_NoVideo_B.csv,,,,,,,,,,,,,,,,,0,0,0,0,0,16,16,3,-0.4027777777777778,-0.10138888888888889,1,0,0,4.884981199982576,call3,0.013888888888888888,0.3527777777777778,1,0,0,5.447905300010461,colour1,0.3541666666666667,-0.2569444444444444,1,0,0,5.919259499991313,number4,True,True,True,25,5,2019_Nov_15_1712,MA_Theta_Exp,3.0.7,60.06240483833974,
video/Experiment/zh_sp01_Ti_We_3_NoThetaInAudio_NoVideo.avi,noTheta,noVideo,sp01,Ti,We,3,0,4,flow/blocks/NoThetaInAudio_NoVideo_B.csv,,,,,,,,,,,,,,,,,0,0,0,0,0,17,17,14,-0.38055555555555554,-0.11944444444444445,1,0,0,4.933807699999306,call3,0.016666666666666666,-0.3,1,0,0,5.3820810000179335,colour4,0.45694444444444443,-0.13472222222222222,1,0,0,5.7988447999814525,number3,True,True,True,25,5,2019_Nov_15_1712,MA_Theta_Exp,3.0.7,60.06240483833974,
video/Experiment/zh_sp01_Ti_Ro_2_NoThetaInAudio_NoVideo.avi,noTheta,noVideo,sp01,Ti,Ro,2,0,4,flow/blocks/NoThetaInAudio_NoVideo_B.csv,,,,,,,,,,,,,,,,,0,0,0,0,0,18,18,9,-0.4236111111111111,-0.09861111111111111,1,0,0,5.0982240999583155,call3,0.009722222222222222,-0.1125,1,0,0,5.512163500010502,colour3,0.39305555555555555,0.05277777777777778,1,0,0,5.894378400000278,number2,True,True,True,25,5,2019_Nov_15_1712,MA_Theta_Exp,3.0.7,60.06240483833974,
video/Experiment/zh_sp07_Un_Ge_4_NoThetaInAudio_NoVideo.avi,noTheta,noVideo,sp07,Un,Ge,4,0,4,flow/blocks/NoThetaInAudio_NoVideo_B.csv,,,,,,,,,,,,,,,,,0,0,0,0,0,19,19,19,-0.3888888888888889,-0.3194444444444444,1,0,0,4.4674099999829195,call4,0.041666666666666664,0.2625,1,0,0,5.486899600015022,colour1,0.4152777777777778,-0.3402777777777778,1,0,0,6.01742170000216,number4,True,True,True,25,5,2019_Nov_15_1712,MA_Theta_Exp,3.0.7,60.06240483833974,
video/Experiment/zh_sp01_Ti_Ge_1_NoThetaInAudio_NoVideo.avi,noTheta,noVideo,sp01,Ti,Ge,1,0,4,flow/blocks/NoThetaInAudio_NoVideo_B.csv,,,,,,,,,,,,,,,,,0,0,0,0,0,20,20,0,-0.3458333333333333,-0.15,1,0,0,5.121985499979928,call3,0.03333333333333333,0.2777777777777778,1,0,0,5.584993200027384,colour1,0.4027777777777778,0.3375,1,0,0,6.11961059999885,number1,True,True,True,25,5,2019_Nov_15_1712,MA_Theta_Exp,3.0.7,60.06240483833974,
video/Experiment/zh_sp07_Un_Ge_2_NoThetaInAudio_NoVideo.avi,noTheta,noVideo,sp07,Un,Ge,2,0,4,flow/blocks/NoThetaInAudio_NoVideo_B.csv,,,,,,,,,,,,,,,,,0,0,0,0,0,21,21,17,-0.4083333333333333,-0.3263888888888889,1,0,0,4.267263200017624,call4,-0.020833333333333332,0.29583333333333334,1,0,0,4.833355100010522,colour1,0.3861111111111111,0.09027777777777778,1,0,0,5.211580299946945,number2,True,True,True,25,5,2019_Nov_15_1712,MA_Theta_Exp,3.0.7,60.06240483833974,
video/Experiment/zh_sp01_Ti_Ge_2_NoThetaInAudio_NoVideo.avi,noTheta,noVideo,sp01,Ti,Ge,2,0,4,flow/blocks/NoThetaInAudio_NoVideo_B.csv,,,,,,,,,,,,,,,,,0,0,0,0,0,22,22,1,-0.4125,-0.12638888888888888,1,0,0,5.050635499996133,call3,-0.05694444444444444,0.2763888888888889,1,0,0,5.652087300026324,colour1,0.4527777777777778,0.06527777777777778,1,0,0,5.99842560000252,number2,True,True,True,25,5,2019_Nov_15_1712,MA_Theta_Exp,3.0.7,60.06240483833974,
video/Experiment/zh_sp07_Ti_We_4_NoThetaInAudio_NoVideo.avi,noTheta,noVideo,sp07,Ti,We,4,0,4,flow/blocks/NoThetaInAudio_NoVideo_B.csv,,,,,,,,,,,,,,,,,0,0,0,0,0,23,23,15,-0.3888888888888889,-0.12361111111111112,1,0,0,4.521094000025187,call3,0.005555555555555556,-0.3388888888888889,1,0,0,5.390971999964677,colour4,0.4013888888888889,-0.32222222222222224,1,0,0,5.702845699968748,number4,True,True,True,25,5,2019_Nov_15_1712,MA_Theta_Exp,3.0.7,60.06240483833974,
video/Experiment/zh_sp07_Un_We_1_NoThetaInAudio_NoVideo.avi,noTheta,noVideo,sp07,Un,We,1,0,4,flow/blocks/NoThetaInAudio_NoVideo_B.csv,,,,,,,,,,,,,,,,,0,0,0,0,0,24,24,28,-0.40555555555555556,-0.3333333333333333,1,0,0,4.555753700027708,call4,-0.011111111111111112,-0.27361111111111114,1,0,0,4.993177799973637,colour4,0.37083333333333335,0.2833333333333333,1,0,0,5.537241099984385,number1,True,True,True,25,5,2019_Nov_15_1712,MA_Theta_Exp,3.0.7,60.06240483833974,
video/Experiment/zh_sp07_Ti_We_2_NoThetaInAudio_NoVideo.avi,noTheta,noVideo,sp07,Ti,We,2,0,4,flow/blocks/NoThetaInAudio_NoVideo_B.csv,,,,,,,,,,,,,,,,,0,0,0,0,0,25,25,13,-0.3458333333333333,-0.125,1,0,0,4.919641399988905,call3,-0.011111111111111112,-0.28194444444444444,1,0,0,5.278967200021725,colour4,0.41944444444444445,0.05277777777777778,1,0,0,5.776362199976575,number2,True,True,True,25,5,2019_Nov_15_1712,MA_Theta_Exp,3.0.7,60.06240483833974,
video/Experiment/zh_sp07_Un_Gr_1_NoThetaInAudio_NoVideo.avi,noTheta,noVideo,sp07,Un,Gr,1,0,4,flow/blocks/NoThetaInAudio_NoVideo_B.csv,,,,,,,,,,,,,,,,,0,0,0,0,0,26,26,20,-0.4013888888888889,-0.29444444444444445,1,0,0,4.461059900000691,call4,0.034722222222222224,0.10694444444444444,1,0,0,5.242094499990344,colour2,0.4027777777777778,0.32083333333333336,1,0,0,5.6754281999892555,number1,True,True,True,25,5,2019_Nov_15_1712,MA_Theta_Exp,3.0.7,60.06240483833974,
video/Experiment/zh_sp07_Un_We_2_NoThetaInAudio_NoVideo.avi,noTheta,noVideo,sp07,Un,We,2,0,4,flow/blocks/NoThetaInAudio_NoVideo_B.csv,,,,,,,,,,,,,,,,,0,0,0,0,0,27,27,29,-0.3736111111111111,-0.3263888888888889,1,0,0,4.335026499989908,call4,0.0,-0.31666666666666665,1,0,0,5.254267700016499,colour4,0.36944444444444446,0.12638888888888888,1,0,0,5.694784499995876,number2,True,True,True,25,5,2019_Nov_15_1712,MA_Theta_Exp,3.0.7,60.06240483833974,
video/Experiment/zh_sp07_Ti_Gr_4_NoThetaInAudio_NoVideo.avi,noTheta,noVideo,sp07,Ti,Gr,4,0,4,flow/blocks/NoThetaInAudio_NoVideo_B.csv,,,,,,,,,,,,,,,,,0,0,0,0,0,28,28,7,-0.3861111111111111,-0.11666666666666667,1,0,0,4.846116499975324,call3,0.09027777777777778,0.06111111111111111,1,0,0,5.260444299958181,colour2,0.4013888888888889,-0.2972222222222222,1,0,0,6.2112425999948755,number4,True,True,True,25,5,2019_Nov_15_1712,MA_Theta_Exp,3.0.7,60.06240483833974,
video/Experiment/zh_sp07_Un_Ro_3_NoThetaInAudio_NoVideo.avi,noTheta,noVideo,sp07,Un,Ro,3,0,4,flow/blocks/NoThetaInAudio_NoVideo_B.csv,,,,,,,,,,,,,,,,,0,0,0,0,0,29,29,26,-0.4097222222222222,-0.32222222222222224,1,0,0,4.348717599990778,call4,0.020833333333333332,-0.10277777777777777,1,0,0,4.7970305000199005,colour3,0.38333333333333336,-0.12638888888888888,1,0,0,5.159846099966671,number3,True,True,True,25,5,2019_Nov_15_1712,MA_Theta_Exp,3.0.7,60.06240483833974,
video/Experiment/zh_sp01_Ti_We_1_NoThetaInAudio_NoVideo.avi,noTheta,noVideo,sp01,Ti,We,1,0,4,flow/blocks/NoThetaInAudio_NoVideo_B.csv,,,,,,,,,,,,,,,,,0,0,0,0,0,30,30,12,-0.3597222222222222,-0.12916666666666668,1,0,0,4.919169400003739,call3,-0.011111111111111112,-0.2833333333333333,1,0,0,5.31101490004221,colour4,0.4083333333333333,0.2875,1,0,0,5.821095100021921,number1,True,True,True,25,5,2019_Nov_15_1712,MA_Theta_Exp,3.0.7,60.06240483833974,
video/Experiment/zh_sp07_Un_Ro_1_NoThetaInAudio_NoVideo.avi,noTheta,noVideo,sp07,Un,Ro,1,0,4,flow/blocks/NoThetaInAudio_NoVideo_B.csv,,,,,,,,,,,,,,,,,0,0,0,0,0,31,31,24,-0.3875,-0.3263888888888889,1,0,0,4.6287946999655105,call4,0.004166666666666667,-0.15138888888888888,1,0,0,5.0981052000424825,colour3,0.3875,0.29583333333333334,1,0,0,5.577681800001301,number1,True,True,True,25,5,2019_Nov_15_1712,MA_Theta_Exp,3.0.7,60.06240483833974,
video/Experiment/zh_sp01_Un_We_2_GlobalTheta_NoVideo.avi,globalTheta,noVideo,sp01,Un,We,2,1,5,flow/blocks/GlobalTheta_NoVideo_B.csv,,,,,,,,,,,,,,,,,0,1,1,1,0,0,0,29,-0.375,-0.3263888888888889,1,0,0,5.390877300000284,call4,-0.022222222222222223,-0.29444444444444445,1,0,0,5.7898327999864705,colour4,0.4041666666666667,0.1597222222222222,1,0,0,6.290433500020299,number2,True,True,True,25,5,2019_Nov_15_1712,MA_Theta_Exp,3.0.7,60.06240483833974,
video/Experiment/zh_sp01_Un_Ro_4_GlobalTheta_NoVideo.avi,globalTheta,noVideo,sp01,Un,Ro,4,1,5,flow/blocks/GlobalTheta_NoVideo_B.csv,,,,,,,,,,,,,,,,,0,1,1,1,0,1,1,27,-0.39861111111111114,-0.3138888888888889,1,0,0,4.931393199949525,call4,-0.022222222222222223,-0.1111111111111111,1,0,0,5.376059999980498,colour3,0.3597222222222222,-0.28055555555555556,1,0,0,5.721723900001962,number4,True,True,True,25,5,2019_Nov_15_1712,MA_Theta_Exp,3.0.7,60.06240483833974,
video/Experiment/zh_sp07_Ti_Gr_2_GlobalTheta_NoVideo.avi,globalTheta,noVideo,sp07,Ti,Gr,2,1,5,flow/blocks/GlobalTheta_NoVideo_B.csv,,,,,,,,,,,,,,,,,0,1,1,1,0,2,2,5,-0.39444444444444443,-0.125,1,0,0,4.842827100015711,call3,0.034722222222222224,0.08472222222222223,1,0,0,5.490425399970263,colour2,0.3875,0.10138888888888889,1,0,0,5.8889820000040345,number2,True,True,True,25,5,2019_Nov_15_1712,MA_Theta_Exp,3.0.7,60.06240483833974,
video/Experiment/zh_sp01_Un_Ge_1_GlobalTheta_NoVideo.avi,globalTheta,noVideo,sp01,Un,Ge,1,1,5,flow/blocks/GlobalTheta_NoVideo_B.csv,,,,,,,,,,,,,,,,,0,1,1,1,0,3,3,16,-0.4041666666666667,-0.31805555555555554,1,0,0,5.31788389995927,call4,-0.011111111111111112,0.2861111111111111,1,0,0,5.911638299992774,colour1,0.36527777777777776,0.31805555555555554,1,0,0,6.248564200010151,number1,True,True,True,25,5,2019_Nov_15_1712,MA_Theta_Exp,3.0.7,60.06240483833974,
video/Experiment/zh_sp07_Un_Ge_4_GlobalTheta_NoVideo.avi,globalTheta,noVideo,sp07,Un,Ge,4,1,5,flow/blocks/GlobalTheta_NoVideo_B.csv,,,,,,,,,,,,,,,,,0,1,1,1,0,4,4,19,-0.4097222222222222,-0.3013888888888889,1,0,0,4.345136400021147,call4,0.029166666666666667,0.31527777777777777,1,0,0,5.078832899976987,colour1,0.3736111111111111,-0.12777777777777777,1,0,0,5.549189999990631,number3,True,True,False,25,5,2019_Nov_15_1712,MA_Theta_Exp,3.0.7,60.06240483833974,
video/Experiment/zh_sp07_Un_Gr_4_GlobalTheta_NoVideo.avi,globalTheta,noVideo,sp07,Un,Gr,4,1,5,flow/blocks/GlobalTheta_NoVideo_B.csv,,,,,,,,,,,,,,,,,0,1,1,1,0,5,5,23,-0.37777777777777777,-0.3,1,0,0,4.685503899992909,call4,0.06944444444444445,0.10138888888888889,1,0,0,5.2169631000142545,colour2,0.3597222222222222,-0.10972222222222222,1,0,0,5.5853819999611005,number3,True,True,False,25,5,2019_Nov_15_1712,MA_Theta_Exp,3.0.7,60.06240483833974,
video/Experiment/zh_sp07_Un_We_1_GlobalTheta_NoVideo.avi,globalTheta,noVideo,sp07,Un,We,1,1,5,flow/blocks/GlobalTheta_NoVideo_B.csv,,,,,,,,,,,,,,,,,0,1,1,1,0,6,6,28,-0.36527777777777776,-0.32916666666666666,1,0,0,5.164058899972588,call4,0.005555555555555556,-0.3347222222222222,1,0,0,5.680363000021316,colour4,0.4013888888888889,0.25972222222222224,1,0,0,6.201646999979857,number1,True,True,True,25,5,2019_Nov_15_1712,MA_Theta_Exp,3.0.7,60.06240483833974,
video/Experiment/zh_sp01_Un_Gr_1_GlobalTheta_NoVideo.avi,globalTheta,noVideo,sp01,Un,Gr,1,1,5,flow/blocks/GlobalTheta_NoVideo_B.csv,,,,,,,,,,,,,,,,,0,1,1,1,0,7,7,20,-0.4152777777777778,-0.30416666666666664,1,0,0,5.240698000008706,call4,0.041666666666666664,0.11388888888888889,1,0,0,6.145748700015247,colour2,0.32222222222222224,0.30972222222222223,1,0,0,6.47117169998819,number1,True,True,True,25,5,2019_Nov_15_1712,MA_Theta_Exp,3.0.7,60.06240483833974,
video/Experiment/zh_sp07_Ti_Ge_1_GlobalTheta_NoVideo.avi,globalTheta,noVideo,sp07,Ti,Ge,1,1,5,flow/blocks/GlobalTheta_NoVideo_B.csv,,,,,,,,,,,,,,,,,0,1,1,1,0,8,8,0,-0.37222222222222223,-0.13333333333333333,1,0,0,4.617207599978428,call3,0.013888888888888888,0.25416666666666665,1,0,0,5.066342200036161,colour1,0.43472222222222223,0.34444444444444444,1,0,0,5.388192199985497,number1,True,True,True,25,5,2019_Nov_15_1712,MA_Theta_Exp,3.0.7,60.06240483833974,
video/Experiment/zh_sp07_Ti_We_2_GlobalTheta_NoVideo.avi,globalTheta,noVideo,sp07,Ti,We,2,1,5,flow/blocks/GlobalTheta_NoVideo_B.csv,,,,,,,,,,,,,,,,,0,1,1,1,0,9,9,13,-0.41944444444444445,-0.1111111111111111,1,0,0,4.4500278000487015,call3,-0.043055555555555555,-0.26944444444444443,1,0,0,4.837256799975876,colour4,0.3638888888888889,0.09444444444444444,1,0,0,5.272112599981483,number2,True,True,True,25,5,2019_Nov_15_1712,MA_Theta_Exp,3.0.7,60.06240483833974,
video/Experiment/zh_sp01_Ti_Ro_4_GlobalTheta_NoVideo.avi,globalTheta,noVideo,sp01,Ti,Ro,4,1,5,flow/blocks/GlobalTheta_NoVideo_B.csv,,,,,,,,,,,,,,,,,0,1,1,1,0,10,10,11,-0.3902777777777778,-0.1,1,0,0,4.899937900016084,call3,-0.044444444444444446,-0.13055555555555556,1,0,0,5.300305299984757,colour3,0.39166666666666666,-0.275,1,0,0,5.606911699986085,number4,True,True,True,25,5,2019_Nov_15_1712,MA_Theta_Exp,3.0.7,60.06240483833974,
video/Experiment/zh_sp07_Ti_Gr_1_GlobalTheta_NoVideo.avi,globalTheta,noVideo,sp07,Ti,Gr,1,1,5,flow/blocks/GlobalTheta_NoVideo_B.csv,,,,,,,,,,,,,,,,,0,1,1,1,0,11,11,4,-0.39305555555555555,-0.11666666666666667,1,0,0,4.3008651999989524,call3,0.03194444444444444,0.12638888888888888,1,0,0,5.213712700002361,colour2,0.375,0.275,1,0,0,5.566719700000249,number1,True,True,True,25,5,2019_Nov_15_1712,MA_Theta_Exp,3.0.7,60.06240483833974,
video/Experiment/zh_sp01_Ti_We_3_GlobalTheta_NoVideo.avi,globalTheta,noVideo,sp01,Ti,We,3,1,5,flow/blocks/GlobalTheta_NoVideo_B.csv,,,,,,,,,,,,,,,,,0,1,1,1,0,12,12,14,-0.3819444444444444,-0.11805555555555555,1,0,0,5.161159899958875,call3,-0.06527777777777778,-0.2972222222222222,1,0,0,5.544475200003944,colour4,0.4583333333333333,-0.14027777777777778,1,0,0,6.122769200010225,number3,True,True,True,25,5,2019_Nov_15_1712,MA_Theta_Exp,3.0.7,60.06240483833974,
video/Experiment/zh_sp01_Ti_Ro_1_GlobalTheta_NoVideo.avi,globalTheta,noVideo,sp01,Ti,Ro,1,1,5,flow/blocks/GlobalTheta_NoVideo_B.csv,,,,,,,,,,,,,,,,,0,1,1,1,0,13,13,8,-0.39305555555555555,-0.10833333333333334,1,0,0,5.134366599959321,call3,0.002777777777777778,-0.125,1,0,0,5.516093000012916,colour3,0.3902777777777778,0.28888888888888886,1,0,0,5.898540600028355,number1,True,True,True,25,5,2019_Nov_15_1712,MA_Theta_Exp,3.0.7,60.06240483833974,
video/Experiment/zh_sp07_Ti_We_1_GlobalTheta_NoVideo.avi,globalTheta,noVideo,sp07,Ti,We,1,1,5,flow/blocks/GlobalTheta_NoVideo_B.csv,,,,,,,,,,,,,,,,,0,1,1,1,0,14,14,12,-0.3861111111111111,-0.12083333333333333,1,0,0,4.35054419998778,call3,0.013888888888888888,-0.3375,1,0,0,4.729593300027773,colour4,0.38055555555555554,0.275,1,0,0,5.1833963000099175,number1,True,True,True,25,5,2019_Nov_15_1712,MA_Theta_Exp,3.0.7,60.06240483833974,
