videoFile,condition,video,speaker,callSign,colour,number,seq,id,block,exp.thisRepN,exp.thisTrialN,exp.thisN,exp.thisIndex,training.thisRepN,training.thisTrialN,training.thisN,training.thisIndex,firstHalf.thisRepN,firstHalf.thisTrialN,firstHalf.thisN,firstHalf.thisIndex,blocksA.thisRepN,blocksA.thisTrialN,blocksA.thisN,blocksA.thisIndex,mouseClickOnCall.x,mouseClickOnCall.y,mouseClickOnCall.leftButton,mouseClickOnCall.midButton,mouseClickOnCall.rightButton,mouseClickOnCall.time,mouseClickOnCall.clicked_name,mouseClickOnColour.x,mouseClickOnColour.y,mouseClickOnColour.leftButton,mouseClickOnColour.midButton,mouseClickOnColour.rightButton,mouseClickOnColour.time,mouseClickOnColour.clicked_name,mouseClickOnNumber.x,mouseClickOnNumber.y,mouseClickOnNumber.leftButton,mouseClickOnNumber.midButton,mouseClickOnNumber.rightButton,mouseClickOnNumber.time,mouseClickOnNumber.clicked_name,callSignCorrect,colourCorrect,numberCorrect,participant,order,date,expName,psychopyVersion,frameRate,
video/Training/zh_sp01_Ad_We_4_NVocInAudio_NoVideo.avi,vocoded,noVideo,sp01,Ad,We,4,,,,,,,,0,0,0,0,,,,,,,,,-0.39861111111111114,0.3060185185185185,1,0,0,7.26197009999305,call1,0.043055555555555555,-0.3398148148148148,1,0,0,8.528982599964365,colour4,0.35833333333333334,-0.32731481481481484,1,0,0,9.078471600078046,number4,True,True,True,26,1,2019_Nov_18_0902,MA_Theta_Exp,3.0.7,59.9129584468211,
video/Training/zh_sp07_Ad_Ge_3_NVocInAudio_NoVideo.avi,vocoded,noVideo,sp07,Ad,Ge,3,,,,,,,,0,1,1,1,,,,,,,,,-0.425,0.2810185185185185,1,0,0,5.326468299957924,call1,0.03888888888888889,0.3101851851851852,1,0,0,6.452993300044909,colour1,0.4236111111111111,-0.12453703703703704,1,0,0,7.218798300018534,number3,True,True,True,26,1,2019_Nov_18_0902,MA_Theta_Exp,3.0.7,59.9129584468211,
video/Training/zh_sp01_Dr_Ro_3_NVocInAudio_GlobalThetaInVideo.avi,vocoded,plusVideo,sp01,Dr,Ro,3,,,,,,,,0,2,2,2,,,,,,,,,-0.38472222222222224,0.09351851851851851,1,0,0,6.676867899950594,call2,0.4111111111111111,-0.1300925925925926,1,0,0,7.947720499942079,colour1,0.4166666666666667,-0.1162037037037037,1,0,0,10.874880100018345,number3,True,False,True,26,1,2019_Nov_18_0902,MA_Theta_Exp,3.0.7,59.9129584468211,
video/Training/zh_sp07_Dr_Gr_4_NVocInAudio_GlobalThetaInVideo.avi,vocoded,plusVideo,sp07,Dr,Gr,4,,,,,,,,0,3,3,3,,,,,,,,,-0.3680555555555556,0.14212962962962963,1,0,0,8.896772899897769,call2,0.006944444444444444,0.2712962962962963,1,0,0,11.490475800004788,colour1,0.4263888888888889,-0.29398148148148145,1,0,0,12.132493700017221,number4,True,False,True,26,1,2019_Nov_18_0902,MA_Theta_Exp,3.0.7,59.9129584468211,
video/Training/zh_sp01_Ti_Gr_2_NoThetaInAudio_NoVideo.avi,noTheta,noVideo,sp01,Ti,Gr,2,,,,,,,,0,4,4,4,,,,,,,,,-0.37916666666666665,0.0699074074074074,1,0,0,8.774834100040607,call2,0.0,0.33240740740740743,1,0,0,10.454570900066756,colour1,0.39305555555555555,0.10740740740740741,1,0,0,11.125868299975991,number2,False,False,True,26,1,2019_Nov_18_0902,MA_Theta_Exp,3.0.7,59.9129584468211,
video/Training/zh_sp07_Ti_Ro_1_NoThetaInAudio_NoVideo.avi,noTheta,noVideo,sp07,Ti,Ro,1,,,,,,,,0,5,5,5,,,,,,,,,-0.38472222222222224,0.3087962962962963,1,0,0,8.249442699947394,call1,0.044444444444444446,0.26435185185185184,1,0,0,10.292741299956106,colour1,0.36527777777777776,0.3421296296296296,1,0,0,10.89907490008045,number1,False,False,True,26,1,2019_Nov_18_0902,MA_Theta_Exp,3.0.7,59.9129584468211,
video/Training/zh_sp01_Un_Ge_1_NoThetaInAudio_GlobalThetaInVideo.avi,noTheta,plusVideo,sp01,Un,Ge,1,,,,,,,,0,6,6,6,,,,,,,,,-0.5097222222222222,0.31157407407407406,1,0,0,5.806788100046106,call1,0.025,-0.32592592592592595,1,0,0,6.891771299997345,colour4,0.3680555555555556,0.3421296296296296,1,0,0,7.540309399948455,number1,False,False,True,26,1,2019_Nov_18_0902,MA_Theta_Exp,3.0.7,59.9129584468211,
video/Training/zh_sp07_Un_We_2_NoThetaInAudio_GlobalThetaInVideo.avi,noTheta,plusVideo,sp07,Un,We,2,,,,,,,,0,7,7,7,,,,,,,,,-0.39166666666666666,-0.1287037037037037,1,0,0,6.229980100062676,call3,0.0375,-0.30092592592592593,1,0,0,7.177462000050582,colour4,0.40694444444444444,-0.1550925925925926,1,0,0,7.618347899988294,number3,False,True,False,26,1,2019_Nov_18_0902,MA_Theta_Exp,3.0.7,59.9129584468211,
video/Training/zh_sp01_Ad_Ge_1_GlobalTheta_NoVideo.avi,globalTheta,noVideo,sp01,Ad,Ge,1,,,,,,,,0,8,8,8,,,,,,,,,-0.3875,0.32685185185185184,1,0,0,5.998742699972354,call1,0.0125,-0.14675925925925926,1,0,0,6.701552699902095,colour3,0.3680555555555556,0.3074074074074074,1,0,0,7.217226800043136,number1,True,False,True,26,1,2019_Nov_18_0902,MA_Theta_Exp,3.0.7,59.9129584468211,
video/Training/zh_sp07_Ad_Ro_3_GlobalTheta_NoVideo.avi,globalTheta,noVideo,sp07,Ad,Ro,3,,,,,,,,0,9,9,9,,,,,,,,,-0.4152777777777778,0.2851851851851852,1,0,0,6.156543400022201,call1,0.041666666666666664,-0.3162037037037037,1,0,0,9.641726700006984,colour4,0.3597222222222222,0.22962962962962963,1,0,0,10.805023799999617,number1,True,False,False,26,1,2019_Nov_18_0902,MA_Theta_Exp,3.0.7,59.9129584468211,
video/Experiment/zh_sp01_Dr_Ro_2_NVocInAudio_NoVideo.avi,vocoded,noVideo,sp01,Dr,Ro,2,0,2,flow/blocks/NVocInAudio_NoVideo_A.csv,,,,,,,,,0,0,0,0,0,0,0,9,-0.3625,0.13518518518518519,1,0,0,5.814726799959317,call2,-0.018055555555555554,-0.1412037037037037,1,0,0,6.854328699992038,colour3,0.4,0.07407407407407407,1,0,0,7.401984199997969,number2,True,True,True,26,1,2019_Nov_18_0902,MA_Theta_Exp,3.0.7,59.9129584468211,
video/Experiment/zh_sp01_Ad_Gr_2_NVocInAudio_NoVideo.avi,vocoded,noVideo,sp01,Ad,Gr,2,0,2,flow/blocks/NVocInAudio_NoVideo_A.csv,,,,,,,,,0,0,0,0,0,1,1,21,-0.3902777777777778,0.35185185185185186,1,0,0,5.111889599938877,call1,0.05555555555555555,0.12268518518518519,1,0,0,5.739753799978644,colour2,0.4083333333333333,0.08796296296296297,1,0,0,6.291748899966478,number2,True,True,True,26,1,2019_Nov_18_0902,MA_Theta_Exp,3.0.7,59.9129584468211,
video/Experiment/zh_sp07_Un_Gr_1_NVocInAudio_NoVideo.avi,vocoded,noVideo,sp07,Un,Gr,1,0,2,flow/blocks/NVocInAudio_NoVideo_A.csv,,,,,,,,,0,0,0,0,0,2,2,20,-0.4444444444444444,-0.36064814814814816,1,0,0,4.8090745999943465,call4,-0.009722222222222222,0.11296296296296296,1,0,0,5.419114700052887,colour2,0.4027777777777778,0.2810185185185185,1,0,0,5.979879199992865,number1,True,True,True,26,1,2019_Nov_18_0902,MA_Theta_Exp,3.0.7,59.9129584468211,
video/Experiment/zh_sp07_Ad_Gr_3_NVocInAudio_NoVideo.avi,vocoded,noVideo,sp07,Ad,Gr,3,0,2,flow/blocks/NVocInAudio_NoVideo_A.csv,,,,,,,,,0,0,0,0,0,3,3,22,-0.3958333333333333,0.3226851851851852,1,0,0,4.808876299997792,call1,0.022222222222222223,0.09212962962962963,1,0,0,5.686811499996111,colour2,0.39444444444444443,-0.1050925925925926,1,0,0,6.163558500004001,number3,True,True,True,26,1,2019_Nov_18_0902,MA_Theta_Exp,3.0.7,59.9129584468211,
video/Experiment/zh_sp01_Ad_Gr_1_NVocInAudio_NoVideo.avi,vocoded,noVideo,sp01,Ad,Gr,1,0,2,flow/blocks/NVocInAudio_NoVideo_A.csv,,,,,,,,,0,0,0,0,0,4,4,4,-0.41805555555555557,0.31851851851851853,1,0,0,5.5984058000613,call1,0.005555555555555556,0.10462962962962963,1,0,0,6.176021700026467,colour2,0.3333333333333333,0.2671296296296296,1,0,0,6.68111989996396,number1,True,True,True,26,1,2019_Nov_18_0902,MA_Theta_Exp,3.0.7,59.9129584468211,
video/Experiment/zh_sp07_Un_Ge_3_NVocInAudio_NoVideo.avi,vocoded,noVideo,sp07,Un,Ge,3,0,2,flow/blocks/NVocInAudio_NoVideo_A.csv,,,,,,,,,0,0,0,0,0,5,5,2,-0.4305555555555556,-0.324537037037037,1,0,0,4.475997300003655,call4,0.020833333333333332,0.3087962962962963,1,0,0,5.391150199924596,colour1,0.35,-0.08287037037037037,1,0,0,5.9921894000144675,number3,True,True,True,26,1,2019_Nov_18_0902,MA_Theta_Exp,3.0.7,59.9129584468211,
video/Experiment/zh_sp07_Ad_Ro_1_NVocInAudio_NoVideo.avi,vocoded,noVideo,sp07,Ad,Ro,1,0,2,flow/blocks/NVocInAudio_NoVideo_A.csv,,,,,,,,,0,0,0,0,0,6,6,8,-0.43472222222222223,0.3226851851851852,1,0,0,4.624758300022222,call1,-0.008333333333333333,-0.09675925925925925,1,0,0,5.290523800067604,colour3,0.3680555555555556,0.2726851851851852,1,0,0,5.974287400022149,number1,True,True,True,26,1,2019_Nov_18_0902,MA_Theta_Exp,3.0.7,59.9129584468211,
video/Experiment/zh_sp01_Ti_Gr_4_NVocInAudio_NoVideo.avi,vocoded,noVideo,sp01,Ti,Gr,4,0,2,flow/blocks/NVocInAudio_NoVideo_A.csv,,,,,,,,,0,0,0,0,0,7,7,7,-0.4083333333333333,-0.1412037037037037,1,0,0,5.168407300021499,call3,-0.020833333333333332,0.06574074074074074,1,0,0,5.7510322000598535,colour2,0.41944444444444445,-0.2773148148148148,1,0,0,6.4436907999916,number4,True,True,True,26,1,2019_Nov_18_0902,MA_Theta_Exp,3.0.7,59.9129584468211,
video/Experiment/zh_sp07_Ad_We_3_NVocInAudio_NoVideo.avi,vocoded,noVideo,sp07,Ad,We,3,0,2,flow/blocks/NVocInAudio_NoVideo_A.csv,,,,,,,,,0,0,0,0,0,8,8,30,-0.3680555555555556,0.31712962962962965,1,0,0,4.548841299954802,call1,-0.029166666666666667,-0.3175925925925926,1,0,0,5.377396600088105,colour4,0.41388888888888886,-0.14537037037037037,1,0,0,5.944049800047651,number3,True,True,True,26,1,2019_Nov_18_0902,MA_Theta_Exp,3.0.7,59.9129584468211,
video/Experiment/zh_sp07_Un_We_4_NVocInAudio_NoVideo.avi,vocoded,noVideo,sp07,Un,We,4,0,2,flow/blocks/NVocInAudio_NoVideo_A.csv,,,,,,,,,0,0,0,0,0,9,9,15,-0.35694444444444445,0.10324074074074074,1,0,0,4.670437399996445,call2,-0.37083333333333335,-0.33425925925925926,1,0,0,6.216588599956594,,,,,,,,,False,NO_ANSW,NO_ANSW,26,1,2019_Nov_18_0902,MA_Theta_Exp,3.0.7,59.9129584468211,
video/Experiment/zh_sp01_Ti_Ge_1_NVocInAudio_NoVideo.avi,vocoded,noVideo,sp01,Ti,Ge,1,0,2,flow/blocks/NVocInAudio_NoVideo_A.csv,,,,,,,,,0,0,0,0,0,10,10,16,-0.4,-0.2814814814814815,1,0,0,7.236863799975254,call4,-0.03611111111111111,-0.30787037037037035,1,0,0,7.77339640003629,colour4,0.37222222222222223,-0.27037037037037037,1,0,0,8.270126600051299,number4,False,False,False,26,1,2019_Nov_18_0902,MA_Theta_Exp,3.0.7,59.9129584468211,
video/Experiment/zh_sp01_Ad_We_1_NVocInAudio_NoVideo.avi,vocoded,noVideo,sp01,Ad,We,1,0,2,flow/blocks/NVocInAudio_NoVideo_A.csv,,,,,,,,,0,0,0,0,0,11,11,12,-0.37777777777777777,0.32083333333333336,1,0,0,5.189662199933082,call1,0.005555555555555556,-0.32916666666666666,1,0,0,5.992978899972513,colour4,0.3763888888888889,0.2972222222222222,1,0,0,6.510765000013635,number1,True,True,True,26,1,2019_Nov_18_0902,MA_Theta_Exp,3.0.7,59.9129584468211,
video/Experiment/zh_sp07_Un_Ro_1_NVocInAudio_NoVideo.avi,vocoded,noVideo,sp07,Un,Ro,1,0,2,flow/blocks/NVocInAudio_NoVideo_A.csv,,,,,,,,,0,0,0,0,0,12,12,24,-0.4083333333333333,-0.36527777777777776,1,0,0,5.4829385000048205,call4,0.06388888888888888,-0.10833333333333334,1,0,0,6.387781700002961,colour3,0.39166666666666666,0.29444444444444445,1,0,0,6.917786799953319,number1,True,True,True,26,1,2019_Nov_18_0902,MA_Theta_Exp,3.0.7,59.9129584468211,
video/Experiment/zh_sp01_Dr_Ge_4_NVocInAudio_NoVideo.avi,vocoded,noVideo,sp01,Dr,Ge,4,0,2,flow/blocks/NVocInAudio_NoVideo_A.csv,,,,,,,,,0,0,0,0,0,13,13,19,-0.37083333333333335,0.09166666666666666,1,0,0,5.4191586000379175,call2,0.04583333333333333,0.31666666666666665,1,0,0,5.968821299960837,colour1,0.40694444444444444,-0.34305555555555556,1,0,0,6.685743299894966,number4,True,True,True,26,1,2019_Nov_18_0902,MA_Theta_Exp,3.0.7,59.9129584468211,
video/Experiment/zh_sp01_Dr_Gr_3_NVocInAudio_NoVideo.avi,vocoded,noVideo,sp01,Dr,Gr,3,0,2,flow/blocks/NVocInAudio_NoVideo_A.csv,,,,,,,,,0,0,0,0,0,14,14,6,-0.4013888888888889,0.09444444444444444,1,0,0,5.2394044999964535,call2,0.02638888888888889,0.09166666666666666,1,0,0,5.894527900032699,colour2,0.4444444444444444,-0.12361111111111112,1,0,0,6.607274999958463,number3,True,True,True,26,1,2019_Nov_18_0902,MA_Theta_Exp,3.0.7,59.9129584468211,
video/Experiment/zh_sp07_Ti_Ro_2_NVocInAudio_NoVideo.avi,vocoded,noVideo,sp07,Ti,Ro,2,0,2,flow/blocks/NVocInAudio_NoVideo_A.csv,,,,,,,,,0,0,0,0,0,15,15,25,-0.4152777777777778,-0.1,1,0,0,4.858100400073454,call3,0.04861111111111111,-0.12916666666666668,1,0,0,5.738210599985905,colour3,0.4027777777777778,0.0763888888888889,1,0,0,6.223656599991955,number2,True,True,True,26,1,2019_Nov_18_0902,MA_Theta_Exp,3.0.7,59.9129584468211,
video/Experiment/zh_sp01_Dr_Ge_1_NVocInAudio_NoVideo.avi,vocoded,noVideo,sp01,Dr,Ge,1,0,2,flow/blocks/NVocInAudio_NoVideo_A.csv,,,,,,,,,0,0,0,0,0,16,16,0,-0.37222222222222223,0.1125,1,0,0,5.401392400031909,call2,-0.016666666666666666,0.3055555555555556,1,0,0,5.8477330999448895,colour1,0.4305555555555556,0.3013888888888889,1,0,0,6.317241600016132,number1,True,True,True,26,1,2019_Nov_18_0902,MA_Theta_Exp,3.0.7,59.9129584468211,
video/Experiment/zh_sp07_Ad_We_2_NVocInAudio_NoVideo.avi,vocoded,noVideo,sp07,Ad,We,2,0,2,flow/blocks/NVocInAudio_NoVideo_A.csv,,,,,,,,,0,0,0,0,0,17,17,29,-0.4041666666666667,0.08472222222222223,1,0,0,5.392530800076202,call2,0.018055555555555554,-0.3277777777777778,1,0,0,6.511915800045244,colour4,0.41388888888888886,0.027777777777777776,1,0,0,7.057933999923989,number2,False,True,True,26,1,2019_Nov_18_0902,MA_Theta_Exp,3.0.7,59.9129584468211,
video/Experiment/zh_sp01_Ti_Ge_3_NVocInAudio_NoVideo.avi,vocoded,noVideo,sp01,Ti,Ge,3,0,2,flow/blocks/NVocInAudio_NoVideo_A.csv,,,,,,,,,0,0,0,0,0,18,18,18,-0.38472222222222224,-0.13472222222222222,1,0,0,5.3347272999817505,call3,-0.005555555555555556,0.325,1,0,0,5.903876599972136,colour1,0.37222222222222223,-0.10416666666666667,1,0,0,6.507625500089489,number3,True,True,True,26,1,2019_Nov_18_0902,MA_Theta_Exp,3.0.7,59.9129584468211,
video/Experiment/zh_sp07_Un_We_3_NVocInAudio_NoVideo.avi,vocoded,noVideo,sp07,Un,We,3,0,2,flow/blocks/NVocInAudio_NoVideo_A.csv,,,,,,,,,0,0,0,0,0,19,19,14,-0.4027777777777778,-0.35833333333333334,1,0,0,4.284060699981637,call4,0.008333333333333333,-0.3263888888888889,1,0,0,4.733758099959232,colour4,0.4027777777777778,-0.13194444444444445,1,0,0,5.156238999916241,number3,True,True,True,26,1,2019_Nov_18_0902,MA_Theta_Exp,3.0.7,59.9129584468211,
video/Experiment/zh_sp01_Un_Ro_3_NVocInAudio_NoVideo.avi,vocoded,noVideo,sp01,Un,Ro,3,0,2,flow/blocks/NVocInAudio_NoVideo_A.csv,,,,,,,,,0,0,0,0,0,20,20,26,-0.4263888888888889,-0.3138888888888889,1,0,0,4.948011200060137,call4,-0.04027777777777778,-0.09444444444444444,1,0,0,5.463685899972916,colour3,0.42777777777777776,-0.12361111111111112,1,0,0,5.991422999999486,number3,True,True,True,26,1,2019_Nov_18_0902,MA_Theta_Exp,3.0.7,59.9129584468211,
video/Experiment/zh_sp07_Dr_Ro_4_NVocInAudio_NoVideo.avi,vocoded,noVideo,sp07,Dr,Ro,4,0,2,flow/blocks/NVocInAudio_NoVideo_A.csv,,,,,,,,,0,0,0,0,0,21,21,27,-0.3972222222222222,0.10833333333333334,1,0,0,5.538247299962677,call2,0.058333333333333334,-0.14722222222222223,1,0,0,6.471316000097431,colour3,0.39861111111111114,-0.3138888888888889,1,0,0,6.971117399982177,number4,True,True,True,26,1,2019_Nov_18_0902,MA_Theta_Exp,3.0.7,59.9129584468211,
video/Experiment/zh_sp01_Ti_Ro_3_NVocInAudio_NoVideo.avi,vocoded,noVideo,sp01,Ti,Ro,3,0,2,flow/blocks/NVocInAudio_NoVideo_A.csv,,,,,,,,,0,0,0,0,0,22,22,10,-0.3902777777777778,-0.06388888888888888,1,0,0,5.317105900030583,call3,0.02638888888888889,-0.07083333333333333,1,0,0,5.894705499988049,colour3,0.3597222222222222,-0.10694444444444444,1,0,0,6.366344899986871,number3,True,True,True,26,1,2019_Nov_18_0902,MA_Theta_Exp,3.0.7,59.9129584468211,
video/Experiment/zh_sp01_Un_Ge_2_NVocInAudio_NoVideo.avi,vocoded,noVideo,sp01,Un,Ge,2,0,2,flow/blocks/NVocInAudio_NoVideo_A.csv,,,,,,,,,0,0,0,0,0,23,23,17,-0.37777777777777777,-0.37222222222222223,1,0,0,4.983810000005178,call4,0.027777777777777776,0.3125,1,0,0,5.877515900065191,colour1,0.38055555555555554,0.07777777777777778,1,0,0,6.419124100008048,number2,True,True,True,26,1,2019_Nov_18_0902,MA_Theta_Exp,3.0.7,59.9129584468211,
video/Experiment/zh_sp07_Dr_We_2_NVocInAudio_NoVideo.avi,vocoded,noVideo,sp07,Dr,We,2,0,2,flow/blocks/NVocInAudio_NoVideo_A.csv,,,,,,,,,0,0,0,0,0,24,24,13,-0.3763888888888889,0.1111111111111111,1,0,0,4.774562199949287,call2,0.005555555555555556,-0.30972222222222223,1,0,0,5.50893220002763,colour4,0.39444444444444443,0.1486111111111111,1,0,0,6.1926620999583974,number2,True,True,True,26,1,2019_Nov_18_0902,MA_Theta_Exp,3.0.7,59.9129584468211,
video/Experiment/zh_sp01_Ad_Ro_4_NVocInAudio_NoVideo.avi,vocoded,noVideo,sp01,Ad,Ro,4,0,2,flow/blocks/NVocInAudio_NoVideo_A.csv,,,,,,,,,0,0,0,0,0,25,25,11,-0.3875,0.3402777777777778,1,0,0,5.244888099958189,call1,0.019444444444444445,-0.12916666666666668,1,0,0,5.854229099932127,colour3,0.4097222222222222,-0.3486111111111111,1,0,0,6.322987399995327,number4,True,True,True,26,1,2019_Nov_18_0902,MA_Theta_Exp,3.0.7,59.9129584468211,
video/Experiment/zh_sp01_Dr_Gr_2_NVocInAudio_NoVideo.avi,vocoded,noVideo,sp01,Dr,Gr,2,0,2,flow/blocks/NVocInAudio_NoVideo_A.csv,,,,,,,,,0,0,0,0,0,26,26,5,-0.3972222222222222,0.08472222222222223,1,0,0,5.557437699986622,call2,0.07083333333333333,0.09027777777777778,1,0,0,6.385607699980028,colour2,0.4375,0.08472222222222223,1,0,0,6.941500799963251,number2,True,True,True,26,1,2019_Nov_18_0902,MA_Theta_Exp,3.0.7,59.9129584468211,
video/Experiment/zh_sp07_Ti_Ge_4_NVocInAudio_NoVideo.avi,vocoded,noVideo,sp07,Ti,Ge,4,0,2,flow/blocks/NVocInAudio_NoVideo_A.csv,,,,,,,,,0,0,0,0,0,27,27,3,-0.4097222222222222,-0.0763888888888889,1,0,0,4.726739300065674,call3,0.015277777777777777,0.29305555555555557,1,0,0,5.2612721000332385,colour1,0.3736111111111111,-0.29305555555555557,1,0,0,5.927051799953915,number4,True,True,True,26,1,2019_Nov_18_0902,MA_Theta_Exp,3.0.7,59.9129584468211,
video/Experiment/zh_sp01_Ti_We_4_NVocInAudio_NoVideo.avi,vocoded,noVideo,sp01,Ti,We,4,0,2,flow/blocks/NVocInAudio_NoVideo_A.csv,,,,,,,,,0,0,0,0,0,28,28,31,-0.39861111111111114,-0.1,1,0,0,5.14998770004604,call3,-0.020833333333333332,-0.32222222222222224,1,0,0,5.58578550000675,colour4,0.4388888888888889,-0.31666666666666665,1,0,0,6.066470799967647,number4,True,True,True,26,1,2019_Nov_18_0902,MA_Theta_Exp,3.0.7,59.9129584468211,
video/Experiment/zh_sp07_Dr_Gr_4_NVocInAudio_NoVideo.avi,vocoded,noVideo,sp07,Dr,Gr,4,0,2,flow/blocks/NVocInAudio_NoVideo_A.csv,,,,,,,,,0,0,0,0,0,29,29,23,-0.3861111111111111,0.08472222222222223,1,0,0,4.707627699943259,call2,0.019444444444444445,0.10277777777777777,1,0,0,5.2078329001087695,colour2,0.3541666666666667,-0.2972222222222222,1,0,0,5.829132899991237,number4,True,True,True,26,1,2019_Nov_18_0902,MA_Theta_Exp,3.0.7,59.9129584468211,
video/Experiment/zh_sp07_Un_We_1_NVocInAudio_NoVideo.avi,vocoded,noVideo,sp07,Un,We,1,0,2,flow/blocks/NVocInAudio_NoVideo_A.csv,,,,,,,,,0,0,0,0,0,30,30,28,-0.39305555555555555,-0.3125,1,0,0,4.50127829995472,call4,0.011111111111111112,-0.31666666666666665,1,0,0,4.980441699968651,colour4,0.3680555555555556,0.3138888888888889,1,0,0,5.7137958001112565,number1,True,True,True,26,1,2019_Nov_18_0902,MA_Theta_Exp,3.0.7,59.9129584468211,
video/Experiment/zh_sp07_Ti_Ge_2_NVocInAudio_NoVideo.avi,vocoded,noVideo,sp07,Ti,Ge,2,0,2,flow/blocks/NVocInAudio_NoVideo_A.csv,,,,,,,,,0,0,0,0,0,31,31,1,-0.41388888888888886,-0.08888888888888889,1,0,0,4.888884700019844,call3,-0.02361111111111111,0.3125,1,0,0,5.423068400006741,colour1,0.3888888888888889,0.06111111111111111,1,0,0,5.921609099954367,number2,True,True,True,26,1,2019_Nov_18_0902,MA_Theta_Exp,3.0.7,59.9129584468211,
video/Experiment/zh_sp01_Un_Ge_1_NoThetaInAudio_GlobalThetaInVideo.avi,noTheta,plusVideo,sp01,Un,Ge,1,1,3,flow/blocks/NoThetaInAudio_GlobalThetaInVideo_B.csv,,,,,,,,,0,1,1,1,0,0,0,0,-0.4111111111111111,0.1597222222222222,1,0,0,5.764310200000182,call2,-0.08888888888888889,0.29583333333333334,1,0,0,6.286829199991189,colour1,0.32916666666666666,0.2875,1,0,0,6.763701200019568,number1,False,True,True,26,1,2019_Nov_18_0902,MA_Theta_Exp,3.0.7,59.9129584468211,
video/Experiment/zh_sp07_Dr_Gr_1_NoThetaInAudio_GlobalThetaInVideo.avi,noTheta,plusVideo,sp07,Dr,Gr,1,1,3,flow/blocks/NoThetaInAudio_GlobalThetaInVideo_B.csv,,,,,,,,,0,1,1,1,0,1,1,20,-0.4125,0.11805555555555555,1,0,0,4.374358900007792,call2,-0.001388888888888889,-0.29444444444444445,1,0,0,4.91900989995338,colour4,0.3888888888888889,0.3138888888888889,1,0,0,5.596470899996348,number1,True,False,True,26,1,2019_Nov_18_0902,MA_Theta_Exp,3.0.7,59.9129584468211,
video/Experiment/zh_sp01_Ti_We_1_NoThetaInAudio_GlobalThetaInVideo.avi,noTheta,plusVideo,sp01,Ti,We,1,1,3,flow/blocks/NoThetaInAudio_GlobalThetaInVideo_B.csv,,,,,,,,,0,1,1,1,0,2,2,12,-0.40694444444444444,-0.3277777777777778,1,0,0,6.734807299915701,call4,0.08055555555555556,-0.34305555555555556,1,0,0,7.187087400001474,colour4,0.3972222222222222,0.2611111111111111,1,0,0,7.863168600015342,number1,False,True,True,26,1,2019_Nov_18_0902,MA_Theta_Exp,3.0.7,59.9129584468211,
video/Experiment/zh_sp01_Dr_Ge_3_NoThetaInAudio_GlobalThetaInVideo.avi,noTheta,plusVideo,sp01,Dr,Ge,3,1,3,flow/blocks/NoThetaInAudio_GlobalThetaInVideo_B.csv,,,,,,,,,0,1,1,1,0,3,3,2,-0.37777777777777777,0.11805555555555555,1,0,0,5.089718100032769,call2,-0.030555555555555555,0.2847222222222222,1,0,0,5.518705699942075,colour1,0.39444444444444443,-0.08055555555555556,1,0,0,6.017862299922854,number3,True,True,True,26,1,2019_Nov_18_0902,MA_Theta_Exp,3.0.7,59.9129584468211,
video/Experiment/zh_sp01_Ti_Ro_1_NoThetaInAudio_GlobalThetaInVideo.avi,noTheta,plusVideo,sp01,Ti,Ro,1,1,3,flow/blocks/NoThetaInAudio_GlobalThetaInVideo_B.csv,,,,,,,,,0,1,1,1,0,4,4,8,-0.43333333333333335,0.0625,1,0,0,5.150743600097485,call2,0.025,-0.10972222222222222,1,0,0,5.628517800010741,colour3,0.3416666666666667,0.28055555555555556,1,0,0,6.1361218999372795,number1,False,True,True,26,1,2019_Nov_18_0902,MA_Theta_Exp,3.0.7,59.9129584468211,
video/Experiment/zh_sp01_Ad_Ge_4_NoThetaInAudio_GlobalThetaInVideo.avi,noTheta,plusVideo,sp01,Ad,Ge,4,1,3,flow/blocks/NoThetaInAudio_GlobalThetaInVideo_B.csv,,,,,,,,,0,1,1,1,0,5,5,3,-0.36944444444444446,0.2763888888888889,1,0,0,4.998841700027697,call1,0.013888888888888888,0.30694444444444446,1,0,0,5.514856199966744,colour1,0.4375,-0.32222222222222224,1,0,0,6.351509999949485,number4,True,True,True,26,1,2019_Nov_18_0902,MA_Theta_Exp,3.0.7,59.9129584468211,
video/Experiment/zh_sp01_Ad_Ge_3_NoThetaInAudio_GlobalThetaInVideo.avi,noTheta,plusVideo,sp01,Ad,Ge,3,1,3,flow/blocks/NoThetaInAudio_GlobalThetaInVideo_B.csv,,,,,,,,,0,1,1,1,0,6,6,18,-0.35694444444444445,0.30833333333333335,1,0,0,4.884261599974707,call1,-0.001388888888888889,0.3125,1,0,0,5.3303210999583825,colour1,0.38055555555555554,-0.11805555555555555,1,0,0,5.880600299919024,number3,True,True,True,26,1,2019_Nov_18_0902,MA_Theta_Exp,3.0.7,59.9129584468211,
video/Experiment/zh_sp01_Un_Gr_2_NoThetaInAudio_GlobalThetaInVideo.avi,noTheta,plusVideo,sp01,Un,Gr,2,1,3,flow/blocks/NoThetaInAudio_GlobalThetaInVideo_B.csv,,,,,,,,,0,1,1,1,0,7,7,5,-0.4,0.2791666666666667,1,0,0,5.553203199990094,call1,0.0125,-0.3736111111111111,1,0,0,6.106223099981435,colour4,0.36944444444444446,0.04583333333333333,1,0,0,6.5652022999711335,number2,False,False,True,26,1,2019_Nov_18_0902,MA_Theta_Exp,3.0.7,59.9129584468211,
video/Experiment/zh_sp07_Ad_Ro_3_NoThetaInAudio_GlobalThetaInVideo.avi,noTheta,plusVideo,sp07,Ad,Ro,3,1,3,flow/blocks/NoThetaInAudio_GlobalThetaInVideo_B.csv,,,,,,,,,0,1,1,1,0,8,8,10,-0.37083333333333335,0.10972222222222222,1,0,0,4.784206700045615,call2,0.002777777777777778,0.3194444444444444,1,0,0,5.328278200002387,colour1,0.41388888888888886,-0.075,1,0,0,5.911967399995774,number3,False,False,True,26,1,2019_Nov_18_0902,MA_Theta_Exp,3.0.7,59.9129584468211,
video/Experiment/zh_sp07_Ti_Gr_3_NoThetaInAudio_GlobalThetaInVideo.avi,noTheta,plusVideo,sp07,Ti,Gr,3,1,3,flow/blocks/NoThetaInAudio_GlobalThetaInVideo_B.csv,,,,,,,,,0,1,1,1,0,9,9,22,-0.39166666666666666,0.12083333333333333,1,0,0,4.525227400008589,call2,-0.0125,0.06944444444444445,1,0,0,4.930597099941224,colour2,0.42777777777777776,-0.12222222222222222,1,0,0,5.3917046000715345,number3,False,True,True,26,1,2019_Nov_18_0902,MA_Theta_Exp,3.0.7,59.9129584468211,
video/Experiment/zh_sp07_Dr_We_4_NoThetaInAudio_GlobalThetaInVideo.avi,noTheta,plusVideo,sp07,Dr,We,4,1,3,flow/blocks/NoThetaInAudio_GlobalThetaInVideo_B.csv,,,,,,,,,0,1,1,1,0,10,10,15,-0.4125,0.10694444444444444,1,0,0,4.542471900000237,call2,0.011111111111111112,-0.31805555555555554,1,0,0,5.093385500018485,colour4,0.4263888888888889,-0.32222222222222224,1,0,0,5.626813999959268,number4,True,True,True,26,1,2019_Nov_18_0902,MA_Theta_Exp,3.0.7,59.9129584468211,
video/Experiment/zh_sp01_Un_Gr_4_NoThetaInAudio_GlobalThetaInVideo.avi,noTheta,plusVideo,sp01,Un,Gr,4,1,3,flow/blocks/NoThetaInAudio_GlobalThetaInVideo_B.csv,,,,,,,,,0,1,1,1,0,11,11,23,-0.3638888888888889,-0.35694444444444445,1,0,0,5.126260700053535,call4,0.03194444444444444,0.06805555555555555,1,0,0,7.33488620002754,colour2,0.38472222222222224,-0.31805555555555554,1,0,0,7.8251340999267995,number4,True,True,True,26,1,2019_Nov_18_0902,MA_Theta_Exp,3.0.7,59.9129584468211,
video/Experiment/zh_sp01_Ti_Ro_4_NoThetaInAudio_GlobalThetaInVideo.avi,noTheta,plusVideo,sp01,Ti,Ro,4,1,3,flow/blocks/NoThetaInAudio_GlobalThetaInVideo_B.csv,,,,,,,,,0,1,1,1,0,12,12,11,-0.43333333333333335,-0.35,1,0,0,5.070560400024988,call4,0.013888888888888888,-0.14583333333333334,1,0,0,5.673580599948764,colour3,0.3736111111111111,-0.325,1,0,0,6.1588471999857575,number4,False,True,True,26,1,2019_Nov_18_0902,MA_Theta_Exp,3.0.7,59.9129584468211,
video/Experiment/zh_sp01_Un_We_2_NoThetaInAudio_GlobalThetaInVideo.avi,noTheta,plusVideo,sp01,Un,We,2,1,3,flow/blocks/NoThetaInAudio_GlobalThetaInVideo_B.csv,,,,,,,,,0,1,1,1,0,13,13,13,-0.35555555555555557,-0.1388888888888889,1,0,0,5.693107299972326,call3,0.03888888888888889,-0.33055555555555555,1,0,0,6.106623400002718,colour4,0.44583333333333336,0.10277777777777777,1,0,0,6.637682999949902,number2,False,True,True,26,1,2019_Nov_18_0902,MA_Theta_Exp,3.0.7,59.9129584468211,
video/Experiment/zh_sp07_Un_Ro_2_NoThetaInAudio_GlobalThetaInVideo.avi,noTheta,plusVideo,sp07,Un,Ro,2,1,3,flow/blocks/NoThetaInAudio_GlobalThetaInVideo_B.csv,,,,,,,,,0,1,1,1,0,14,14,9,-0.37777777777777777,-0.10972222222222222,1,0,0,4.455921899992973,call3,0.018055555555555554,-0.14027777777777778,1,0,0,4.8551435000263155,colour3,0.3763888888888889,-0.08888888888888889,1,0,0,5.244982299976982,number3,False,True,False,26,1,2019_Nov_18_0902,MA_Theta_Exp,3.0.7,59.9129584468211,
video/Experiment/zh_sp07_Un_Ge_4_NoThetaInAudio_GlobalThetaInVideo.avi,noTheta,plusVideo,sp07,Un,Ge,4,1,3,flow/blocks/NoThetaInAudio_GlobalThetaInVideo_B.csv,,,,,,,,,0,1,1,1,0,15,15,19,-0.39305555555555555,-0.32916666666666666,1,0,0,4.503524699946865,call4,-0.004166666666666667,-0.13055555555555556,1,0,0,4.931978299980983,colour3,0.37777777777777777,-0.32083333333333336,1,0,0,5.3900855999672785,number4,True,False,True,26,1,2019_Nov_18_0902,MA_Theta_Exp,3.0.7,59.9129584468211,
video/Experiment/zh_sp07_Un_Gr_3_NoThetaInAudio_GlobalThetaInVideo.avi,noTheta,plusVideo,sp07,Un,Gr,3,1,3,flow/blocks/NoThetaInAudio_GlobalThetaInVideo_B.csv,,,,,,,,,0,1,1,1,0,16,16,6,-0.375,-0.3486111111111111,1,0,0,4.674329199944623,call4,-0.011111111111111112,0.09583333333333334,1,0,0,5.255445299902931,colour2,0.4013888888888889,-0.11666666666666667,1,0,0,5.802153400029056,number3,True,True,True,26,1,2019_Nov_18_0902,MA_Theta_Exp,3.0.7,59.9129584468211,
video/Experiment/zh_sp07_Ad_Ro_2_NoThetaInAudio_GlobalThetaInVideo.avi,noTheta,plusVideo,sp07,Ad,Ro,2,1,3,flow/blocks/NoThetaInAudio_GlobalThetaInVideo_B.csv,,,,,,,,,0,1,1,1,0,17,17,25,-0.36527777777777776,0.3194444444444444,1,0,0,4.40283829998225,call1,-0.013888888888888888,-0.09305555555555556,1,0,0,4.939313599956222,colour3,0.3972222222222222,0.08472222222222223,1,0,0,5.402811200008728,number2,True,True,True,26,1,2019_Nov_18_0902,MA_Theta_Exp,3.0.7,59.9129584468211,
video/Experiment/zh_sp01_Dr_Ge_2_NoThetaInAudio_GlobalThetaInVideo.avi,noTheta,plusVideo,sp01,Dr,Ge,2,1,3,flow/blocks/NoThetaInAudio_GlobalThetaInVideo_B.csv,,,,,,,,,0,1,1,1,0,18,18,17,-0.4097222222222222,0.12083333333333333,1,0,0,5.040793499909341,call2,0.06111111111111111,0.26944444444444443,1,0,0,6.6532691000029445,colour1,0.3736111111111111,0.1111111111111111,1,0,0,7.092287400038913,number2,True,True,True,26,1,2019_Nov_18_0902,MA_Theta_Exp,3.0.7,59.9129584468211,
video/Experiment/zh_sp01_Dr_We_1_NoThetaInAudio_GlobalThetaInVideo.avi,noTheta,plusVideo,sp01,Dr,We,1,1,3,flow/blocks/NoThetaInAudio_GlobalThetaInVideo_B.csv,,,,,,,,,0,1,1,1,0,19,19,28,-0.3402777777777778,0.08194444444444444,1,0,0,5.1230644000461325,call2,0.013888888888888888,-0.30694444444444446,1,0,0,5.66684159997385,colour4,0.4097222222222222,0.30277777777777776,1,0,0,6.240168699994683,number1,True,True,True,26,1,2019_Nov_18_0902,MA_Theta_Exp,3.0.7,59.9129584468211,
video/Experiment/zh_sp07_Ad_Ge_1_NoThetaInAudio_GlobalThetaInVideo.avi,noTheta,plusVideo,sp07,Ad,Ge,1,1,3,flow/blocks/NoThetaInAudio_GlobalThetaInVideo_B.csv,,,,,,,,,0,1,1,1,0,20,20,16,-0.35138888888888886,0.14583333333333334,1,0,0,4.66342579992488,call2,0.03333333333333333,-0.11388888888888889,1,0,0,5.2380307000130415,colour3,0.3958333333333333,0.32083333333333336,1,0,0,5.757922200020403,number1,False,False,True,26,1,2019_Nov_18_0902,MA_Theta_Exp,3.0.7,59.9129584468211,
video/Experiment/zh_sp01_Ad_Ge_2_NoThetaInAudio_GlobalThetaInVideo.avi,noTheta,plusVideo,sp01,Ad,Ge,2,1,3,flow/blocks/NoThetaInAudio_GlobalThetaInVideo_B.csv,,,,,,,,,0,1,1,1,0,21,21,1,-0.3611111111111111,0.31666666666666665,1,0,0,5.246436099987477,call1,-0.015277777777777777,0.29444444444444445,1,0,0,5.697563200024888,colour1,0.46944444444444444,0.08472222222222223,1,0,0,6.194425699999556,number2,True,True,True,26,1,2019_Nov_18_0902,MA_Theta_Exp,3.0.7,59.9129584468211,
video/Experiment/zh_sp07_Dr_We_3_NoThetaInAudio_GlobalThetaInVideo.avi,noTheta,plusVideo,sp07,Dr,We,3,1,3,flow/blocks/NoThetaInAudio_GlobalThetaInVideo_B.csv,,,,,,,,,0,1,1,1,0,22,22,14,-0.37222222222222223,0.23333333333333334,1,0,0,4.3767625000327826,call1,-0.013888888888888888,-0.3375,1,0,0,4.999945499934256,colour4,0.4,-0.08611111111111111,1,0,0,5.538532599923201,number3,False,True,True,26,1,2019_Nov_18_0902,MA_Theta_Exp,3.0.7,59.9129584468211,
video/Experiment/zh_sp01_Ti_We_3_NoThetaInAudio_GlobalThetaInVideo.avi,noTheta,plusVideo,sp01,Ti,We,3,1,3,flow/blocks/NoThetaInAudio_GlobalThetaInVideo_B.csv,,,,,,,,,0,1,1,1,0,23,23,30,-0.4166666666666667,-0.12777777777777777,1,0,0,5.268646199954674,call3,0.011111111111111112,-0.3388888888888889,1,0,0,5.7235986000159755,colour4,0.3972222222222222,-0.1486111111111111,1,0,0,6.169221800053492,number3,True,True,True,26,1,2019_Nov_18_0902,MA_Theta_Exp,3.0.7,59.9129584468211,
video/Experiment/zh_sp07_Ti_Gr_1_NoThetaInAudio_GlobalThetaInVideo.avi,noTheta,plusVideo,sp07,Ti,Gr,1,1,3,flow/blocks/NoThetaInAudio_GlobalThetaInVideo_B.csv,,,,,,,,,0,1,1,1,0,24,24,4,-0.39861111111111114,-0.1388888888888889,1,0,0,4.226339099928737,call3,-0.043055555555555555,0.08611111111111111,1,0,0,4.693712500040419,colour2,0.38055555555555554,0.2763888888888889,1,0,0,5.2278118000831455,number1,True,True,True,26,1,2019_Nov_18_0902,MA_Theta_Exp,3.0.7,59.9129584468211,
video/Experiment/zh_sp07_Ad_We_4_NoThetaInAudio_GlobalThetaInVideo.avi,noTheta,plusVideo,sp07,Ad,We,4,1,3,flow/blocks/NoThetaInAudio_GlobalThetaInVideo_B.csv,,,,,,,,,0,1,1,1,0,25,25,31,-0.40694444444444444,0.26944444444444443,1,0,0,4.803556800005026,call1,0.008333333333333333,-0.33055555555555555,1,0,0,5.495729599962942,colour4,0.4263888888888889,-0.30972222222222223,1,0,0,5.953056899947114,number4,True,True,True,26,1,2019_Nov_18_0902,MA_Theta_Exp,3.0.7,59.9129584468211,
video/Experiment/zh_sp01_Dr_Ro_3_NoThetaInAudio_GlobalThetaInVideo.avi,noTheta,plusVideo,sp01,Dr,Ro,3,1,3,flow/blocks/NoThetaInAudio_GlobalThetaInVideo_B.csv,,,,,,,,,0,1,1,1,0,26,26,26,-0.35555555555555557,0.08888888888888889,1,0,0,5.012465300038457,call2,0.041666666666666664,-0.16805555555555557,1,0,0,5.417077199905179,colour3,0.42916666666666664,-0.14027777777777778,1,0,0,5.869482800015248,number3,True,True,True,26,1,2019_Nov_18_0902,MA_Theta_Exp,3.0.7,59.9129584468211,
video/Experiment/zh_sp07_Ti_We_2_NoThetaInAudio_GlobalThetaInVideo.avi,noTheta,plusVideo,sp07,Ti,We,2,1,3,flow/blocks/NoThetaInAudio_GlobalThetaInVideo_B.csv,,,,,,,,,0,1,1,1,0,27,27,29,-0.4,0.08611111111111111,1,0,0,4.9378299000673,call2,0.004166666666666667,-0.33194444444444443,1,0,0,5.487939200014807,colour4,0.4444444444444444,0.0625,1,0,0,5.969720000051893,number2,False,True,True,26,1,2019_Nov_18_0902,MA_Theta_Exp,3.0.7,59.9129584468211,
video/Experiment/zh_sp07_Ad_Gr_4_NoThetaInAudio_GlobalThetaInVideo.avi,noTheta,plusVideo,sp07,Ad,Gr,4,1,3,flow/blocks/NoThetaInAudio_GlobalThetaInVideo_B.csv,,,,,,,,,0,1,1,1,0,28,28,7,-0.39444444444444443,0.29583333333333334,1,0,0,4.595856499974616,call1,-0.041666666666666664,-0.13333333333333333,1,0,0,5.141688000061549,colour3,0.4027777777777778,-0.2861111111111111,1,0,0,5.591263300040737,number4,True,False,True,26,1,2019_Nov_18_0902,MA_Theta_Exp,3.0.7,59.9129584468211,
video/Experiment/zh_sp01_Un_Ro_4_NoThetaInAudio_GlobalThetaInVideo.avi,noTheta,plusVideo,sp01,Un,Ro,4,1,3,flow/blocks/NoThetaInAudio_GlobalThetaInVideo_B.csv,,,,,,,,,0,1,1,1,0,29,29,27,-0.4236111111111111,0.09027777777777778,1,0,0,5.133480399963446,call2,0.0,-0.10694444444444444,1,0,0,5.729972200002521,colour3,0.4527777777777778,-0.2861111111111111,1,0,0,6.212732600048184,number4,False,True,True,26,1,2019_Nov_18_0902,MA_Theta_Exp,3.0.7,59.9129584468211,
video/Experiment/zh_sp07_Ti_Gr_2_NoThetaInAudio_GlobalThetaInVideo.avi,noTheta,plusVideo,sp07,Ti,Gr,2,1,3,flow/blocks/NoThetaInAudio_GlobalThetaInVideo_B.csv,,,,,,,,,0,1,1,1,0,30,30,21,-0.3486111111111111,-0.12361111111111112,1,0,0,4.600829000002705,call3,0.006944444444444444,0.08472222222222223,1,0,0,5.067613499937579,colour2,0.41388888888888886,0.08055555555555556,1,0,0,5.47164999996312,number2,True,True,True,26,1,2019_Nov_18_0902,MA_Theta_Exp,3.0.7,59.9129584468211,
video/Experiment/zh_sp07_Dr_Ro_1_NoThetaInAudio_GlobalThetaInVideo.avi,noTheta,plusVideo,sp07,Dr,Ro,1,1,3,flow/blocks/NoThetaInAudio_GlobalThetaInVideo_B.csv,,,,,,,,,0,1,1,1,0,31,31,24,-0.3888888888888889,-0.1388888888888889,1,0,0,5.435216500074603,call3,-0.06111111111111111,0.059722222222222225,1,0,0,5.996748800040223,colour2,0.3763888888888889,0.30972222222222223,1,0,0,6.430876999977045,number1,False,False,True,26,1,2019_Nov_18_0902,MA_Theta_Exp,3.0.7,59.9129584468211,
video/Experiment/zh_sp01_Un_Ge_2_GlobalTheta_NoVideo.avi,globalTheta,noVideo,sp01,Un,Ge,2,2,5,flow/blocks/GlobalTheta_NoVideo_A.csv,,,,,,,,,0,2,2,2,0,0,0,17,-0.3875,0.07777777777777778,1,0,0,6.180823500035331,call2,0.006944444444444444,0.2902777777777778,1,0,0,7.368501099990681,colour1,0.4597222222222222,0.2902777777777778,1,0,0,8.376763300038874,number1,False,True,False,26,1,2019_Nov_18_0902,MA_Theta_Exp,3.0.7,59.9129584468211,
video/Experiment/zh_sp01_Dr_Gr_2_GlobalTheta_NoVideo.avi,globalTheta,noVideo,sp01,Dr,Gr,2,2,5,flow/blocks/GlobalTheta_NoVideo_A.csv,,,,,,,,,0,2,2,2,0,1,1,5,-0.4027777777777778,0.03888888888888889,1,0,0,5.066336099989712,call2,-0.03888888888888889,0.06805555555555555,1,0,0,5.422078300034627,colour2,0.4152777777777778,0.06666666666666667,1,0,0,5.851059200009331,number2,True,True,True,26,1,2019_Nov_18_0902,MA_Theta_Exp,3.0.7,59.9129584468211,
video/Experiment/zh_sp07_Ti_Ro_2_GlobalTheta_NoVideo.avi,globalTheta,noVideo,sp07,Ti,Ro,2,2,5,flow/blocks/GlobalTheta_NoVideo_A.csv,,,,,,,,,0,2,2,2,0,2,2,25,-0.35,0.07361111111111111,1,0,0,5.151829400099814,call2,0.05694444444444444,-0.10138888888888889,1,0,0,5.620658500003628,colour3,0.3486111111111111,0.058333333333333334,1,0,0,6.023725599981844,number2,False,True,True,26,1,2019_Nov_18_0902,MA_Theta_Exp,3.0.7,59.9129584468211,
video/Experiment/zh_sp01_Ad_We_1_GlobalTheta_NoVideo.avi,globalTheta,noVideo,sp01,Ad,We,1,2,5,flow/blocks/GlobalTheta_NoVideo_A.csv,,,,,,,,,0,2,2,2,0,3,3,12,-0.35694444444444445,0.2833333333333333,1,0,0,4.97690660005901,call1,0.008333333333333333,-0.2861111111111111,1,0,0,5.577607000013813,colour4,0.38472222222222224,0.3111111111111111,1,0,0,6.338100599939935,number1,True,True,True,26,1,2019_Nov_18_0902,MA_Theta_Exp,3.0.7,59.9129584468211,
video/Experiment/zh_sp01_Dr_We_2_GlobalTheta_NoVideo.avi,globalTheta,noVideo,sp01,Dr,We,2,2,5,flow/blocks/GlobalTheta_NoVideo_A.csv,,,,,,,,,0,2,2,2,0,4,4,13,-0.37222222222222223,0.06666666666666667,1,0,0,6.072384300059639,call2,0.030555555555555555,-0.3333333333333333,1,0,0,6.649700199952349,colour4,0.4125,0.325,1,0,0,7.233233999926597,number1,True,True,False,26,1,2019_Nov_18_0902,MA_Theta_Exp,3.0.7,59.9129584468211,
video/Experiment/zh_sp01_Ad_We_2_GlobalTheta_NoVideo.avi,globalTheta,noVideo,sp01,Ad,We,2,2,5,flow/blocks/GlobalTheta_NoVideo_A.csv,,,,,,,,,0,2,2,2,0,5,5,29,-0.3625,0.3111111111111111,1,0,0,4.865807099966332,call1,0.04722222222222222,-0.32916666666666666,1,0,0,5.4795474000275135,colour4,0.3972222222222222,0.10277777777777777,1,0,0,5.957263499964029,number2,True,True,True,26,1,2019_Nov_18_0902,MA_Theta_Exp,3.0.7,59.9129584468211,
video/Experiment/zh_sp07_Ad_Ro_1_GlobalTheta_NoVideo.avi,globalTheta,noVideo,sp07,Ad,Ro,1,2,5,flow/blocks/GlobalTheta_NoVideo_A.csv,,,,,,,,,0,2,2,2,0,6,6,8,-0.4013888888888889,0.25833333333333336,1,0,0,4.890427200007252,call1,0.020833333333333332,-0.13472222222222222,1,0,0,5.3978263000026345,colour3,0.4638888888888889,0.08194444444444444,1,0,0,5.811218600021675,number2,True,True,False,26,1,2019_Nov_18_0902,MA_Theta_Exp,3.0.7,59.9129584468211,
video/Experiment/zh_sp07_Ad_Gr_2_GlobalTheta_NoVideo.avi,globalTheta,noVideo,sp07,Ad,Gr,2,2,5,flow/blocks/GlobalTheta_NoVideo_A.csv,,,,,,,,,0,2,2,2,0,7,7,21,-0.38333333333333336,0.2972222222222222,1,0,0,4.355879799928516,call1,0.019444444444444445,0.08611111111111111,1,0,0,4.784344799933024,colour2,0.39861111111111114,0.0763888888888889,1,0,0,5.172502400004305,number2,True,True,True,26,1,2019_Nov_18_0902,MA_Theta_Exp,3.0.7,59.9129584468211,
video/Experiment/zh_sp01_Ad_We_3_GlobalTheta_NoVideo.avi,globalTheta,noVideo,sp01,Ad,We,3,2,5,flow/blocks/GlobalTheta_NoVideo_A.csv,,,,,,,,,0,2,2,2,0,8,8,30,-0.36527777777777776,0.2972222222222222,1,0,0,4.754233099985868,call1,0.06388888888888888,-0.3625,1,0,0,5.356102000107057,colour4,0.4041666666666667,-0.13333333333333333,1,0,0,5.816407300066203,number3,True,True,True,26,1,2019_Nov_18_0902,MA_Theta_Exp,3.0.7,59.9129584468211,
video/Experiment/zh_sp07_Ti_Ge_2_GlobalTheta_NoVideo.avi,globalTheta,noVideo,sp07,Ti,Ge,2,2,5,flow/blocks/GlobalTheta_NoVideo_A.csv,,,,,,,,,0,2,2,2,0,9,9,1,-0.32083333333333336,-0.10416666666666667,1,0,0,5.548469400033355,call3,0.005555555555555556,0.3111111111111111,1,0,0,6.279331799945794,colour1,0.43333333333333335,0.3013888888888889,1,0,0,6.682646899949759,number1,True,True,False,26,1,2019_Nov_18_0902,MA_Theta_Exp,3.0.7,59.9129584468211,
video/Experiment/zh_sp07_Ti_Ge_4_GlobalTheta_NoVideo.avi,globalTheta,noVideo,sp07,Ti,Ge,4,2,5,flow/blocks/GlobalTheta_NoVideo_A.csv,,,,,,,,,0,2,2,2,0,10,10,3,-0.45555555555555555,-0.1375,1,0,0,4.561249000020325,call3,0.002777777777777778,0.3055555555555556,1,0,0,5.224798199953511,colour1,0.35555555555555557,-0.34305555555555556,1,0,0,5.742141900002025,number4,True,True,True,26,1,2019_Nov_18_0902,MA_Theta_Exp,3.0.7,59.9129584468211,
video/Experiment/zh_sp01_Un_We_3_GlobalTheta_NoVideo.avi,globalTheta,noVideo,sp01,Un,We,3,2,5,flow/blocks/GlobalTheta_NoVideo_A.csv,,,,,,,,,0,2,2,2,0,11,11,14,-0.3888888888888889,0.26944444444444443,1,0,0,6.621525399968959,call1,0.04027777777777778,-0.33194444444444443,1,0,0,7.322795999934897,colour4,0.3861111111111111,-0.1736111111111111,1,0,0,7.808755700010806,number3,False,True,True,26,1,2019_Nov_18_0902,MA_Theta_Exp,3.0.7,59.9129584468211,
video/Experiment/zh_sp07_Ti_Gr_4_GlobalTheta_NoVideo.avi,globalTheta,noVideo,sp07,Ti,Gr,4,2,5,flow/blocks/GlobalTheta_NoVideo_A.csv,,,,,,,,,0,2,2,2,0,12,12,7,-0.35138888888888886,-0.06805555555555555,1,0,0,5.2206663999240845,call3,0.06805555555555555,-0.3375,1,0,0,5.798573799896985,colour4,0.45555555555555555,-0.3527777777777778,1,0,0,6.232542200013995,number4,True,False,True,26,1,2019_Nov_18_0902,MA_Theta_Exp,3.0.7,59.9129584468211,
video/Experiment/zh_sp07_Ad_Gr_1_GlobalTheta_NoVideo.avi,globalTheta,noVideo,sp07,Ad,Gr,1,2,5,flow/blocks/GlobalTheta_NoVideo_A.csv,,,,,,,,,0,2,2,2,0,13,13,4,-0.4263888888888889,0.30277777777777776,1,0,0,4.722481900011189,call1,0.015277777777777777,-0.3263888888888889,1,0,0,5.3445429999846965,colour4,0.40694444444444444,0.27361111111111114,1,0,0,5.861186100053601,number1,True,False,True,26,1,2019_Nov_18_0902,MA_Theta_Exp,3.0.7,59.9129584468211,
video/Experiment/zh_sp01_Un_We_1_GlobalTheta_NoVideo.avi,globalTheta,noVideo,sp01,Un,We,1,2,5,flow/blocks/GlobalTheta_NoVideo_A.csv,,,,,,,,,0,2,2,2,0,14,14,28,-0.34305555555555556,0.30694444444444446,1,0,0,5.75309729995206,call1,0.0,-0.32222222222222224,1,0,0,6.367075499962084,colour4,0.35833333333333334,0.30694444444444446,1,0,0,6.861025099991821,number1,False,True,True,26,1,2019_Nov_18_0902,MA_Theta_Exp,3.0.7,59.9129584468211,
video/Experiment/zh_sp01_Ti_Ge_1_GlobalTheta_NoVideo.avi,globalTheta,noVideo,sp01,Ti,Ge,1,2,5,flow/blocks/GlobalTheta_NoVideo_A.csv,,,,,,,,,0,2,2,2,0,15,15,16,-0.3347222222222222,-0.08564814814814815,1,0,0,5.49665670003742,call3,0.027777777777777776,0.32546296296296295,1,0,0,6.4089321999344975,colour1,0.4236111111111111,0.3226851851851852,1,0,0,7.801745899952948,number1,True,True,True,26,1,2019_Nov_18_0902,MA_Theta_Exp,3.0.7,59.9129584468211,
video/Experiment/zh_sp01_Un_Ro_3_GlobalTheta_NoVideo.avi,globalTheta,noVideo,sp01,Un,Ro,3,2,5,flow/blocks/GlobalTheta_NoVideo_A.csv,,,,,,,,,0,2,2,2,0,16,16,26,-0.37083333333333335,-0.28564814814814815,1,0,0,5.302614700049162,call4,-0.05,0.06574074074074074,1,0,0,5.724305899930187,colour2,0.3888888888888889,-0.12453703703703704,1,0,0,6.196195199969225,number3,True,False,True,26,1,2019_Nov_18_0902,MA_Theta_Exp,3.0.7,59.9129584468211,
video/Experiment/zh_sp07_Dr_Gr_4_GlobalTheta_NoVideo.avi,globalTheta,noVideo,sp07,Dr,Gr,4,2,5,flow/blocks/GlobalTheta_NoVideo_A.csv,,,,,,,,,0,2,2,2,0,17,17,23,-0.3611111111111111,-0.10648148148148148,1,0,0,5.573743100045249,call3,-0.015277777777777777,0.07962962962962963,1,0,0,5.977789500029758,colour2,0.41944444444444445,-0.1162037037037037,1,0,0,6.369264299981296,number3,False,True,False,26,1,2019_Nov_18_0902,MA_Theta_Exp,3.0.7,59.9129584468211,
video/Experiment/zh_sp07_Un_Ge_3_GlobalTheta_NoVideo.avi,globalTheta,noVideo,sp07,Un,Ge,3,2,5,flow/blocks/GlobalTheta_NoVideo_A.csv,,,,,,,,,0,2,2,2,0,18,18,2,-0.3861111111111111,-0.11481481481481481,1,0,0,4.523214600048959,call3,0.013888888888888888,0.287962962962963,1,0,0,5.316264600027353,colour1,0.2763888888888889,-0.05648148148148148,1,0,0,5.771410099929199,number3,False,True,True,26,1,2019_Nov_18_0902,MA_Theta_Exp,3.0.7,59.9129584468211,
video/Experiment/zh_sp01_Ad_Ro_4_GlobalTheta_NoVideo.avi,globalTheta,noVideo,sp01,Ad,Ro,4,2,5,flow/blocks/GlobalTheta_NoVideo_A.csv,,,,,,,,,0,2,2,2,0,19,19,11,-0.4013888888888889,0.27685185185185185,1,0,0,5.108372999937274,call1,-0.008333333333333333,-0.07731481481481481,1,0,0,5.592328600003384,colour3,0.36666666666666664,-0.31203703703703706,1,0,0,6.17412310000509,number4,True,True,True,26,1,2019_Nov_18_0902,MA_Theta_Exp,3.0.7,59.9129584468211,
video/Experiment/zh_sp07_Ti_We_4_GlobalTheta_NoVideo.avi,globalTheta,noVideo,sp07,Ti,We,4,2,5,flow/blocks/GlobalTheta_NoVideo_A.csv,,,,,,,,,0,2,2,2,0,20,20,31,-0.3680555555555556,-0.1175925925925926,1,0,0,4.927633900078945,call3,0.043055555555555555,-0.10231481481481482,1,0,0,5.510326000046916,colour3,0.45694444444444443,-0.3037037037037037,1,0,0,6.013341499958187,number4,True,False,True,26,1,2019_Nov_18_0902,MA_Theta_Exp,3.0.7,59.9129584468211,
video/Experiment/zh_sp01_Ti_Ge_3_GlobalTheta_NoVideo.avi,globalTheta,noVideo,sp01,Ti,Ge,3,2,5,flow/blocks/GlobalTheta_NoVideo_A.csv,,,,,,,,,0,2,2,2,0,21,21,18,-0.3638888888888889,-0.1050925925925926,1,0,0,5.929804900079034,call3,0.07222222222222222,-0.1675925925925926,1,0,0,6.446110100019723,colour3,0.4444444444444444,-0.08981481481481482,1,0,0,7.181594299967401,number3,True,False,True,26,1,2019_Nov_18_0902,MA_Theta_Exp,3.0.7,59.9129584468211,
video/Experiment/zh_sp01_Dr_Ge_4_GlobalTheta_NoVideo.avi,globalTheta,noVideo,sp01,Dr,Ge,4,2,5,flow/blocks/GlobalTheta_NoVideo_A.csv,,,,,,,,,0,2,2,2,0,22,22,19,-0.525,-0.2967592592592593,1,0,0,4.846609900007024,call4,-0.013888888888888888,0.30185185185185187,1,0,0,5.886447099968791,colour1,0.44166666666666665,-0.3314814814814815,1,0,0,6.472065999987535,number4,False,True,True,26,1,2019_Nov_18_0902,MA_Theta_Exp,3.0.7,59.9129584468211,
video/Experiment/zh_sp07_Dr_Ro_2_GlobalTheta_NoVideo.avi,globalTheta,noVideo,sp07,Dr,Ro,2,2,5,flow/blocks/GlobalTheta_NoVideo_A.csv,,,,,,,,,0,2,2,2,0,23,23,9,-0.3888888888888889,-0.3106481481481482,1,0,0,5.297076100017875,call4,0.10416666666666667,-0.29398148148148145,1,0,0,6.146151400054805,colour4,0.4305555555555556,-0.31342592592592594,1,0,0,8.910253799986094,number4,False,False,False,26,1,2019_Nov_18_0902,MA_Theta_Exp,3.0.7,59.9129584468211,
video/Experiment/zh_sp07_Un_Gr_1_GlobalTheta_NoVideo.avi,globalTheta,noVideo,sp07,Un,Gr,1,2,5,flow/blocks/GlobalTheta_NoVideo_A.csv,,,,,,,,,0,2,2,2,0,24,24,20,-0.3625,-0.3384259259259259,1,0,0,4.349963999935426,call4,0.001388888888888889,0.2949074074074074,1,0,0,5.0165040999418125,colour1,0.4097222222222222,0.3449074074074074,1,0,0,5.568819999927655,number1,True,False,True,26,1,2019_Nov_18_0902,MA_Theta_Exp,3.0.7,59.9129584468211,
video/Experiment/zh_sp07_Ad_Gr_3_GlobalTheta_NoVideo.avi,globalTheta,noVideo,sp07,Ad,Gr,3,2,5,flow/blocks/GlobalTheta_NoVideo_A.csv,,,,,,,,,0,2,2,2,0,25,25,22,-0.40694444444444444,0.2824074074074074,1,0,0,4.61874219996389,call1,0.034722222222222224,-0.29814814814814816,1,0,0,5.132762499968521,colour4,0.44027777777777777,-0.2828703703703704,1,0,0,5.615105500095524,number4,True,False,False,26,1,2019_Nov_18_0902,MA_Theta_Exp,3.0.7,59.9129584468211,
video/Experiment/zh_sp01_Dr_Ro_4_GlobalTheta_NoVideo.avi,globalTheta,noVideo,sp01,Dr,Ro,4,2,5,flow/blocks/GlobalTheta_NoVideo_A.csv,,,,,,,,,0,2,2,2,0,26,26,27,-0.3680555555555556,0.3212962962962963,1,0,0,7.364210100029595,call1,0.0625,-0.27870370370370373,1,0,0,8.36124480003491,colour4,0.45694444444444443,-0.2759259259259259,1,0,0,8.831423399969935,number4,False,False,True,26,1,2019_Nov_18_0902,MA_Theta_Exp,3.0.7,59.9129584468211,
video/Experiment/zh_sp07_Un_We_4_GlobalTheta_NoVideo.avi,globalTheta,noVideo,sp07,Un,We,4,2,5,flow/blocks/GlobalTheta_NoVideo_A.csv,,,,,,,,,0,2,2,2,0,27,27,15,-0.3486111111111111,-0.30925925925925923,1,0,0,4.24679940007627,call4,0.020833333333333332,-0.30787037037037035,1,0,0,4.648235899978317,colour4,0.4263888888888889,-0.30092592592592593,1,0,0,5.150996700045653,number4,True,True,True,26,1,2019_Nov_18_0902,MA_Theta_Exp,3.0.7,59.9129584468211,
video/Experiment/zh_sp07_Un_Ro_1_GlobalTheta_NoVideo.avi,globalTheta,noVideo,sp07,Un,Ro,1,2,5,flow/blocks/GlobalTheta_NoVideo_A.csv,,,,,,,,,0,2,2,2,0,28,28,24,-0.3597222222222222,-0.32175925925925924,1,0,0,4.594168600044213,call4,-0.019444444444444445,-0.12175925925925926,1,0,0,5.0668880000011995,colour3,0.425,0.29768518518518516,1,0,0,5.645265499944799,number1,True,True,True,26,1,2019_Nov_18_0902,MA_Theta_Exp,3.0.7,59.9129584468211,
video/Experiment/zh_sp01_Ti_Ro_3_GlobalTheta_NoVideo.avi,globalTheta,noVideo,sp01,Ti,Ro,3,2,5,flow/blocks/GlobalTheta_NoVideo_A.csv,,,,,,,,,0,2,2,2,0,29,29,10,-0.3597222222222222,-0.324537037037037,1,0,0,4.893068199977279,call4,0.027777777777777776,0.287962962962963,1,0,0,5.47796000004746,colour1,0.4166666666666667,-0.1259259259259259,1,0,0,6.015099700074643,number3,False,False,True,26,1,2019_Nov_18_0902,MA_Theta_Exp,3.0.7,59.9129584468211,
video/Experiment/zh_sp01_Dr_Gr_3_GlobalTheta_NoVideo.avi,globalTheta,noVideo,sp01,Dr,Gr,3,2,5,flow/blocks/GlobalTheta_NoVideo_A.csv,,,,,,,,,0,2,2,2,0,30,30,6,-0.4027777777777778,-0.33425925925925926,1,0,0,4.9593496000161394,call4,-0.029166666666666667,0.07546296296296297,1,0,0,5.51399190002121,colour2,0.41944444444444445,-0.09537037037037037,1,0,0,5.990187000017613,number3,False,True,True,26,1,2019_Nov_18_0902,MA_Theta_Exp,3.0.7,59.9129584468211,
video/Experiment/zh_sp07_Dr_Ge_1_GlobalTheta_NoVideo.avi,globalTheta,noVideo,sp07,Dr,Ge,1,2,5,flow/blocks/GlobalTheta_NoVideo_A.csv,,,,,,,,,0,2,2,2,0,31,31,0,-0.4361111111111111,-0.32592592592592595,1,0,0,4.570816399995238,call4,-0.04583333333333333,-0.1162037037037037,1,0,0,4.942552399937995,colour3,0.4152777777777778,0.3074074074074074,1,0,0,5.458271299954504,number1,False,False,True,26,1,2019_Nov_18_0902,MA_Theta_Exp,3.0.7,59.9129584468211,
video/Experiment/zh_sp07_Un_Gr_3_NVocInAudio_GlobalThetaInVideo.avi,vocoded,plusVideo,sp07,Un,Gr,3,3,1,flow/blocks/NVocInAudio_GlobalThetaInVideo_B.csv,,,,,,,,,0,3,3,3,0,0,0,6,-0.3402777777777778,-0.3453703703703704,1,0,0,4.361936999950558,call4,-0.015277777777777777,0.06712962962962964,1,0,0,4.82970389991533,colour2,0.4305555555555556,-0.12453703703703704,1,0,0,5.2457806000020355,number3,True,True,True,26,1,2019_Nov_18_0902,MA_Theta_Exp,3.0.7,59.9129584468211,
video/Experiment/zh_sp07_Dr_We_4_NVocInAudio_GlobalThetaInVideo.avi,vocoded,plusVideo,sp07,Dr,We,4,3,1,flow/blocks/NVocInAudio_GlobalThetaInVideo_B.csv,,,,,,,,,0,3,3,3,0,1,1,15,-0.4125,-0.34814814814814815,1,0,0,4.554932600003667,call4,-0.043055555555555555,-0.324537037037037,1,0,0,4.95035729999654,colour4,0.3388888888888889,-0.32592592592592595,1,0,0,5.3885684999404475,number4,False,True,True,26,1,2019_Nov_18_0902,MA_Theta_Exp,3.0.7,59.9129584468211,
video/Experiment/zh_sp01_Ad_Ge_4_NVocInAudio_GlobalThetaInVideo.avi,vocoded,plusVideo,sp01,Ad,Ge,4,3,1,flow/blocks/NVocInAudio_GlobalThetaInVideo_B.csv,,,,,,,,,0,3,3,3,0,2,2,3,-0.4083333333333333,0.3282407407407407,1,0,0,5.03513259999454,call1,-0.013888888888888888,0.300462962962963,1,0,0,5.602441899944097,colour1,0.4013888888888889,-0.27870370370370373,1,0,0,6.319223300088197,number4,True,True,True,26,1,2019_Nov_18_0902,MA_Theta_Exp,3.0.7,59.9129584468211,
video/Experiment/zh_sp01_Ti_We_3_NVocInAudio_GlobalThetaInVideo.avi,vocoded,plusVideo,sp01,Ti,We,3,3,1,flow/blocks/NVocInAudio_GlobalThetaInVideo_B.csv,,,,,,,,,0,3,3,3,0,3,3,30,-0.3875,-0.08287037037037037,1,0,0,5.250308100017719,call3,0.04027777777777778,-0.30787037037037035,1,0,0,5.7184701999649405,colour4,0.4083333333333333,-0.1050925925925926,1,0,0,6.179078200017102,number3,True,True,True,26,1,2019_Nov_18_0902,MA_Theta_Exp,3.0.7,59.9129584468211,
video/Experiment/zh_sp07_Ad_Ge_1_NVocInAudio_GlobalThetaInVideo.avi,vocoded,plusVideo,sp07,Ad,Ge,1,3,1,flow/blocks/NVocInAudio_GlobalThetaInVideo_B.csv,,,,,,,,,0,3,3,3,0,4,4,16,-0.39861111111111114,0.3490740740740741,1,0,0,4.313745699939318,call1,-0.027777777777777776,0.31712962962962965,1,0,0,4.759362300042994,colour1,0.40694444444444444,0.3060185185185185,1,0,0,5.1923608999932185,number1,True,True,True,26,1,2019_Nov_18_0902,MA_Theta_Exp,3.0.7,59.9129584468211,
video/Experiment/zh_sp01_Dr_Ge_3_NVocInAudio_GlobalThetaInVideo.avi,vocoded,plusVideo,sp01,Dr,Ge,3,3,1,flow/blocks/NVocInAudio_GlobalThetaInVideo_B.csv,,,,,,,,,0,3,3,3,0,5,5,2,-0.35138888888888886,0.09212962962962963,1,0,0,5.261250899988227,call2,-0.022222222222222223,0.3087962962962963,1,0,0,5.7139608999714255,colour1,0.3763888888888889,-0.08981481481481482,1,0,0,6.2275544999865815,number3,True,True,True,26,1,2019_Nov_18_0902,MA_Theta_Exp,3.0.7,59.9129584468211,
video/Experiment/zh_sp07_Ti_Ro_1_NVocInAudio_GlobalThetaInVideo.avi,vocoded,plusVideo,sp07,Ti,Ro,1,3,1,flow/blocks/NVocInAudio_GlobalThetaInVideo_B.csv,,,,,,,,,0,3,3,3,0,6,6,8,-0.3902777777777778,-0.16064814814814815,1,0,0,4.442650000099093,call3,0.011111111111111112,-0.11064814814814815,1,0,0,4.8687237000558525,colour3,0.4388888888888889,0.3337962962962963,1,0,0,5.404830300016329,number1,True,True,True,26,1,2019_Nov_18_0902,MA_Theta_Exp,3.0.7,59.9129584468211,
video/Experiment/zh_sp01_Ti_Gr_3_NVocInAudio_GlobalThetaInVideo.avi,vocoded,plusVideo,sp01,Ti,Gr,3,3,1,flow/blocks/NVocInAudio_GlobalThetaInVideo_B.csv,,,,,,,,,0,3,3,3,0,7,7,22,-0.36944444444444446,-0.12314814814814815,1,0,0,5.122024199925363,call3,-0.02638888888888889,0.15185185185185185,1,0,0,5.587361199897714,colour2,0.32916666666666666,-0.09675925925925925,1,0,0,6.119269700022414,number3,True,True,True,26,1,2019_Nov_18_0902,MA_Theta_Exp,3.0.7,59.9129584468211,
video/Experiment/zh_sp01_Ad_Ge_3_NVocInAudio_GlobalThetaInVideo.avi,vocoded,plusVideo,sp01,Ad,Ge,3,3,1,flow/blocks/NVocInAudio_GlobalThetaInVideo_B.csv,,,,,,,,,0,3,3,3,0,8,8,18,-0.3375,0.3087962962962963,1,0,0,4.888095500064082,call1,0.004166666666666667,0.31157407407407406,1,0,0,5.309095899923705,colour1,0.40555555555555556,-0.1037037037037037,1,0,0,5.937876799958758,number3,True,True,True,26,1,2019_Nov_18_0902,MA_Theta_Exp,3.0.7,59.9129584468211,
video/Experiment/zh_sp01_Ti_Ro_4_NVocInAudio_GlobalThetaInVideo.avi,vocoded,plusVideo,sp01,Ti,Ro,4,3,1,flow/blocks/NVocInAudio_GlobalThetaInVideo_B.csv,,,,,,,,,0,3,3,3,0,9,9,11,-0.3680555555555556,-0.1162037037037037,1,0,0,5.124184699961916,call3,-0.001388888888888889,-0.09675925925925925,1,0,0,5.494441400049254,colour3,0.475,-0.30648148148148147,1,0,0,5.9887670000316575,number4,True,True,True,26,1,2019_Nov_18_0902,MA_Theta_Exp,3.0.7,59.9129584468211,
video/Experiment/zh_sp01_Ad_Gr_4_NVocInAudio_GlobalThetaInVideo.avi,vocoded,plusVideo,sp01,Ad,Gr,4,3,1,flow/blocks/NVocInAudio_GlobalThetaInVideo_B.csv,,,,,,,,,0,3,3,3,0,10,10,7,-0.39861111111111114,0.3199074074074074,1,0,0,5.532545400084928,call1,-0.03611111111111111,0.11574074074074074,1,0,0,5.954687100020237,colour2,0.3902777777777778,-0.3453703703703704,1,0,0,6.602694600005634,number4,True,True,True,26,1,2019_Nov_18_0902,MA_Theta_Exp,3.0.7,59.9129584468211,
video/Experiment/zh_sp07_Ad_We_4_NVocInAudio_GlobalThetaInVideo.avi,vocoded,plusVideo,sp07,Ad,We,4,3,1,flow/blocks/NVocInAudio_GlobalThetaInVideo_B.csv,,,,,,,,,0,3,3,3,0,11,11,31,-0.4097222222222222,0.29907407407407405,1,0,0,4.551984600024298,call1,0.05138888888888889,-0.3106481481481482,1,0,0,5.4181629999075085,colour4,0.4,-0.3384259259259259,1,0,0,5.8877923000836745,number4,True,True,True,26,1,2019_Nov_18_0902,MA_Theta_Exp,3.0.7,59.9129584468211,
video/Experiment/zh_sp01_Ad_Ro_3_NVocInAudio_GlobalThetaInVideo.avi,vocoded,plusVideo,sp01,Ad,Ro,3,3,1,flow/blocks/NVocInAudio_GlobalThetaInVideo_B.csv,,,,,,,,,0,3,3,3,0,12,12,10,-0.3597222222222222,0.2935185185185185,1,0,0,5.025490300031379,call1,-0.05555555555555555,-0.09259259259259259,1,0,0,5.515707299928181,colour3,0.4263888888888889,-0.07731481481481481,1,0,0,5.992647800012492,number3,True,True,True,26,1,2019_Nov_18_0902,MA_Theta_Exp,3.0.7,59.9129584468211,
video/Experiment/zh_sp07_Ti_We_1_NVocInAudio_GlobalThetaInVideo.avi,vocoded,plusVideo,sp07,Ti,We,1,3,1,flow/blocks/NVocInAudio_GlobalThetaInVideo_B.csv,,,,,,,,,0,3,3,3,0,13,13,12,-0.38472222222222224,-0.09675925925925925,1,0,0,5.045213999925181,call3,-0.030555555555555555,-0.33425925925925926,1,0,0,5.478159700054675,colour4,0.4152777777777778,0.2824074074074074,1,0,0,6.179570100037381,number1,True,True,True,26,1,2019_Nov_18_0902,MA_Theta_Exp,3.0.7,59.9129584468211,
video/Experiment/zh_sp01_Un_Ge_1_NVocInAudio_GlobalThetaInVideo.avi,vocoded,plusVideo,sp01,Un,Ge,1,3,1,flow/blocks/NVocInAudio_GlobalThetaInVideo_B.csv,,,,,,,,,0,3,3,3,0,14,14,0,-0.3972222222222222,-0.3384259259259259,1,0,0,5.3980557000031695,call4,-0.009722222222222222,0.3087962962962963,1,0,0,6.001289700041525,colour1,0.4166666666666667,0.27546296296296297,1,0,0,6.569844799931161,number1,True,True,True,26,1,2019_Nov_18_0902,MA_Theta_Exp,3.0.7,59.9129584468211,
video/Experiment/zh_sp01_Ti_Gr_1_NVocInAudio_GlobalThetaInVideo.avi,vocoded,plusVideo,sp01,Ti,Gr,1,3,1,flow/blocks/NVocInAudio_GlobalThetaInVideo_B.csv,,,,,,,,,0,3,3,3,0,15,15,4,-0.4111111111111111,-0.12314814814814815,1,0,0,5.260663399938494,call3,-0.0125,0.0962962962962963,1,0,0,5.711265000049025,colour2,0.38055555555555554,0.31157407407407406,1,0,0,6.239624800044112,number1,True,True,True,26,1,2019_Nov_18_0902,MA_Theta_Exp,3.0.7,59.9129584468211,
video/Experiment/zh_sp07_Un_Gr_2_NVocInAudio_GlobalThetaInVideo.avi,vocoded,plusVideo,sp07,Un,Gr,2,3,1,flow/blocks/NVocInAudio_GlobalThetaInVideo_B.csv,,,,,,,,,0,3,3,3,0,16,16,5,-0.4375,-0.30648148148148147,1,0,0,4.645670700003393,call4,-0.03888888888888889,0.09490740740740741,1,0,0,5.199320200015791,colour2,0.4013888888888889,0.13796296296296295,1,0,0,5.66251369996462,number2,True,True,True,26,1,2019_Nov_18_0902,MA_Theta_Exp,3.0.7,59.9129584468211,
video/Experiment/zh_sp01_Dr_Ro_1_NVocInAudio_GlobalThetaInVideo.avi,vocoded,plusVideo,sp01,Dr,Ro,1,3,1,flow/blocks/NVocInAudio_GlobalThetaInVideo_B.csv,,,,,,,,,0,3,3,3,0,17,17,24,-0.36944444444444446,0.09305555555555556,1,0,0,5.4688127000117674,call2,0.02638888888888889,-0.16527777777777777,1,0,0,6.2027796999318525,colour3,0.36944444444444446,0.2902777777777778,1,0,0,6.784501100075431,number1,True,True,True,26,1,2019_Nov_18_0902,MA_Theta_Exp,3.0.7,59.9129584468211,
video/Experiment/zh_sp01_Ti_Gr_2_NVocInAudio_GlobalThetaInVideo.avi,vocoded,plusVideo,sp01,Ti,Gr,2,3,1,flow/blocks/NVocInAudio_GlobalThetaInVideo_B.csv,,,,,,,,,0,3,3,3,0,18,18,21,-0.42777777777777776,-0.13472222222222222,1,0,0,5.143394300015643,call3,-0.03611111111111111,0.09722222222222222,1,0,0,5.69214230007492,colour2,0.40555555555555556,0.09583333333333334,1,0,0,6.136459499946795,number2,True,True,True,26,1,2019_Nov_18_0902,MA_Theta_Exp,3.0.7,59.9129584468211,
video/Experiment/zh_sp07_Dr_Ge_2_NVocInAudio_GlobalThetaInVideo.avi,vocoded,plusVideo,sp07,Dr,Ge,2,3,1,flow/blocks/NVocInAudio_GlobalThetaInVideo_B.csv,,,,,,,,,0,3,3,3,0,19,19,17,-0.3958333333333333,0.13055555555555556,1,0,0,4.55651579995174,call2,0.008333333333333333,0.3125,1,0,0,5.102330100024119,colour1,0.4152777777777778,0.07916666666666666,1,0,0,5.557467199978419,number2,True,True,True,26,1,2019_Nov_18_0902,MA_Theta_Exp,3.0.7,59.9129584468211,
video/Experiment/zh_sp07_Dr_Gr_1_NVocInAudio_GlobalThetaInVideo.avi,vocoded,plusVideo,sp07,Dr,Gr,1,3,1,flow/blocks/NVocInAudio_GlobalThetaInVideo_B.csv,,,,,,,,,0,3,3,3,0,20,20,20,-0.40555555555555556,0.11805555555555555,1,0,0,4.443415299989283,call2,0.025,0.08888888888888889,1,0,0,4.931778099969961,colour2,0.3680555555555556,0.2791666666666667,1,0,0,5.436225200071931,number1,True,True,True,26,1,2019_Nov_18_0902,MA_Theta_Exp,3.0.7,59.9129584468211,
video/Experiment/zh_sp01_Un_Ro_4_NVocInAudio_GlobalThetaInVideo.avi,vocoded,plusVideo,sp01,Un,Ro,4,3,1,flow/blocks/NVocInAudio_GlobalThetaInVideo_B.csv,,,,,,,,,0,3,3,3,0,21,21,27,-0.3819444444444444,-0.3416666666666667,1,0,0,5.147104500094429,call4,0.015277777777777777,-0.09722222222222222,1,0,0,5.862784400000237,colour3,0.4,-0.31666666666666665,1,0,0,6.362838200060651,number4,True,True,True,26,1,2019_Nov_18_0902,MA_Theta_Exp,3.0.7,59.9129584468211,
video/Experiment/zh_sp07_Un_We_2_NVocInAudio_GlobalThetaInVideo.avi,vocoded,plusVideo,sp07,Un,We,2,3,1,flow/blocks/NVocInAudio_GlobalThetaInVideo_B.csv,,,,,,,,,0,3,3,3,0,22,22,13,-0.4041666666666667,-0.31527777777777777,1,0,0,4.426454000058584,call4,0.09444444444444444,-0.32083333333333336,1,0,0,4.942533600027673,colour4,0.3888888888888889,0.27361111111111114,1,0,0,7.089556299964897,number1,True,True,False,26,1,2019_Nov_18_0902,MA_Theta_Exp,3.0.7,59.9129584468211,
video/Experiment/zh_sp07_Dr_Ro_3_NVocInAudio_GlobalThetaInVideo.avi,vocoded,plusVideo,sp07,Dr,Ro,3,3,1,flow/blocks/NVocInAudio_GlobalThetaInVideo_B.csv,,,,,,,,,0,3,3,3,0,23,23,26,-0.38472222222222224,0.07083333333333333,1,0,0,4.845965099986643,call2,0.006944444444444444,-0.14305555555555555,1,0,0,5.49677490000613,colour3,0.41388888888888886,-0.09861111111111111,1,0,0,6.06254730001092,number3,True,True,True,26,1,2019_Nov_18_0902,MA_Theta_Exp,3.0.7,59.9129584468211,
video/Experiment/zh_sp07_Ti_We_2_NVocInAudio_GlobalThetaInVideo.avi,vocoded,plusVideo,sp07,Ti,We,2,3,1,flow/blocks/NVocInAudio_GlobalThetaInVideo_B.csv,,,,,,,,,0,3,3,3,0,24,24,29,-0.3861111111111111,-0.10416666666666667,1,0,0,4.78537509997841,call3,-0.027777777777777776,-0.30833333333333335,1,0,0,5.263717999914661,colour4,0.3958333333333333,0.14166666666666666,1,0,0,5.768659699941054,number2,True,True,True,26,1,2019_Nov_18_0902,MA_Theta_Exp,3.0.7,59.9129584468211,
video/Experiment/zh_sp07_Un_Ro_2_NVocInAudio_GlobalThetaInVideo.avi,vocoded,plusVideo,sp07,Un,Ro,2,3,1,flow/blocks/NVocInAudio_GlobalThetaInVideo_B.csv,,,,,,,,,0,3,3,3,0,25,25,9,-0.3680555555555556,-0.30833333333333335,1,0,0,4.417219900060445,call4,0.029166666666666667,-0.09722222222222222,1,0,0,4.881029100040905,colour3,0.36666666666666664,0.09861111111111111,1,0,0,5.430858199950308,number2,True,True,True,26,1,2019_Nov_18_0902,MA_Theta_Exp,3.0.7,59.9129584468211,
video/Experiment/zh_sp01_Dr_We_1_NVocInAudio_GlobalThetaInVideo.avi,vocoded,plusVideo,sp01,Dr,We,1,3,1,flow/blocks/NVocInAudio_GlobalThetaInVideo_B.csv,,,,,,,,,0,3,3,3,0,26,26,28,-0.4097222222222222,0.1125,1,0,0,5.303607999929227,call2,-0.03611111111111111,-0.2847222222222222,1,0,0,5.89593890006654,colour4,0.4083333333333333,0.28194444444444444,1,0,0,6.559610099997371,number1,True,True,True,26,1,2019_Nov_18_0902,MA_Theta_Exp,3.0.7,59.9129584468211,
video/Experiment/zh_sp01_Ad_Ge_2_NVocInAudio_GlobalThetaInVideo.avi,vocoded,plusVideo,sp01,Ad,Ge,2,3,1,flow/blocks/NVocInAudio_GlobalThetaInVideo_B.csv,,,,,,,,,0,3,3,3,0,27,27,1,-0.4083333333333333,0.06527777777777778,1,0,0,5.103789699962363,call2,0.002777777777777778,0.28888888888888886,1,0,0,5.640649800072424,colour1,0.4166666666666667,0.09305555555555556,1,0,0,6.208153399988078,number2,False,True,True,26,1,2019_Nov_18_0902,MA_Theta_Exp,3.0.7,59.9129584468211,
video/Experiment/zh_sp07_Ad_Ro_2_NVocInAudio_GlobalThetaInVideo.avi,vocoded,plusVideo,sp07,Ad,Ro,2,3,1,flow/blocks/NVocInAudio_GlobalThetaInVideo_B.csv,,,,,,,,,0,3,3,3,0,28,28,25,-0.3861111111111111,0.30694444444444446,1,0,0,4.543091699946672,call1,-0.05,-0.06527777777777778,1,0,0,5.041038299910724,colour3,0.4444444444444444,0.13055555555555556,1,0,0,5.474264600081369,number2,True,True,True,26,1,2019_Nov_18_0902,MA_Theta_Exp,3.0.7,59.9129584468211,
video/Experiment/zh_sp01_Un_Gr_4_NVocInAudio_GlobalThetaInVideo.avi,vocoded,plusVideo,sp01,Un,Gr,4,3,1,flow/blocks/NVocInAudio_GlobalThetaInVideo_B.csv,,,,,,,,,0,3,3,3,0,29,29,23,-0.3861111111111111,-0.2986111111111111,1,0,0,5.368820400093682,call4,0.03194444444444444,-0.12638888888888888,1,0,0,6.290351600036956,colour3,0.4388888888888889,-0.3055555555555556,1,0,0,6.936731999972835,number4,True,False,True,26,1,2019_Nov_18_0902,MA_Theta_Exp,3.0.7,59.9129584468211,
video/Experiment/zh_sp07_Un_Ge_4_NVocInAudio_GlobalThetaInVideo.avi,vocoded,plusVideo,sp07,Un,Ge,4,3,1,flow/blocks/NVocInAudio_GlobalThetaInVideo_B.csv,,,,,,,,,0,3,3,3,0,30,30,19,-0.3888888888888889,-0.3236111111111111,1,0,0,4.657171900034882,call4,0.015277777777777777,-0.30277777777777776,1,0,0,5.22740930004511,colour4,0.42777777777777776,-0.3,1,0,0,5.70616079994943,number4,True,False,True,26,1,2019_Nov_18_0902,MA_Theta_Exp,3.0.7,59.9129584468211,
video/Experiment/zh_sp07_Dr_We_3_NVocInAudio_GlobalThetaInVideo.avi,vocoded,plusVideo,sp07,Dr,We,3,3,1,flow/blocks/NVocInAudio_GlobalThetaInVideo_B.csv,,,,,,,,,0,3,3,3,0,31,31,14,-0.4013888888888889,0.09305555555555556,1,0,0,4.4421717000659555,call2,0.018055555555555554,-0.3347222222222222,1,0,0,4.941607299959287,colour4,0.42916666666666664,-0.10694444444444444,1,0,0,5.442473000031896,number3,True,True,True,26,1,2019_Nov_18_0902,MA_Theta_Exp,3.0.7,59.9129584468211,
video/Experiment/zh_sp01_Ti_We_4_NoThetaInAudio_NoVideo.avi,noTheta,noVideo,sp01,Ti,We,4,4,4,flow/blocks/NoThetaInAudio_NoVideo_A.csv,,,,,,,,,0,4,4,4,0,0,0,31,-0.37083333333333335,0.33194444444444443,1,0,0,5.5395060000009835,call1,-0.013888888888888888,-0.29305555555555557,1,0,0,6.0560633999994025,colour4,0.4652777777777778,-0.3472222222222222,1,0,0,6.457908399985172,number4,False,True,True,26,1,2019_Nov_18_0902,MA_Theta_Exp,3.0.7,59.9129584468211,
video/Experiment/zh_sp01_Un_Ro_3_NoThetaInAudio_NoVideo.avi,noTheta,noVideo,sp01,Un,Ro,3,4,4,flow/blocks/NoThetaInAudio_NoVideo_A.csv,,,,,,,,,0,4,4,4,0,1,1,26,-0.3486111111111111,-0.3263888888888889,1,0,0,5.19542200001888,call4,0.019444444444444445,-0.11527777777777778,1,0,0,5.648459099931642,colour3,0.4,-0.1388888888888889,1,0,0,6.052475399919786,number3,True,True,True,26,1,2019_Nov_18_0902,MA_Theta_Exp,3.0.7,59.9129584468211,
video/Experiment/zh_sp01_Ad_Gr_3_NoThetaInAudio_NoVideo.avi,noTheta,noVideo,sp01,Ad,Gr,3,4,4,flow/blocks/NoThetaInAudio_NoVideo_A.csv,,,,,,,,,0,4,4,4,0,2,2,22,-0.3638888888888889,0.3013888888888889,1,0,0,5.165715200011618,call1,-0.02361111111111111,0.11944444444444445,1,0,0,5.687882300000638,colour2,0.44583333333333336,-0.125,1,0,0,6.268431799951941,number3,True,True,True,26,1,2019_Nov_18_0902,MA_Theta_Exp,3.0.7,59.9129584468211,
video/Experiment/zh_sp01_Dr_We_2_NoThetaInAudio_NoVideo.avi,noTheta,noVideo,sp01,Dr,We,2,4,4,flow/blocks/NoThetaInAudio_NoVideo_A.csv,,,,,,,,,0,4,4,4,0,3,3,13,-0.34444444444444444,-0.31666666666666665,1,0,0,5.134691299987026,call4,0.002777777777777778,-0.32222222222222224,1,0,0,5.517613100004382,colour4,0.33194444444444443,0.11666666666666667,1,0,0,6.002173200016841,number2,False,True,True,26,1,2019_Nov_18_0902,MA_Theta_Exp,3.0.7,59.9129584468211,
video/Experiment/zh_sp07_Ti_Ge_2_NoThetaInAudio_NoVideo.avi,noTheta,noVideo,sp07,Ti,Ge,2,4,4,flow/blocks/NoThetaInAudio_NoVideo_A.csv,,,,,,,,,0,4,4,4,0,4,4,1,-0.3597222222222222,0.1361111111111111,1,0,0,4.577670100028627,call2,-0.025,0.27361111111111114,1,0,0,5.022681499947794,colour1,0.3402777777777778,0.0875,1,0,0,5.4601554000983015,number2,False,True,True,26,1,2019_Nov_18_0902,MA_Theta_Exp,3.0.7,59.9129584468211,
video/Experiment/zh_sp07_Ti_Ge_3_NoThetaInAudio_NoVideo.avi,noTheta,noVideo,sp07,Ti,Ge,3,4,4,flow/blocks/NoThetaInAudio_NoVideo_A.csv,,,,,,,,,0,4,4,4,0,5,5,18,-0.3958333333333333,0.11805555555555555,1,0,0,4.256611000047997,call2,0.0,0.30694444444444446,1,0,0,4.693511600024067,colour1,0.3875,-0.11527777777777778,1,0,0,5.243244000012055,number3,False,True,True,26,1,2019_Nov_18_0902,MA_Theta_Exp,3.0.7,59.9129584468211,
video/Experiment/zh_sp01_Ad_Gr_1_NoThetaInAudio_NoVideo.avi,noTheta,noVideo,sp01,Ad,Gr,1,4,4,flow/blocks/NoThetaInAudio_NoVideo_A.csv,,,,,,,,,0,4,4,4,0,6,6,4,-0.3875,0.3138888888888889,1,0,0,5.138432800071314,call1,0.004166666666666667,0.05416666666666667,1,0,0,5.636361500015482,colour2,0.3458333333333333,0.2611111111111111,1,0,0,6.091323900036514,number1,True,True,True,26,1,2019_Nov_18_0902,MA_Theta_Exp,3.0.7,59.9129584468211,
video/Experiment/zh_sp01_Dr_Gr_3_NoThetaInAudio_NoVideo.avi,noTheta,noVideo,sp01,Dr,Gr,3,4,4,flow/blocks/NoThetaInAudio_NoVideo_A.csv,,,,,,,,,0,4,4,4,0,7,7,6,-0.3888888888888889,0.22777777777777777,1,0,0,5.663382999948226,call1,0.027777777777777776,0.09305555555555556,1,0,0,6.260541799943894,colour2,0.4125,-0.059722222222222225,1,0,0,6.745604299940169,number3,False,True,True,26,1,2019_Nov_18_0902,MA_Theta_Exp,3.0.7,59.9129584468211,
video/Experiment/zh_sp07_Ad_Gr_2_NoThetaInAudio_NoVideo.avi,noTheta,noVideo,sp07,Ad,Gr,2,4,4,flow/blocks/NoThetaInAudio_NoVideo_A.csv,,,,,,,,,0,4,4,4,0,8,8,21,-0.3875,-0.3263888888888889,1,0,0,4.6211251999484375,call4,-0.029166666666666667,0.10555555555555556,1,0,0,5.109615699970163,colour2,0.3875,0.09305555555555556,1,0,0,5.523960299906321,number2,False,True,True,26,1,2019_Nov_18_0902,MA_Theta_Exp,3.0.7,59.9129584468211,
video/Experiment/zh_sp01_Dr_Ro_2_NoThetaInAudio_NoVideo.avi,noTheta,noVideo,sp01,Dr,Ro,2,4,4,flow/blocks/NoThetaInAudio_NoVideo_A.csv,,,,,,,,,0,4,4,4,0,9,9,9,-0.4013888888888889,0.32222222222222224,1,0,0,5.497869899962097,call1,0.006944444444444444,-0.08472222222222223,1,0,0,6.08533150004223,colour3,0.4222222222222222,0.09444444444444444,1,0,0,6.495717399986461,number2,False,True,True,26,1,2019_Nov_18_0902,MA_Theta_Exp,3.0.7,59.9129584468211,
video/Experiment/zh_sp07_Un_Ge_3_NoThetaInAudio_NoVideo.avi,noTheta,noVideo,sp07,Un,Ge,3,4,4,flow/blocks/NoThetaInAudio_NoVideo_A.csv,,,,,,,,,0,4,4,4,0,10,10,2,-0.3402777777777778,-0.09305555555555556,1,0,0,5.065767299965955,call3,0.04722222222222222,0.3055555555555556,1,0,0,5.547755300067365,colour1,0.37916666666666665,-0.1111111111111111,1,0,0,6.0933974999934435,number3,False,True,True,26,1,2019_Nov_18_0902,MA_Theta_Exp,3.0.7,59.9129584468211,
video/Experiment/zh_sp01_Un_Gr_1_NoThetaInAudio_NoVideo.avi,noTheta,noVideo,sp01,Un,Gr,1,4,4,flow/blocks/NoThetaInAudio_NoVideo_A.csv,,,,,,,,,0,4,4,4,0,11,11,20,-0.3875,-0.3125,1,0,0,4.985376999946311,call4,-0.05138888888888889,0.06527777777777778,1,0,0,5.466039999970235,colour2,0.4083333333333333,0.32083333333333336,1,0,0,6.013146000099368,number1,True,True,True,26,1,2019_Nov_18_0902,MA_Theta_Exp,3.0.7,59.9129584468211,
video/Experiment/zh_sp07_Un_Ge_2_NoThetaInAudio_NoVideo.avi,noTheta,noVideo,sp07,Un,Ge,2,4,4,flow/blocks/NoThetaInAudio_NoVideo_A.csv,,,,,,,,,0,4,4,4,0,12,12,17,-0.3819444444444444,-0.31203703703703706,1,0,0,4.5857616000575945,call4,0.0,0.29074074074074074,1,0,0,5.201341399922967,colour1,0.38055555555555554,0.09212962962962963,1,0,0,5.717492599971592,number2,True,True,True,26,1,2019_Nov_18_0902,MA_Theta_Exp,3.0.7,59.9129584468211,
video/Experiment/zh_sp01_Un_We_3_NoThetaInAudio_NoVideo.avi,noTheta,noVideo,sp01,Un,We,3,4,4,flow/blocks/NoThetaInAudio_NoVideo_A.csv,,,,,,,,,0,4,4,4,0,13,13,14,-0.37083333333333335,-0.324537037037037,1,0,0,4.849801800097339,call4,0.05138888888888889,-0.32314814814814813,1,0,0,5.321204400039278,colour4,0.4513888888888889,-0.08842592592592592,1,0,0,5.767091299989261,number3,True,True,True,26,1,2019_Nov_18_0902,MA_Theta_Exp,3.0.7,59.9129584468211,
video/Experiment/zh_sp07_Dr_Ge_1_NoThetaInAudio_NoVideo.avi,noTheta,noVideo,sp07,Dr,Ge,1,4,4,flow/blocks/NoThetaInAudio_NoVideo_A.csv,,,,,,,,,0,4,4,4,0,14,14,0,-0.4111111111111111,-0.3106481481481482,1,0,0,4.312540500075556,call4,0.013888888888888888,0.28935185185185186,1,0,0,4.889038300025277,colour1,0.36944444444444446,0.3143518518518518,1,0,0,5.372343800030649,number1,False,True,True,26,1,2019_Nov_18_0902,MA_Theta_Exp,3.0.7,59.9129584468211,
video/Experiment/zh_sp01_Dr_Gr_4_NoThetaInAudio_NoVideo.avi,noTheta,noVideo,sp01,Dr,Gr,4,4,4,flow/blocks/NoThetaInAudio_NoVideo_A.csv,,,,,,,,,0,4,4,4,0,15,15,23,-0.3861111111111111,-0.29814814814814816,1,0,0,5.122878999914974,call4,0.005555555555555556,0.10185185185185185,1,0,0,5.7059281000401825,colour2,0.3388888888888889,-0.24259259259259258,1,0,0,6.3224832999985665,number4,False,True,True,26,1,2019_Nov_18_0902,MA_Theta_Exp,3.0.7,59.9129584468211,
video/Experiment/zh_sp07_Dr_Ge_4_NoThetaInAudio_NoVideo.avi,noTheta,noVideo,sp07,Dr,Ge,4,4,4,flow/blocks/NoThetaInAudio_NoVideo_A.csv,,,,,,,,,0,4,4,4,0,16,16,19,-0.38333333333333336,-0.3148148148148148,1,0,0,4.4302895000437275,call4,0.015277777777777777,0.2824074074074074,1,0,0,4.989946100045927,colour1,0.31666666666666665,-0.26342592592592595,1,0,0,5.505885099992156,number4,False,True,True,26,1,2019_Nov_18_0902,MA_Theta_Exp,3.0.7,59.9129584468211,
video/Experiment/zh_sp07_Dr_Gr_2_NoThetaInAudio_NoVideo.avi,noTheta,noVideo,sp07,Dr,Gr,2,4,4,flow/blocks/NoThetaInAudio_NoVideo_A.csv,,,,,,,,,0,4,4,4,0,17,17,5,-0.3402777777777778,-0.3425925925925926,1,0,0,4.582587699987926,call4,0.0125,0.09768518518518518,1,0,0,5.082420699996874,colour2,0.4097222222222222,0.09768518518518518,1,0,0,5.536983700003475,number2,False,True,True,26,1,2019_Nov_18_0902,MA_Theta_Exp,3.0.7,59.9129584468211,
video/Experiment/zh_sp07_Ad_Ro_4_NoThetaInAudio_NoVideo.avi,noTheta,noVideo,sp07,Ad,Ro,4,4,4,flow/blocks/NoThetaInAudio_NoVideo_A.csv,,,,,,,,,0,4,4,4,0,18,18,11,-0.3819444444444444,0.33240740740740743,1,0,0,4.480024000047706,call1,0.015277777777777777,-0.05925925925925926,1,0,0,4.96258960000705,colour3,0.3958333333333333,-0.3189814814814815,1,0,0,5.463237899937667,number4,True,True,True,26,1,2019_Nov_18_0902,MA_Theta_Exp,3.0.7,59.9129584468211,
video/Experiment/zh_sp07_Ti_Gr_4_NoThetaInAudio_NoVideo.avi,noTheta,noVideo,sp07,Ti,Gr,4,4,4,flow/blocks/NoThetaInAudio_NoVideo_A.csv,,,,,,,,,0,4,4,4,0,19,19,7,-0.4083333333333333,0.27685185185185185,1,0,0,4.729370000073686,call1,0.004166666666666667,0.033796296296296297,1,0,0,5.214892699965276,colour2,0.36666666666666664,-0.2773148148148148,1,0,0,5.727643099962734,number4,False,True,True,26,1,2019_Nov_18_0902,MA_Theta_Exp,3.0.7,59.9129584468211,
video/Experiment/zh_sp01_Ad_We_1_NoThetaInAudio_NoVideo.avi,noTheta,noVideo,sp01,Ad,We,1,4,4,flow/blocks/NoThetaInAudio_NoVideo_A.csv,,,,,,,,,0,4,4,4,0,20,20,12,-0.37083333333333335,0.3143518518518518,1,0,0,5.040286300005391,call1,0.044444444444444446,-0.3106481481481482,1,0,0,6.084780699922703,colour4,0.3458333333333333,0.2712962962962963,1,0,0,6.590679800021462,number1,True,True,True,26,1,2019_Nov_18_0902,MA_Theta_Exp,3.0.7,59.9129584468211,
video/Experiment/zh_sp01_Ad_Ro_1_NoThetaInAudio_NoVideo.avi,noTheta,noVideo,sp01,Ad,Ro,1,4,4,flow/blocks/NoThetaInAudio_NoVideo_A.csv,,,,,,,,,0,4,4,4,0,21,21,8,-0.35555555555555557,0.31712962962962965,1,0,0,5.61455660010688,call1,0.04027777777777778,0.09074074074074075,1,0,0,6.018144499976188,colour2,0.35833333333333334,0.29212962962962963,1,0,0,6.453123499988578,number1,True,False,True,26,1,2019_Nov_18_0902,MA_Theta_Exp,3.0.7,59.9129584468211,
video/Experiment/zh_sp01_Ti_Ge_1_NoThetaInAudio_NoVideo.avi,noTheta,noVideo,sp01,Ti,Ge,1,4,4,flow/blocks/NoThetaInAudio_NoVideo_A.csv,,,,,,,,,0,4,4,4,0,22,22,16,-0.375,0.2962962962962963,1,0,0,5.0760440999874845,call1,0.0125,0.28935185185185186,1,0,0,5.511713000014424,colour1,0.35138888888888886,0.29212962962962963,1,0,0,5.927609200007282,number1,False,True,True,26,1,2019_Nov_18_0902,MA_Theta_Exp,3.0.7,59.9129584468211,
video/Experiment/zh_sp01_Ad_We_3_NoThetaInAudio_NoVideo.avi,noTheta,noVideo,sp01,Ad,We,3,4,4,flow/blocks/NoThetaInAudio_NoVideo_A.csv,,,,,,,,,0,4,4,4,0,23,23,30,-0.36666666666666664,0.2962962962962963,1,0,0,4.9702108999481425,call1,-0.013888888888888888,-0.32314814814814813,1,0,0,5.59826310002245,colour4,0.4305555555555556,-0.09398148148148149,1,0,0,6.0510024999966845,number3,True,True,True,26,1,2019_Nov_18_0902,MA_Theta_Exp,3.0.7,59.9129584468211,
video/Experiment/zh_sp01_Un_We_4_NoThetaInAudio_NoVideo.avi,noTheta,noVideo,sp01,Un,We,4,4,4,flow/blocks/NoThetaInAudio_NoVideo_A.csv,,,,,,,,,0,4,4,4,0,24,24,15,-0.37916666666666665,-0.2953703703703704,1,0,0,5.075522299972363,call4,-0.011111111111111112,-0.337037037037037,1,0,0,5.47153670003172,colour4,0.3888888888888889,-0.32175925925925924,1,0,0,5.938855699962005,number4,True,True,True,26,1,2019_Nov_18_0902,MA_Theta_Exp,3.0.7,59.9129584468211,
video/Experiment/zh_sp07_Ti_Ro_2_NoThetaInAudio_NoVideo.avi,noTheta,noVideo,sp07,Ti,Ro,2,4,4,flow/blocks/NoThetaInAudio_NoVideo_A.csv,,,,,,,,,0,4,4,4,0,25,25,25,-0.3680555555555556,-0.32592592592592595,1,0,0,4.431784800020978,call4,0.05416666666666667,-0.06898148148148148,1,0,0,5.033666600007564,colour3,0.35694444444444445,0.07824074074074074,1,0,0,5.515450899954885,number2,False,True,True,26,1,2019_Nov_18_0902,MA_Theta_Exp,3.0.7,59.9129584468211,
video/Experiment/zh_sp07_Ti_Ge_4_NoThetaInAudio_NoVideo.avi,noTheta,noVideo,sp07,Ti,Ge,4,4,4,flow/blocks/NoThetaInAudio_NoVideo_A.csv,,,,,,,,,0,4,4,4,0,26,26,3,-0.3763888888888889,-0.3398148148148148,1,0,0,4.4322793000610545,call4,-0.03333333333333333,0.2935185185185185,1,0,0,5.009748599957675,colour1,0.3736111111111111,-0.3398148148148148,1,0,0,5.642469799960963,number4,False,True,True,26,1,2019_Nov_18_0902,MA_Theta_Exp,3.0.7,59.9129584468211,
video/Experiment/zh_sp07_Ti_Ro_3_NoThetaInAudio_NoVideo.avi,noTheta,noVideo,sp07,Ti,Ro,3,4,4,flow/blocks/NoThetaInAudio_NoVideo_A.csv,,,,,,,,,0,4,4,4,0,27,27,10,-0.39166666666666666,-0.12175925925925926,1,0,0,4.352947199949995,call3,0.0763888888888889,-0.14537037037037037,1,0,0,4.770912499981932,colour3,0.38055555555555554,-0.1050925925925926,1,0,0,5.200920599978417,number3,True,True,True,26,1,2019_Nov_18_0902,MA_Theta_Exp,3.0.7,59.9129584468211,
video/Experiment/zh_sp01_Un_Ro_1_NoThetaInAudio_NoVideo.avi,noTheta,noVideo,sp01,Un,Ro,1,4,4,flow/blocks/NoThetaInAudio_NoVideo_A.csv,,,,,,,,,0,4,4,4,0,28,28,24,-0.39861111111111114,-0.32175925925925924,1,0,0,5.221813099924475,call4,0.015277777777777777,-0.1300925925925926,1,0,0,5.649678000016138,colour3,0.4111111111111111,0.27685185185185185,1,0,0,6.219064800068736,number1,True,True,True,26,1,2019_Nov_18_0902,MA_Theta_Exp,3.0.7,59.9129584468211,
video/Experiment/zh_sp07_Un_We_1_NoThetaInAudio_NoVideo.avi,noTheta,noVideo,sp07,Un,We,1,4,4,flow/blocks/NoThetaInAudio_NoVideo_A.csv,,,,,,,,,0,4,4,4,0,29,29,28,-0.4263888888888889,-0.3384259259259259,1,0,0,4.239012499921955,call4,0.009722222222222222,-0.29398148148148145,1,0,0,4.704535199911334,colour4,0.4013888888888889,0.2851851851851852,1,0,0,5.37495540000964,number1,True,True,True,26,1,2019_Nov_18_0902,MA_Theta_Exp,3.0.7,59.9129584468211,
video/Experiment/zh_sp07_Dr_Ro_4_NoThetaInAudio_NoVideo.avi,noTheta,noVideo,sp07,Dr,Ro,4,4,4,flow/blocks/NoThetaInAudio_NoVideo_A.csv,,,,,,,,,0,4,4,4,0,30,30,27,-0.4041666666666667,-0.32175925925925924,1,0,0,4.568713100044988,call4,-0.044444444444444446,-0.12731481481481483,1,0,0,4.996505599934608,colour3,0.4083333333333333,-0.29814814814814816,1,0,0,5.430862700100988,number4,False,True,True,26,1,2019_Nov_18_0902,MA_Theta_Exp,3.0.7,59.9129584468211,
video/Experiment/zh_sp07_Ad_We_2_NoThetaInAudio_NoVideo.avi,noTheta,noVideo,sp07,Ad,We,2,4,4,flow/blocks/NoThetaInAudio_NoVideo_A.csv,,,,,,,,,0,4,4,4,0,31,31,29,-0.375,0.27546296296296297,1,0,0,4.3817306000273675,call1,0.030555555555555555,-0.28703703703703703,1,0,0,4.940645199967548,colour4,0.3263888888888889,0.12824074074074074,1,0,0,5.510224600089714,number2,True,True,True,26,1,2019_Nov_18_0902,MA_Theta_Exp,3.0.7,59.9129584468211,
