videoFile,condition,video,speaker,callSign,colour,number,seq,id,block,exp.thisRepN,exp.thisTrialN,exp.thisN,exp.thisIndex,training.thisRepN,training.thisTrialN,training.thisN,training.thisIndex,firstHalf.thisRepN,firstHalf.thisTrialN,firstHalf.thisN,firstHalf.thisIndex,blocksA.thisRepN,blocksA.thisTrialN,blocksA.thisN,blocksA.thisIndex,secondHalf.thisRepN,secondHalf.thisTrialN,secondHalf.thisN,secondHalf.thisIndex,blocksB.thisRepN,blocksB.thisTrialN,blocksB.thisN,blocksB.thisIndex,mouseClickOnCall.x,mouseClickOnCall.y,mouseClickOnCall.leftButton,mouseClickOnCall.midButton,mouseClickOnCall.rightButton,mouseClickOnCall.time,mouseClickOnCall.clicked_name,mouseClickOnColour.x,mouseClickOnColour.y,mouseClickOnColour.leftButton,mouseClickOnColour.midButton,mouseClickOnColour.rightButton,mouseClickOnColour.time,mouseClickOnColour.clicked_name,mouseClickOnNumber.x,mouseClickOnNumber.y,mouseClickOnNumber.leftButton,mouseClickOnNumber.midButton,mouseClickOnNumber.rightButton,mouseClickOnNumber.time,mouseClickOnNumber.clicked_name,callSignCorrect,colourCorrect,numberCorrect,participant,order,date,expName,psychopyVersion,frameRate,
video/Training/zh_sp01_Ad_We_4_NVocInAudio_NoVideo.avi,vocoded,noVideo,sp01,Ad,We,4,,,,,,,,0,0,0,0,,,,,,,,,,,,,,,,,-0.41574074074074074,0.30324074074074076,1,0,0,6.322064400068484,call1,0.020370370370370372,-0.3592592592592593,1,0,0,7.688757300027646,colour4,0.4009259259259259,-0.32314814814814813,1,0,0,8.588006499921903,number4,True,True,True,27,2,2019_Nov_18_1002,MA_Theta_Exp,3.0.7,59.973108049072366,
video/Training/zh_sp07_Ad_Ge_3_NVocInAudio_NoVideo.avi,vocoded,noVideo,sp07,Ad,Ge,3,,,,,,,,0,1,1,1,,,,,,,,,,,,,,,,,-0.3976851851851852,0.3476851851851852,1,0,0,5.107902999967337,call1,0.020370370370370372,0.3296296296296296,1,0,0,6.141233999980614,colour1,0.4078703703703704,-0.06481481481481481,1,0,0,7.025113400071859,number3,True,True,True,27,2,2019_Nov_18_1002,MA_Theta_Exp,3.0.7,59.973108049072366,
video/Training/zh_sp01_Dr_Ro_3_NVocInAudio_GlobalThetaInVideo.avi,vocoded,plusVideo,sp01,Dr,Ro,3,,,,,,,,0,2,2,2,,,,,,,,,,,,,,,,,-0.42268518518518516,0.11435185185185186,1,0,0,6.343303199973889,call2,0.060648148148148145,0.26851851851851855,1,0,0,8.093458899995312,colour1,0.3578703703703704,-0.08842592592592592,1,0,0,8.99373220000416,number3,True,False,True,27,2,2019_Nov_18_1002,MA_Theta_Exp,3.0.7,59.973108049072366,
video/Training/zh_sp07_Dr_Gr_4_NVocInAudio_GlobalThetaInVideo.avi,vocoded,plusVideo,sp07,Dr,Gr,4,,,,,,,,0,3,3,3,,,,,,,,,,,,,,,,,-0.4324074074074074,0.12268518518518519,1,0,0,6.166912300046533,call2,0.010648148148148148,0.08935185185185185,1,0,0,6.947333900025114,colour2,0.4162037037037037,-0.3189814814814815,1,0,0,8.367580599966459,number4,True,True,True,27,2,2019_Nov_18_1002,MA_Theta_Exp,3.0.7,59.973108049072366,
video/Training/zh_sp01_Ti_Gr_2_NoThetaInAudio_NoVideo.avi,noTheta,noVideo,sp01,Ti,Gr,2,,,,,,,,0,4,4,4,,,,,,,,,,,,,,,,,0.3731481481481482,0.13935185185185187,1,0,0,5.826029899995774,call1,-0.01712962962962963,0.3074074074074074,1,0,0,10.025260200025514,colour1,0.3925925925925926,0.09351851851851851,1,0,0,10.758471900015138,number2,False,False,True,27,2,2019_Nov_18_1002,MA_Theta_Exp,3.0.7,59.973108049072366,
video/Training/zh_sp07_Ti_Ro_1_NoThetaInAudio_NoVideo.avi,noTheta,noVideo,sp07,Ti,Ro,1,,,,,,,,0,5,5,5,,,,,,,,,,,,,,,,,-0.4212962962962963,0.09907407407407408,1,0,0,8.905166500015184,call2,-0.02962962962962963,-0.1162037037037037,1,0,0,9.572408200008795,colour3,0.34675925925925927,0.3143518518518518,1,0,0,10.537673500017263,number1,False,True,True,27,2,2019_Nov_18_1002,MA_Theta_Exp,3.0.7,59.973108049072366,
video/Training/zh_sp01_Un_Ge_1_NoThetaInAudio_GlobalThetaInVideo.avi,noTheta,plusVideo,sp01,Un,Ge,1,,,,,,,,0,6,6,6,,,,,,,,,,,,,,,,,-0.3976851851851852,-0.28425925925925927,1,0,0,6.118812500033528,call4,-0.04212962962962963,0.31157407407407406,1,0,0,7.205345800030045,colour1,0.37175925925925923,0.3226851851851852,1,0,0,8.057434899965301,number1,True,True,True,27,2,2019_Nov_18_1002,MA_Theta_Exp,3.0.7,59.973108049072366,
video/Training/zh_sp07_Un_We_2_NoThetaInAudio_GlobalThetaInVideo.avi,noTheta,plusVideo,sp07,Un,We,2,,,,,,,,0,7,7,7,,,,,,,,,,,,,,,,,-0.4185185185185185,-0.2953703703703704,1,0,0,5.1018615999491885,call4,0.000925925925925926,-0.29259259259259257,1,0,0,6.017997800023295,colour4,0.3787037037037037,0.29768518518518516,1,0,0,6.869311999995261,number1,True,True,False,27,2,2019_Nov_18_1002,MA_Theta_Exp,3.0.7,59.973108049072366,
video/Training/zh_sp01_Ad_Ge_1_GlobalTheta_NoVideo.avi,globalTheta,noVideo,sp01,Ad,Ge,1,,,,,,,,0,8,8,8,,,,,,,,,,,,,,,,,-0.3990740740740741,0.3194444444444444,1,0,0,5.4131442999932915,call1,0.06342592592592593,0.31527777777777777,1,0,0,6.562536500045098,colour1,0.4439814814814815,0.30972222222222223,1,0,0,7.429216000018641,number1,True,True,True,27,2,2019_Nov_18_1002,MA_Theta_Exp,3.0.7,59.973108049072366,
video/Training/zh_sp07_Ad_Ro_3_GlobalTheta_NoVideo.avi,globalTheta,noVideo,sp07,Ad,Ro,3,,,,,,,,0,9,9,9,,,,,,,,,,,,,,,,,-0.412962962962963,0.3,1,0,0,5.929429500014521,call1,0.03148148148148148,0.2777777777777778,1,0,0,7.179292400018312,colour1,0.40925925925925927,-0.2652777777777778,1,0,0,8.046231299987994,number4,True,False,False,27,2,2019_Nov_18_1002,MA_Theta_Exp,3.0.7,59.973108049072366,
video/Experiment/zh_sp07_Dr_Gr_2_NoThetaInAudio_GlobalThetaInVideo.avi,noTheta,plusVideo,sp07,Dr,Gr,2,0,3,flow/blocks/NoThetaInAudio_GlobalThetaInVideo_A.csv,,,,,,,,,0,0,0,0,0,0,0,5,,,,,,,,,-0.36157407407407405,0.30277777777777776,1,0,0,4.636971400002949,call1,0.03564814814814815,0.08888888888888889,1,0,0,5.286929999943823,colour2,0.38842592592592595,0.08194444444444444,1,0,0,5.970237700035796,number2,False,True,True,27,2,2019_Nov_18_1002,MA_Theta_Exp,3.0.7,59.973108049072366,
video/Experiment/zh_sp01_Ti_Ge_1_NoThetaInAudio_GlobalThetaInVideo.avi,noTheta,plusVideo,sp01,Ti,Ge,1,0,3,flow/blocks/NoThetaInAudio_GlobalThetaInVideo_A.csv,,,,,,,,,0,0,0,0,0,1,1,16,,,,,,,,,-0.4824074074074074,-0.11666666666666667,1,0,0,5.535823100013658,call3,-0.024074074074074074,0.30694444444444446,1,0,0,6.435951699968427,colour1,0.4148148148148148,0.30694444444444446,1,0,0,7.118832999956794,number1,True,True,True,27,2,2019_Nov_18_1002,MA_Theta_Exp,3.0.7,59.973108049072366,
video/Experiment/zh_sp07_Dr_Ro_2_NoThetaInAudio_GlobalThetaInVideo.avi,noTheta,plusVideo,sp07,Dr,Ro,2,0,3,flow/blocks/NoThetaInAudio_GlobalThetaInVideo_A.csv,,,,,,,,,0,0,0,0,0,2,2,9,,,,,,,,,-0.41712962962962963,0.3472222222222222,1,0,0,4.778291299939156,call1,0.05648148148148148,-0.06388888888888888,1,0,0,5.511386900092475,colour3,0.43425925925925923,0.325,1,0,0,6.314095100038685,number1,False,True,False,27,2,2019_Nov_18_1002,MA_Theta_Exp,3.0.7,59.973108049072366,
video/Experiment/zh_sp01_Un_Ro_1_NoThetaInAudio_GlobalThetaInVideo.avi,noTheta,plusVideo,sp01,Un,Ro,1,0,3,flow/blocks/NoThetaInAudio_GlobalThetaInVideo_A.csv,,,,,,,,,0,0,0,0,0,3,3,24,,,,,,,,,-0.37824074074074077,-0.34305555555555556,1,0,0,5.326017100014724,call4,-0.01712962962962963,-0.13333333333333333,1,0,0,5.974504900048487,colour3,0.40370370370370373,0.2986111111111111,1,0,0,6.9905490999808535,number1,True,True,True,27,2,2019_Nov_18_1002,MA_Theta_Exp,3.0.7,59.973108049072366,
video/Experiment/zh_sp07_Un_We_3_NoThetaInAudio_GlobalThetaInVideo.avi,noTheta,plusVideo,sp07,Un,We,3,0,3,flow/blocks/NoThetaInAudio_GlobalThetaInVideo_A.csv,,,,,,,,,0,0,0,0,0,4,4,14,,,,,,,,,-0.37407407407407406,-0.3236111111111111,1,0,0,5.073134100064635,call4,-0.014351851851851852,-0.33611111111111114,1,0,0,5.813538599992171,colour4,0.4287037037037037,-0.0875,1,0,0,6.58520959992893,number3,True,True,True,27,2,2019_Nov_18_1002,MA_Theta_Exp,3.0.7,59.973108049072366,
video/Experiment/zh_sp01_Dr_Ro_4_NoThetaInAudio_GlobalThetaInVideo.avi,noTheta,plusVideo,sp01,Dr,Ro,4,0,3,flow/blocks/NoThetaInAudio_GlobalThetaInVideo_A.csv,,,,,,,,,0,0,0,0,0,5,5,27,,,,,,,,,-0.4212962962962963,-0.29444444444444445,1,0,0,5.272535299998708,call4,-0.011574074074074073,-0.09722222222222222,1,0,0,5.972353299963288,colour3,0.449537037037037,-0.325,1,0,0,6.610011800075881,number4,False,True,True,27,2,2019_Nov_18_1002,MA_Theta_Exp,3.0.7,59.973108049072366,
video/Experiment/zh_sp01_Ad_Ro_4_NoThetaInAudio_GlobalThetaInVideo.avi,noTheta,plusVideo,sp01,Ad,Ro,4,0,3,flow/blocks/NoThetaInAudio_GlobalThetaInVideo_A.csv,,,,,,,,,0,0,0,0,0,6,6,11,,,,,,,,,-0.41574074074074074,0.35,1,0,0,5.565971700008959,call1,0.0412037037037037,-0.1388888888888889,1,0,0,6.365549899986945,colour3,0.4300925925925926,-0.31527777777777777,1,0,0,7.000725700054318,number4,True,True,True,27,2,2019_Nov_18_1002,MA_Theta_Exp,3.0.7,59.973108049072366,
video/Experiment/zh_sp07_Ti_Ro_3_NoThetaInAudio_GlobalThetaInVideo.avi,noTheta,plusVideo,sp07,Ti,Ro,3,0,3,flow/blocks/NoThetaInAudio_GlobalThetaInVideo_A.csv,,,,,,,,,0,0,0,0,0,7,7,10,,,,,,,,,-0.36157407407407405,-0.12916666666666668,1,0,0,4.602750099962577,call3,0.037037037037037035,-0.12916666666666668,1,0,0,5.2523143999278545,colour3,0.4787037037037037,-0.09444444444444444,1,0,0,5.905166899901815,number3,True,True,True,27,2,2019_Nov_18_1002,MA_Theta_Exp,3.0.7,59.973108049072366,
video/Experiment/zh_sp07_Dr_Ge_1_NoThetaInAudio_GlobalThetaInVideo.avi,noTheta,plusVideo,sp07,Dr,Ge,1,0,3,flow/blocks/NoThetaInAudio_GlobalThetaInVideo_A.csv,,,,,,,,,0,0,0,0,0,8,8,0,,,,,,,,,-0.4351851851851852,-0.2722222222222222,1,0,0,4.668510899995454,call4,0.024537037037037038,0.35,1,0,0,5.564988600090146,colour1,0.4217592592592593,0.3402777777777778,1,0,0,6.214608100010082,number1,False,True,True,27,2,2019_Nov_18_1002,MA_Theta_Exp,3.0.7,59.973108049072366,
video/Experiment/zh_sp01_Un_Ro_3_NoThetaInAudio_GlobalThetaInVideo.avi,noTheta,plusVideo,sp01,Un,Ro,3,0,3,flow/blocks/NoThetaInAudio_GlobalThetaInVideo_A.csv,,,,,,,,,0,0,0,0,0,9,9,26,,,,,,,,,-0.4199074074074074,-0.3055555555555556,1,0,0,5.426208800054155,call4,-0.03796296296296296,-0.13333333333333333,1,0,0,6.292650999967009,colour3,0.4273148148148148,-0.10138888888888889,1,0,0,6.926969499909319,number3,True,True,True,27,2,2019_Nov_18_1002,MA_Theta_Exp,3.0.7,59.973108049072366,
video/Experiment/zh_sp01_Ad_We_2_NoThetaInAudio_GlobalThetaInVideo.avi,noTheta,plusVideo,sp01,Ad,We,2,0,3,flow/blocks/NoThetaInAudio_GlobalThetaInVideo_A.csv,,,,,,,,,0,0,0,0,0,10,10,29,,,,,,,,,-0.4726851851851852,0.3013888888888889,1,0,0,5.378517900011502,call1,0.006481481481481481,-0.30277777777777776,1,0,0,6.228338099899702,colour4,0.39675925925925926,0.06805555555555555,1,0,0,6.994752100086771,number2,True,True,True,27,2,2019_Nov_18_1002,MA_Theta_Exp,3.0.7,59.973108049072366,
video/Experiment/zh_sp01_Dr_Gr_3_NoThetaInAudio_GlobalThetaInVideo.avi,noTheta,plusVideo,sp01,Dr,Gr,3,0,3,flow/blocks/NoThetaInAudio_GlobalThetaInVideo_A.csv,,,,,,,,,0,0,0,0,0,11,11,6,,,,,,,,,-0.3976851851851852,-0.3125,1,0,0,5.290731800021604,call4,-0.02824074074074074,0.11666666666666667,1,0,0,5.975124099990353,colour2,0.32037037037037036,-0.10138888888888889,1,0,0,6.592209599912167,number3,False,True,True,27,2,2019_Nov_18_1002,MA_Theta_Exp,3.0.7,59.973108049072366,
video/Experiment/zh_sp01_Ad_Gr_2_NoThetaInAudio_GlobalThetaInVideo.avi,noTheta,plusVideo,sp01,Ad,Gr,2,0,3,flow/blocks/NoThetaInAudio_GlobalThetaInVideo_A.csv,,,,,,,,,0,0,0,0,0,12,12,21,,,,,,,,,-0.41435185185185186,0.2875,1,0,0,6.616304500028491,call1,0.006481481481481481,0.13055555555555556,1,0,0,7.432813000050373,colour2,0.44814814814814813,0.1111111111111111,1,0,0,8.037378099979833,number2,True,True,True,27,2,2019_Nov_18_1002,MA_Theta_Exp,3.0.7,59.973108049072366,
video/Experiment/zh_sp07_Ad_We_3_NoThetaInAudio_GlobalThetaInVideo.avi,noTheta,plusVideo,sp07,Ad,We,3,0,3,flow/blocks/NoThetaInAudio_GlobalThetaInVideo_A.csv,,,,,,,,,0,0,0,0,0,13,13,30,,,,,,,,,-0.3699074074074074,0.2791666666666667,1,0,0,4.6054465000052005,call1,0.04814814814814815,-0.3486111111111111,1,0,0,5.367274499963969,colour4,0.4300925925925926,-0.13194444444444445,1,0,0,5.917170700035058,number3,True,True,True,27,2,2019_Nov_18_1002,MA_Theta_Exp,3.0.7,59.973108049072366,
video/Experiment/zh_sp07_Ad_Gr_1_NoThetaInAudio_GlobalThetaInVideo.avi,noTheta,plusVideo,sp07,Ad,Gr,1,0,3,flow/blocks/NoThetaInAudio_GlobalThetaInVideo_A.csv,,,,,,,,,0,0,0,0,0,14,14,4,,,,,,,,,-0.42685185185185187,0.35,1,0,0,5.355202500009909,call1,0.02175925925925926,0.10972222222222222,1,0,0,6.054558799951337,colour2,0.39537037037037037,0.3263888888888889,1,0,0,6.808375300024636,number1,True,True,True,27,2,2019_Nov_18_1002,MA_Theta_Exp,3.0.7,59.973108049072366,
video/Experiment/zh_sp01_Un_We_1_NoThetaInAudio_GlobalThetaInVideo.avi,noTheta,plusVideo,sp01,Un,We,1,0,3,flow/blocks/NoThetaInAudio_GlobalThetaInVideo_A.csv,,,,,,,,,0,0,0,0,0,15,15,28,,,,,,,,,-0.4393518518518518,-0.31805555555555554,1,0,0,5.404047399992123,call4,-0.018518518518518517,-0.27361111111111114,1,0,0,6.088150199968368,colour4,0.41064814814814815,0.24305555555555555,1,0,0,6.870676100021228,number1,True,True,True,27,2,2019_Nov_18_1002,MA_Theta_Exp,3.0.7,59.973108049072366,
video/Experiment/zh_sp01_Ad_Ro_1_NoThetaInAudio_GlobalThetaInVideo.avi,noTheta,plusVideo,sp01,Ad,Ro,1,0,3,flow/blocks/NoThetaInAudio_GlobalThetaInVideo_A.csv,,,,,,,,,0,0,0,0,0,16,16,8,,,,,,,,,-0.3990740740740741,0.2638888888888889,1,0,0,5.307661199942231,call1,0.024537037037037038,-0.10694444444444444,1,0,0,5.974455400020815,colour3,0.38564814814814813,0.2833333333333333,1,0,0,6.609211300034076,number1,True,True,True,27,2,2019_Nov_18_1002,MA_Theta_Exp,3.0.7,59.973108049072366,
video/Experiment/zh_sp07_Ti_Ge_2_NoThetaInAudio_GlobalThetaInVideo.avi,noTheta,plusVideo,sp07,Ti,Ge,2,0,3,flow/blocks/NoThetaInAudio_GlobalThetaInVideo_A.csv,,,,,,,,,0,0,0,0,0,17,17,1,,,,,,,,,-0.43657407407407406,0.13055555555555556,1,0,0,4.775931200012565,call2,-0.01574074074074074,0.26944444444444443,1,0,0,6.072761100018397,colour1,0.4300925925925926,0.09722222222222222,1,0,0,6.689084699959494,number2,False,True,True,27,2,2019_Nov_18_1002,MA_Theta_Exp,3.0.7,59.973108049072366,
video/Experiment/zh_sp01_Dr_Ge_4_NoThetaInAudio_GlobalThetaInVideo.avi,noTheta,plusVideo,sp01,Dr,Ge,4,0,3,flow/blocks/NoThetaInAudio_GlobalThetaInVideo_A.csv,,,,,,,,,0,0,0,0,0,18,18,19,,,,,,,,,-0.4532407407407407,-0.325,1,0,0,6.054033899912611,call4,-0.02962962962962963,0.3263888888888889,1,0,0,6.870824100100435,colour1,0.3675925925925926,-0.33055555555555555,1,0,0,7.690822500037029,number4,False,True,True,27,2,2019_Nov_18_1002,MA_Theta_Exp,3.0.7,59.973108049072366,
video/Experiment/zh_sp07_Dr_We_2_NoThetaInAudio_GlobalThetaInVideo.avi,noTheta,plusVideo,sp07,Dr,We,2,0,3,flow/blocks/NoThetaInAudio_GlobalThetaInVideo_A.csv,,,,,,,,,0,0,0,0,0,19,19,13,,,,,,,,,-0.4185185185185185,-0.3125,1,0,0,4.972626699949615,call4,-0.05185185185185185,-0.3194444444444444,1,0,0,5.789510099915788,colour4,0.3509259259259259,0.07916666666666666,1,0,0,6.522478599916212,number2,False,True,True,27,2,2019_Nov_18_1002,MA_Theta_Exp,3.0.7,59.973108049072366,
video/Experiment/zh_sp01_Ad_Gr_3_NoThetaInAudio_GlobalThetaInVideo.avi,noTheta,plusVideo,sp01,Ad,Gr,3,0,3,flow/blocks/NoThetaInAudio_GlobalThetaInVideo_A.csv,,,,,,,,,0,0,0,0,0,20,20,22,,,,,,,,,-0.412962962962963,0.3194444444444444,1,0,0,5.783301900024526,call1,0.05648148148148148,0.11805555555555555,1,0,0,6.450934499967843,colour2,0.4425925925925926,-0.12222222222222222,1,0,0,7.050130399991758,number3,True,True,True,27,2,2019_Nov_18_1002,MA_Theta_Exp,3.0.7,59.973108049072366,
video/Experiment/zh_sp01_Ad_We_1_NoThetaInAudio_GlobalThetaInVideo.avi,noTheta,plusVideo,sp01,Ad,We,1,0,3,flow/blocks/NoThetaInAudio_GlobalThetaInVideo_A.csv,,,,,,,,,0,0,0,0,0,21,21,12,,,,,,,,,-0.4101851851851852,0.28194444444444444,1,0,0,6.116140000056475,call1,0.006481481481481481,-0.30416666666666664,1,0,0,6.984545400016941,colour4,0.4425925925925926,0.2513888888888889,1,0,0,7.86763490003068,number1,True,True,True,27,2,2019_Nov_18_1002,MA_Theta_Exp,3.0.7,59.973108049072366,
video/Experiment/zh_sp01_Ti_Ro_2_NoThetaInAudio_GlobalThetaInVideo.avi,noTheta,plusVideo,sp01,Ti,Ro,2,0,3,flow/blocks/NoThetaInAudio_GlobalThetaInVideo_A.csv,,,,,,,,,0,0,0,0,0,22,22,25,,,,,,,,,-0.425462962962963,-0.11388888888888889,1,0,0,5.390638599987142,call3,0.04675925925925926,-0.10416666666666667,1,0,0,6.523765599937178,colour3,0.3912037037037037,0.11666666666666667,1,0,0,7.090175200020894,number2,True,True,True,27,2,2019_Nov_18_1002,MA_Theta_Exp,3.0.7,59.973108049072366,
video/Experiment/zh_sp07_Ti_Gr_4_NoThetaInAudio_GlobalThetaInVideo.avi,noTheta,plusVideo,sp07,Ti,Gr,4,0,3,flow/blocks/NoThetaInAudio_GlobalThetaInVideo_A.csv,,,,,,,,,0,0,0,0,0,23,23,7,,,,,,,,,-0.44212962962962965,-0.1361111111111111,1,0,0,4.659136799979024,call3,-0.033796296296296297,0.10416666666666667,1,0,0,5.322295500081964,colour2,0.43703703703703706,-0.32222222222222224,1,0,0,5.922665600082837,number4,True,True,True,27,2,2019_Nov_18_1002,MA_Theta_Exp,3.0.7,59.973108049072366,
video/Experiment/zh_sp07_Un_Ge_3_NoThetaInAudio_GlobalThetaInVideo.avi,noTheta,plusVideo,sp07,Un,Ge,3,0,3,flow/blocks/NoThetaInAudio_GlobalThetaInVideo_A.csv,,,,,,,,,0,0,0,0,0,24,24,2,,,,,,,,,-0.3921296296296296,-0.3125,1,0,0,4.594706899952143,call4,0.024537037037037038,0.31805555555555554,1,0,0,6.193724900018424,colour1,0.3912037037037037,-0.11805555555555555,1,0,0,6.796975300065242,number3,True,True,True,27,2,2019_Nov_18_1002,MA_Theta_Exp,3.0.7,59.973108049072366,
video/Experiment/zh_sp01_Ti_Ge_4_NoThetaInAudio_GlobalThetaInVideo.avi,noTheta,plusVideo,sp01,Ti,Ge,4,0,3,flow/blocks/NoThetaInAudio_GlobalThetaInVideo_A.csv,,,,,,,,,0,0,0,0,0,25,25,3,,,,,,,,,-0.42824074074074076,-0.12083333333333333,1,0,0,5.306164799956605,call3,-0.0032407407407407406,0.3347222222222222,1,0,0,6.089129099971615,colour1,0.39537037037037037,-0.2916666666666667,1,0,0,6.772606400074437,number4,True,True,True,27,2,2019_Nov_18_1002,MA_Theta_Exp,3.0.7,59.973108049072366,
video/Experiment/zh_sp07_Un_We_4_NoThetaInAudio_GlobalThetaInVideo.avi,noTheta,plusVideo,sp07,Un,We,4,0,3,flow/blocks/NoThetaInAudio_GlobalThetaInVideo_A.csv,,,,,,,,,0,0,0,0,0,26,26,15,,,,,,,,,-0.3921296296296296,-0.30694444444444446,1,0,0,4.608821100089699,call4,0.0023148148148148147,-0.30833333333333335,1,0,0,5.158530400018208,colour4,0.3912037037037037,-0.33611111111111114,1,0,0,5.708435100037605,number4,True,True,True,27,2,2019_Nov_18_1002,MA_Theta_Exp,3.0.7,59.973108049072366,
video/Experiment/zh_sp07_Un_Ge_2_NoThetaInAudio_GlobalThetaInVideo.avi,noTheta,plusVideo,sp07,Un,Ge,2,0,3,flow/blocks/NoThetaInAudio_GlobalThetaInVideo_A.csv,,,,,,,,,0,0,0,0,0,27,27,17,,,,,,,,,-0.37546296296296294,-0.2916666666666667,1,0,0,4.802317399997264,call4,0.020370370370370372,0.28055555555555556,1,0,0,5.75277530006133,colour1,0.4148148148148148,0.0763888888888889,1,0,0,6.368978100013919,number2,True,True,True,27,2,2019_Nov_18_1002,MA_Theta_Exp,3.0.7,59.973108049072366,
video/Experiment/zh_sp07_Dr_Gr_4_NoThetaInAudio_GlobalThetaInVideo.avi,noTheta,plusVideo,sp07,Dr,Gr,4,0,3,flow/blocks/NoThetaInAudio_GlobalThetaInVideo_A.csv,,,,,,,,,0,0,0,0,0,28,28,23,,,,,,,,,-0.42962962962962964,-0.3416666666666667,1,0,0,4.931816299911588,call4,-0.047685185185185185,0.3194444444444444,1,0,0,5.864902300061658,colour1,0.38842592592592595,-0.15694444444444444,1,0,0,6.520223699975759,number3,False,False,False,27,2,2019_Nov_18_1002,MA_Theta_Exp,3.0.7,59.973108049072366,
video/Experiment/zh_sp01_Un_Gr_1_NoThetaInAudio_GlobalThetaInVideo.avi,noTheta,plusVideo,sp01,Un,Gr,1,0,3,flow/blocks/NoThetaInAudio_GlobalThetaInVideo_A.csv,,,,,,,,,0,0,0,0,0,29,29,20,,,,,,,,,-0.39490740740740743,-0.3111111111111111,1,0,0,5.867012800066732,call4,-0.0032407407407407406,0.09861111111111111,1,0,0,6.632543300045654,colour2,0.399537037037037,0.28055555555555556,1,0,0,7.6326477000257,number1,True,True,True,27,2,2019_Nov_18_1002,MA_Theta_Exp,3.0.7,59.973108049072366,
video/Experiment/zh_sp07_Ti_We_4_NoThetaInAudio_GlobalThetaInVideo.avi,noTheta,plusVideo,sp07,Ti,We,4,0,3,flow/blocks/NoThetaInAudio_GlobalThetaInVideo_A.csv,,,,,,,,,0,0,0,0,0,30,30,31,,,,,,,,,-0.42962962962962964,-0.15833333333333333,1,0,0,4.72827820002567,call3,0.038425925925925926,0.10972222222222222,1,0,0,5.627183299977332,colour2,0.34675925925925927,-0.275,1,0,0,6.326854999992065,number4,True,False,True,27,2,2019_Nov_18_1002,MA_Theta_Exp,3.0.7,59.973108049072366,
video/Experiment/zh_sp07_Ti_Ge_3_NoThetaInAudio_GlobalThetaInVideo.avi,noTheta,plusVideo,sp07,Ti,Ge,3,0,3,flow/blocks/NoThetaInAudio_GlobalThetaInVideo_A.csv,,,,,,,,,0,0,0,0,0,31,31,18,,,,,,,,,-0.39351851851851855,-0.10416666666666667,1,0,0,4.425652700010687,call3,-0.06296296296296296,0.325,1,0,0,5.039053300046362,colour1,0.4009259259259259,-0.16944444444444445,1,0,0,5.626232299953699,number3,True,True,True,27,2,2019_Nov_18_1002,MA_Theta_Exp,3.0.7,59.973108049072366,
video/Experiment/zh_sp01_Ad_We_4_GlobalTheta_NoVideo.avi,globalTheta,noVideo,sp01,Ad,We,4,1,5,flow/blocks/GlobalTheta_NoVideo_B.csv,,,,,,,,,0,1,1,1,0,0,0,31,,,,,,,,,-0.42268518518518516,0.3472222222222222,1,0,0,5.26433079992421,call1,0.014814814814814815,0.11944444444444445,1,0,0,6.214751800056547,colour2,0.45925925925925926,-0.34305555555555556,1,0,0,6.998428700026125,number4,True,False,True,27,2,2019_Nov_18_1002,MA_Theta_Exp,3.0.7,59.973108049072366,
video/Experiment/zh_sp07_Dr_Ro_1_GlobalTheta_NoVideo.avi,globalTheta,noVideo,sp07,Dr,Ro,1,1,5,flow/blocks/GlobalTheta_NoVideo_B.csv,,,,,,,,,0,1,1,1,0,1,1,24,,,,,,,,,-0.412962962962963,0.16527777777777777,1,0,0,4.6058686000760645,call2,0.053703703703703705,-0.12222222222222222,1,0,0,5.254683800041676,colour3,0.45787037037037037,0.30972222222222223,1,0,0,5.855250000022352,number1,True,True,True,27,2,2019_Nov_18_1002,MA_Theta_Exp,3.0.7,59.973108049072366,
video/Experiment/zh_sp01_Un_Ro_4_GlobalTheta_NoVideo.avi,globalTheta,noVideo,sp01,Un,Ro,4,1,5,flow/blocks/GlobalTheta_NoVideo_B.csv,,,,,,,,,0,1,1,1,0,2,2,27,,,,,,,,,-0.44351851851851853,-0.3541666666666667,1,0,0,5.176295800018124,call4,-0.004629629629629629,-0.12361111111111112,1,0,0,5.942647899966687,colour3,0.48842592592592593,-0.34444444444444444,1,0,0,6.509662299999036,number4,True,True,True,27,2,2019_Nov_18_1002,MA_Theta_Exp,3.0.7,59.973108049072366,
video/Experiment/zh_sp07_Ti_We_2_GlobalTheta_NoVideo.avi,globalTheta,noVideo,sp07,Ti,We,2,1,5,flow/blocks/GlobalTheta_NoVideo_B.csv,,,,,,,,,0,1,1,1,0,3,3,29,,,,,,,,,-0.43657407407407406,-0.12638888888888888,1,0,0,4.593939899932593,call3,0.014814814814814815,0.10416666666666667,1,0,0,5.260857000015676,colour2,0.36342592592592593,0.2791666666666667,1,0,0,6.21028350002598,number1,True,False,False,27,2,2019_Nov_18_1002,MA_Theta_Exp,3.0.7,59.973108049072366,
video/Experiment/zh_sp01_Ad_Ge_3_GlobalTheta_NoVideo.avi,globalTheta,noVideo,sp01,Ad,Ge,3,1,5,flow/blocks/GlobalTheta_NoVideo_B.csv,,,,,,,,,0,1,1,1,0,4,4,18,,,,,,,,,-0.3574074074074074,0.30833333333333335,1,0,0,5.0190566999372095,call1,0.01898148148148148,0.3236111111111111,1,0,0,5.835166500066407,colour1,0.3787037037037037,-0.07916666666666666,1,0,0,6.485073399962857,number3,True,True,True,27,2,2019_Nov_18_1002,MA_Theta_Exp,3.0.7,59.973108049072366,
video/Experiment/zh_sp07_Ti_Gr_1_GlobalTheta_NoVideo.avi,globalTheta,noVideo,sp07,Ti,Gr,1,1,5,flow/blocks/GlobalTheta_NoVideo_B.csv,,,,,,,,,0,1,1,1,0,5,5,4,,,,,,,,,-0.4476851851851852,-0.09861111111111111,1,0,0,4.452787499991246,call3,-0.06851851851851852,0.075,1,0,0,5.002382399979979,colour2,0.39675925925925926,0.31805555555555554,1,0,0,5.624501699930988,number1,True,True,True,27,2,2019_Nov_18_1002,MA_Theta_Exp,3.0.7,59.973108049072366,
video/Experiment/zh_sp01_Un_Gr_4_GlobalTheta_NoVideo.avi,globalTheta,noVideo,sp01,Un,Gr,4,1,5,flow/blocks/GlobalTheta_NoVideo_B.csv,,,,,,,,,0,1,1,1,0,6,6,23,,,,,,,,,-0.3907407407407407,-0.12777777777777777,1,0,0,4.778701099916361,call3,-0.05185185185185185,0.12222222222222222,1,0,0,5.310046600061469,colour2,0.3425925925925926,-0.30972222222222223,1,0,0,5.975989200058393,number4,False,True,True,27,2,2019_Nov_18_1002,MA_Theta_Exp,3.0.7,59.973108049072366,
video/Experiment/zh_sp01_Ad_Gr_4_GlobalTheta_NoVideo.avi,globalTheta,noVideo,sp01,Ad,Gr,4,1,5,flow/blocks/GlobalTheta_NoVideo_B.csv,,,,,,,,,0,1,1,1,0,7,7,7,,,,,,,,,-0.4046296296296296,0.32916666666666666,1,0,0,5.422875899937935,call1,-0.010185185185185186,0.11388888888888889,1,0,0,5.907354699913412,colour2,0.46620370370370373,-0.2986111111111111,1,0,0,6.774247800000012,number4,True,True,True,27,2,2019_Nov_18_1002,MA_Theta_Exp,3.0.7,59.973108049072366,
video/Experiment/zh_sp07_Dr_Ro_3_GlobalTheta_NoVideo.avi,globalTheta,noVideo,sp07,Dr,Ro,3,1,5,flow/blocks/GlobalTheta_NoVideo_B.csv,,,,,,,,,0,1,1,1,0,8,8,26,,,,,,,,,-0.40324074074074073,-0.32222222222222224,1,0,0,4.553789100027643,call4,0.0412037037037037,0.3111111111111111,1,0,0,5.387412499985658,colour1,0.41064814814814815,-0.16111111111111112,1,0,0,6.3042451000073925,number3,False,False,True,27,2,2019_Nov_18_1002,MA_Theta_Exp,3.0.7,59.973108049072366,
video/Experiment/zh_sp07_Ti_We_3_GlobalTheta_NoVideo.avi,globalTheta,noVideo,sp07,Ti,We,3,1,5,flow/blocks/GlobalTheta_NoVideo_B.csv,,,,,,,,,0,1,1,1,0,9,9,30,,,,,,,,,-0.4074074074074074,-0.12916666666666668,1,0,0,4.545088400016539,call3,0.024537037037037038,0.13194444444444445,1,0,0,5.13979859999381,colour2,0.3731481481481482,-0.1638888888888889,1,0,0,5.689911099965684,number3,True,False,True,27,2,2019_Nov_18_1002,MA_Theta_Exp,3.0.7,59.973108049072366,
video/Experiment/zh_sp01_Un_Gr_3_GlobalTheta_NoVideo.avi,globalTheta,noVideo,sp01,Un,Gr,3,1,5,flow/blocks/GlobalTheta_NoVideo_B.csv,,,,,,,,,0,1,1,1,0,10,10,6,,,,,,,,,-0.3990740740740741,-0.11805555555555555,1,0,0,4.864525099983439,call3,0.006481481481481481,0.059722222222222225,1,0,0,5.513910199981183,colour2,0.3398148148148148,-0.125,1,0,0,6.0648161000572145,number3,False,True,True,27,2,2019_Nov_18_1002,MA_Theta_Exp,3.0.7,59.973108049072366,
video/Experiment/zh_sp07_Ti_Ro_4_GlobalTheta_NoVideo.avi,globalTheta,noVideo,sp07,Ti,Ro,4,1,5,flow/blocks/GlobalTheta_NoVideo_B.csv,,,,,,,,,0,1,1,1,0,11,11,11,,,,,,,,,-0.41435185185185186,-0.10833333333333334,1,0,0,6.043869400047697,call3,0.003703703703703704,-0.2569444444444444,1,0,0,6.776643499964848,colour4,0.38287037037037036,-0.2972222222222222,1,0,0,7.31006189994514,number4,True,False,True,27,2,2019_Nov_18_1002,MA_Theta_Exp,3.0.7,59.973108049072366,
video/Experiment/zh_sp07_Dr_We_3_GlobalTheta_NoVideo.avi,globalTheta,noVideo,sp07,Dr,We,3,1,5,flow/blocks/GlobalTheta_NoVideo_B.csv,,,,,,,,,0,1,1,1,0,12,12,14,,,,,,,,,-0.38657407407407407,-0.10416666666666667,1,0,0,4.4660287000006065,call3,-0.001851851851851852,-0.2916666666666667,1,0,0,4.949212300009094,colour4,0.36898148148148147,-0.14583333333333334,1,0,0,5.551728600054048,number3,False,True,True,27,2,2019_Nov_18_1002,MA_Theta_Exp,3.0.7,59.973108049072366,
video/Experiment/zh_sp07_Ti_Gr_3_GlobalTheta_NoVideo.avi,globalTheta,noVideo,sp07,Ti,Gr,3,1,5,flow/blocks/GlobalTheta_NoVideo_B.csv,,,,,,,,,0,1,1,1,0,13,13,22,,,,,,,,,-0.4212962962962963,-0.1125,1,0,0,4.594100099988282,call3,-0.032407407407407406,0.07777777777777778,1,0,0,5.1097749000182375,colour2,0.41759259259259257,-0.10416666666666667,1,0,0,5.626329699996859,number3,True,True,True,27,2,2019_Nov_18_1002,MA_Theta_Exp,3.0.7,59.973108049072366,
video/Experiment/zh_sp01_Ti_We_1_GlobalTheta_NoVideo.avi,globalTheta,noVideo,sp01,Ti,We,1,1,5,flow/blocks/GlobalTheta_NoVideo_B.csv,,,,,,,,,0,1,1,1,0,14,14,12,,,,,,,,,-0.35462962962962963,-0.10972222222222222,1,0,0,5.08098530001007,call3,0.03148148148148148,-0.30694444444444446,1,0,0,5.631235299981199,colour4,0.4398148148148148,0.26805555555555555,1,0,0,6.43266249995213,number1,True,True,True,27,2,2019_Nov_18_1002,MA_Theta_Exp,3.0.7,59.973108049072366,
video/Experiment/zh_sp01_Dr_Gr_1_GlobalTheta_NoVideo.avi,globalTheta,noVideo,sp01,Dr,Gr,1,1,5,flow/blocks/GlobalTheta_NoVideo_B.csv,,,,,,,,,0,1,1,1,0,15,15,20,,,,,,,,,-0.40324074074074073,-0.10694444444444444,1,0,0,5.469675899948925,call3,0.013425925925925926,0.10138888888888889,1,0,0,6.020555099938065,colour2,0.3592592592592593,0.3138888888888889,1,0,0,6.5535430000163615,number1,False,True,True,27,2,2019_Nov_18_1002,MA_Theta_Exp,3.0.7,59.973108049072366,
video/Experiment/zh_sp07_Ti_Ro_1_GlobalTheta_NoVideo.avi,globalTheta,noVideo,sp07,Ti,Ro,1,1,5,flow/blocks/GlobalTheta_NoVideo_B.csv,,,,,,,,,0,1,1,1,0,16,16,8,,,,,,,,,-0.3768518518518518,-0.10138888888888889,1,0,0,4.498295300058089,call3,-0.050462962962962966,0.10694444444444444,1,0,0,4.997929600067437,colour2,0.3814814814814815,0.30277777777777776,1,0,0,5.532052500057034,number1,True,False,True,27,2,2019_Nov_18_1002,MA_Theta_Exp,3.0.7,59.973108049072366,
video/Experiment/zh_sp07_Dr_Ge_3_GlobalTheta_NoVideo.avi,globalTheta,noVideo,sp07,Dr,Ge,3,1,5,flow/blocks/GlobalTheta_NoVideo_B.csv,,,,,,,,,0,1,1,1,0,17,17,2,,,,,,,,,-0.40046296296296297,-0.10694444444444444,1,0,0,4.664392499951646,call3,-0.02962962962962963,0.12222222222222222,1,0,0,5.114771399996243,colour2,0.4398148148148148,-0.12916666666666668,1,0,0,5.614054500008933,number3,False,False,True,27,2,2019_Nov_18_1002,MA_Theta_Exp,3.0.7,59.973108049072366,
video/Experiment/zh_sp07_Ad_Ro_2_GlobalTheta_NoVideo.avi,globalTheta,noVideo,sp07,Ad,Ro,2,1,5,flow/blocks/GlobalTheta_NoVideo_B.csv,,,,,,,,,0,1,1,1,0,18,18,25,,,,,,,,,-0.3824074074074074,0.3055555555555556,1,0,0,4.451674600015394,call1,0.04537037037037037,-0.09166666666666666,1,0,0,5.267901199986227,colour3,0.387037037037037,0.11527777777777778,1,0,0,6.003652899991721,number2,True,True,True,27,2,2019_Nov_18_1002,MA_Theta_Exp,3.0.7,59.973108049072366,
video/Experiment/zh_sp01_Ad_Ge_4_GlobalTheta_NoVideo.avi,globalTheta,noVideo,sp01,Ad,Ge,4,1,5,flow/blocks/GlobalTheta_NoVideo_B.csv,,,,,,,,,0,1,1,1,0,19,19,3,,,,,,,,,-0.3490740740740741,0.325,1,0,0,5.244952000095509,call1,0.023148148148148147,0.09305555555555556,1,0,0,6.078098800033331,colour2,0.43703703703703706,-0.125,1,0,0,6.627952400012873,number3,True,False,False,27,2,2019_Nov_18_1002,MA_Theta_Exp,3.0.7,59.973108049072366,
video/Experiment/zh_sp07_Un_Ge_4_GlobalTheta_NoVideo.avi,globalTheta,noVideo,sp07,Un,Ge,4,1,5,flow/blocks/GlobalTheta_NoVideo_B.csv,,,,,,,,,0,1,1,1,0,20,20,19,,,,,,,,,-0.4324074074074074,-0.3263888888888889,1,0,0,4.809094000025652,call4,0.0023148148148148147,0.07777777777777778,1,0,0,5.807221499970183,colour2,0.399537037037037,-0.1375,1,0,0,6.3085422000149265,number3,True,False,False,27,2,2019_Nov_18_1002,MA_Theta_Exp,3.0.7,59.973108049072366,
video/Experiment/zh_sp07_Dr_Ge_2_GlobalTheta_NoVideo.avi,globalTheta,noVideo,sp07,Dr,Ge,2,1,5,flow/blocks/GlobalTheta_NoVideo_B.csv,,,,,,,,,0,1,1,1,0,21,21,17,,,,,,,,,-0.3837962962962963,0.3194444444444444,1,0,0,4.424842500011437,call1,0.03425925925925926,0.10833333333333334,1,0,0,4.926456899964251,colour2,0.4078703703703704,0.09722222222222222,1,0,0,5.341480499948375,number2,False,False,True,27,2,2019_Nov_18_1002,MA_Theta_Exp,3.0.7,59.973108049072366,
video/Experiment/zh_sp01_Ad_Ro_3_GlobalTheta_NoVideo.avi,globalTheta,noVideo,sp01,Ad,Ro,3,1,5,flow/blocks/GlobalTheta_NoVideo_B.csv,,,,,,,,,0,1,1,1,0,22,22,10,,,,,,,,,-0.37407407407407406,0.29305555555555557,1,0,0,5.227318200049922,call1,-0.02824074074074074,-0.06388888888888888,1,0,0,5.943899600068107,colour3,0.4300925925925926,-0.12916666666666668,1,0,0,6.427655400009826,number3,True,True,True,27,2,2019_Nov_18_1002,MA_Theta_Exp,3.0.7,59.973108049072366,
video/Experiment/zh_sp01_Ad_Ge_1_GlobalTheta_NoVideo.avi,globalTheta,noVideo,sp01,Ad,Ge,1,1,5,flow/blocks/GlobalTheta_NoVideo_B.csv,,,,,,,,,0,1,1,1,0,23,23,16,,,,,,,,,-0.4199074074074074,0.3194444444444444,1,0,0,5.35101870005019,call1,0.04537037037037037,0.3,1,0,0,6.321365799987689,colour1,0.39814814814814814,0.32083333333333336,1,0,0,6.904198599979281,number1,True,True,True,27,2,2019_Nov_18_1002,MA_Theta_Exp,3.0.7,59.973108049072366,
video/Experiment/zh_sp01_Un_Ro_2_GlobalTheta_NoVideo.avi,globalTheta,noVideo,sp01,Un,Ro,2,1,5,flow/blocks/GlobalTheta_NoVideo_B.csv,,,,,,,,,0,1,1,1,0,24,24,9,,,,,,,,,-0.40879629629629627,-0.08055555555555556,1,0,0,4.93976879992988,call3,-0.03796296296296296,0.0763888888888889,1,0,0,5.468252799939364,colour2,0.35648148148148145,0.07083333333333333,1,0,0,5.93994880001992,number2,False,False,True,27,2,2019_Nov_18_1002,MA_Theta_Exp,3.0.7,59.973108049072366,
video/Experiment/zh_sp07_Un_Gr_2_GlobalTheta_NoVideo.avi,globalTheta,noVideo,sp07,Un,Gr,2,1,5,flow/blocks/GlobalTheta_NoVideo_B.csv,,,,,,,,,0,1,1,1,0,25,25,5,,,,,,,,,-0.40324074074074073,-0.1,1,0,0,5.09723940002732,call3,0.053703703703703705,0.06805555555555555,1,0,0,6.048402999993414,colour2,0.3592592592592593,0.2847222222222222,1,0,0,6.563784800004214,number1,False,True,False,27,2,2019_Nov_18_1002,MA_Theta_Exp,3.0.7,59.973108049072366,
video/Experiment/zh_sp01_Un_Ge_1_GlobalTheta_NoVideo.avi,globalTheta,noVideo,sp01,Un,Ge,1,1,5,flow/blocks/GlobalTheta_NoVideo_B.csv,,,,,,,,,0,1,1,1,0,26,26,0,,,,,,,,,-0.34629629629629627,-0.30416666666666664,1,0,0,5.371557799982838,call4,-0.02824074074074074,0.35833333333333334,1,0,0,6.186562800081447,colour1,0.37592592592592594,0.32916666666666666,1,0,0,6.733011999982409,number1,True,True,True,27,2,2019_Nov_18_1002,MA_Theta_Exp,3.0.7,59.973108049072366,
video/Experiment/zh_sp07_Dr_We_4_GlobalTheta_NoVideo.avi,globalTheta,noVideo,sp07,Dr,We,4,1,5,flow/blocks/GlobalTheta_NoVideo_B.csv,,,,,,,,,0,1,1,1,0,27,27,15,,,,,,,,,-0.42962962962962964,-0.1,1,0,0,4.492762799956836,call3,0.06759259259259259,0.10138888888888889,1,0,0,5.09312879992649,colour2,0.4439814814814815,-0.12361111111111112,1,0,0,5.688594600069337,number3,False,False,False,27,2,2019_Nov_18_1002,MA_Theta_Exp,3.0.7,59.973108049072366,
video/Experiment/zh_sp01_Ti_Gr_2_GlobalTheta_NoVideo.avi,globalTheta,noVideo,sp01,Ti,Gr,2,1,5,flow/blocks/GlobalTheta_NoVideo_B.csv,,,,,,,,,0,1,1,1,0,28,28,21,,,,,,,,,-0.42824074074074076,-0.1125,1,0,0,5.290918599930592,call3,-0.000462962962962963,0.10277777777777777,1,0,0,5.924750099889934,colour2,0.3773148148148148,0.15,1,0,0,6.515421100077219,number2,True,True,True,27,2,2019_Nov_18_1002,MA_Theta_Exp,3.0.7,59.973108049072366,
video/Experiment/zh_sp01_Un_We_2_GlobalTheta_NoVideo.avi,globalTheta,noVideo,sp01,Un,We,2,1,5,flow/blocks/GlobalTheta_NoVideo_B.csv,,,,,,,,,0,1,1,1,0,29,29,13,,,,,,,,,-0.37824074074074077,-0.11388888888888889,1,0,0,5.191422100062482,call3,-0.06435185185185185,-0.2861111111111111,1,0,0,5.758406999986619,colour4,0.43425925925925923,0.09861111111111111,1,0,0,6.376476499950513,number2,False,True,True,27,2,2019_Nov_18_1002,MA_Theta_Exp,3.0.7,59.973108049072366,
video/Experiment/zh_sp07_Ad_Ge_2_GlobalTheta_NoVideo.avi,globalTheta,noVideo,sp07,Ad,Ge,2,1,5,flow/blocks/GlobalTheta_NoVideo_B.csv,,,,,,,,,0,1,1,1,0,30,30,1,,,,,,,,,-0.45046296296296295,0.3388888888888889,1,0,0,4.191100499941967,call1,0.060648148148148145,0.11666666666666667,1,0,0,4.774506999994628,colour2,0.4078703703703704,0.13333333333333333,1,0,0,5.258660800056532,number2,True,False,True,27,2,2019_Nov_18_1002,MA_Theta_Exp,3.0.7,59.973108049072366,
video/Experiment/zh_sp01_Dr_We_1_GlobalTheta_NoVideo.avi,globalTheta,noVideo,sp01,Dr,We,1,1,5,flow/blocks/GlobalTheta_NoVideo_B.csv,,,,,,,,,0,1,1,1,0,31,31,28,,,,,,,,,-0.4351851851851852,-0.11944444444444445,1,0,0,6.100188300013542,call3,-0.01712962962962963,0.07083333333333333,1,0,0,6.969604899990372,colour2,0.37037037037037035,0.2611111111111111,1,0,0,7.466686600004323,number1,False,False,True,27,2,2019_Nov_18_1002,MA_Theta_Exp,3.0.7,59.973108049072366,
video/Experiment/zh_sp01_Ad_We_3_NVocInAudio_GlobalThetaInVideo.avi,vocoded,plusVideo,sp01,Ad,We,3,2,1,flow/blocks/NVocInAudio_GlobalThetaInVideo_A.csv,,,,,,,,,0,2,2,2,0,0,0,30,,,,,,,,,-0.44351851851851853,0.3375,1,0,0,5.487606299924664,call1,-0.0060185185185185185,-0.29583333333333334,1,0,0,6.237163699930534,colour4,0.37175925925925923,-0.1,1,0,0,6.876657800050452,number3,True,True,True,27,2,2019_Nov_18_1002,MA_Theta_Exp,3.0.7,59.973108049072366,
video/Experiment/zh_sp01_Un_We_4_NVocInAudio_GlobalThetaInVideo.avi,vocoded,plusVideo,sp01,Un,We,4,2,1,flow/blocks/NVocInAudio_GlobalThetaInVideo_A.csv,,,,,,,,,0,2,2,2,0,1,1,15,,,,,,,,,-0.3685185185185185,-0.2763888888888889,1,0,0,5.255228900001384,call4,-0.03657407407407407,-0.3055555555555556,1,0,0,5.7210793000413105,colour4,0.3800925925925926,-0.3194444444444444,1,0,0,6.188236900023185,number4,True,True,True,27,2,2019_Nov_18_1002,MA_Theta_Exp,3.0.7,59.973108049072366,
video/Experiment/zh_sp07_Ad_We_2_NVocInAudio_GlobalThetaInVideo.avi,vocoded,plusVideo,sp07,Ad,We,2,2,1,flow/blocks/NVocInAudio_GlobalThetaInVideo_A.csv,,,,,,,,,0,2,2,2,0,2,2,29,,,,,,,,,-0.41435185185185186,0.06666666666666667,1,0,0,4.705119300051592,call2,0.010648148148148148,-0.3541666666666667,1,0,0,5.32398089999333,colour4,0.3787037037037037,0.12083333333333333,1,0,0,5.987864600028843,number2,False,True,True,27,2,2019_Nov_18_1002,MA_Theta_Exp,3.0.7,59.973108049072366,
video/Experiment/zh_sp07_Ti_We_4_NVocInAudio_GlobalThetaInVideo.avi,vocoded,plusVideo,sp07,Ti,We,4,2,1,flow/blocks/NVocInAudio_GlobalThetaInVideo_A.csv,,,,,,,,,0,2,2,2,0,3,3,31,,,,,,,,,-0.44351851851851853,-0.11805555555555555,1,0,0,4.956623499980196,call3,-0.050462962962962966,-0.28194444444444444,1,0,0,5.706786500057206,colour4,0.43425925925925923,-0.3125,1,0,0,6.1570107999723405,number4,True,True,True,27,2,2019_Nov_18_1002,MA_Theta_Exp,3.0.7,59.973108049072366,
video/Experiment/zh_sp01_Ti_Ro_3_NVocInAudio_GlobalThetaInVideo.avi,vocoded,plusVideo,sp01,Ti,Ro,3,2,1,flow/blocks/NVocInAudio_GlobalThetaInVideo_A.csv,,,,,,,,,0,2,2,2,0,4,4,10,,,,,,,,,-0.44212962962962965,-0.11666666666666667,1,0,0,5.240238399943337,call3,-0.049074074074074076,-0.10555555555555556,1,0,0,5.7787044999422505,colour3,0.46620370370370373,-0.14166666666666666,1,0,0,6.27708580007311,number3,True,True,True,27,2,2019_Nov_18_1002,MA_Theta_Exp,3.0.7,59.973108049072366,
video/Experiment/zh_sp07_Ad_Ro_4_NVocInAudio_GlobalThetaInVideo.avi,vocoded,plusVideo,sp07,Ad,Ro,4,2,1,flow/blocks/NVocInAudio_GlobalThetaInVideo_A.csv,,,,,,,,,0,2,2,2,0,5,5,11,,,,,,,,,-0.40324074074074073,0.33055555555555555,1,0,0,4.914877999923192,call1,0.028703703703703703,-0.11666666666666667,1,0,0,5.548284300020896,colour3,0.41898148148148145,-0.35833333333333334,1,0,0,6.114506000070833,number4,True,True,True,27,2,2019_Nov_18_1002,MA_Theta_Exp,3.0.7,59.973108049072366,
video/Experiment/zh_sp01_Ad_Gr_2_NVocInAudio_GlobalThetaInVideo.avi,vocoded,plusVideo,sp01,Ad,Gr,2,2,1,flow/blocks/NVocInAudio_GlobalThetaInVideo_A.csv,,,,,,,,,0,2,2,2,0,6,6,21,,,,,,,,,-0.3351851851851852,0.2986111111111111,1,0,0,5.273753300076351,call1,0.013425925925925926,0.06666666666666667,1,0,0,5.857028500060551,colour2,0.399537037037037,0.06388888888888888,1,0,0,6.340311600011773,number2,True,True,True,27,2,2019_Nov_18_1002,MA_Theta_Exp,3.0.7,59.973108049072366,
video/Experiment/zh_sp01_Ad_Ro_1_NVocInAudio_GlobalThetaInVideo.avi,vocoded,plusVideo,sp01,Ad,Ro,1,2,1,flow/blocks/NVocInAudio_GlobalThetaInVideo_A.csv,,,,,,,,,0,2,2,2,0,7,7,8,,,,,,,,,-0.34629629629629627,0.26666666666666666,1,0,0,5.499705200083554,call1,0.0412037037037037,-0.06666666666666667,1,0,0,8.531975700054318,colour3,0.3592592592592593,0.31527777777777777,1,0,0,9.33406110003125,number1,True,True,True,27,2,2019_Nov_18_1002,MA_Theta_Exp,3.0.7,59.973108049072366,
video/Experiment/zh_sp07_Ad_Gr_1_NVocInAudio_GlobalThetaInVideo.avi,vocoded,plusVideo,sp07,Ad,Gr,1,2,1,flow/blocks/NVocInAudio_GlobalThetaInVideo_A.csv,,,,,,,,,0,2,2,2,0,8,8,4,,,,,,,,,-0.3837962962962963,0.3138888888888889,1,0,0,4.640441700001247,call1,0.03425925925925926,0.1486111111111111,1,0,0,5.106958399992436,colour2,0.42314814814814816,0.30972222222222223,1,0,0,5.656478099990636,number1,True,True,True,27,2,2019_Nov_18_1002,MA_Theta_Exp,3.0.7,59.973108049072366,
video/Experiment/zh_sp01_Ti_Gr_4_NVocInAudio_GlobalThetaInVideo.avi,vocoded,plusVideo,sp01,Ti,Gr,4,2,1,flow/blocks/NVocInAudio_GlobalThetaInVideo_A.csv,,,,,,,,,0,2,2,2,0,9,9,7,,,,,,,,,-0.5171296296296296,-0.12916666666666668,1,0,0,5.263281899970025,call3,0.024537037037037038,0.04722222222222222,1,0,0,6.348599799908698,colour2,0.43148148148148147,-0.28055555555555556,1,0,0,6.997032300103456,number4,True,True,True,27,2,2019_Nov_18_1002,MA_Theta_Exp,3.0.7,59.973108049072366,
video/Experiment/zh_sp07_Un_We_1_NVocInAudio_GlobalThetaInVideo.avi,vocoded,plusVideo,sp07,Un,We,1,2,1,flow/blocks/NVocInAudio_GlobalThetaInVideo_A.csv,,,,,,,,,0,2,2,2,0,10,10,28,,,,,,,,,-0.4393518518518518,-0.2916666666666667,1,0,0,4.73293499997817,call4,-0.04212962962962963,-0.32083333333333336,1,0,0,5.216546199982986,colour4,0.31342592592592594,0.275,1,0,0,5.916284200036898,number1,True,True,True,27,2,2019_Nov_18_1002,MA_Theta_Exp,3.0.7,59.973108049072366,
video/Experiment/zh_sp01_Un_Ro_3_NVocInAudio_GlobalThetaInVideo.avi,vocoded,plusVideo,sp01,Un,Ro,3,2,1,flow/blocks/NVocInAudio_GlobalThetaInVideo_A.csv,,,,,,,,,0,2,2,2,0,11,11,26,,,,,,,,,-0.4337962962962963,-0.30972222222222223,1,0,0,5.057425900013186,call4,-0.046296296296296294,-0.13055555555555556,1,0,0,5.6253254999173805,colour3,0.38564814814814813,-0.11805555555555555,1,0,0,6.319359999964945,number3,True,True,True,27,2,2019_Nov_18_1002,MA_Theta_Exp,3.0.7,59.973108049072366,
video/Experiment/zh_sp07_Dr_Gr_4_NVocInAudio_GlobalThetaInVideo.avi,vocoded,plusVideo,sp07,Dr,Gr,4,2,1,flow/blocks/NVocInAudio_GlobalThetaInVideo_A.csv,,,,,,,,,0,2,2,2,0,12,12,23,,,,,,,,,-0.4101851851851852,0.11944444444444445,1,0,0,4.54795360006392,call2,0.027314814814814816,0.1125,1,0,0,5.081159100052901,colour2,0.4134259259259259,-0.2722222222222222,1,0,0,5.797807800001465,number4,True,True,True,27,2,2019_Nov_18_1002,MA_Theta_Exp,3.0.7,59.973108049072366,
video/Experiment/zh_sp07_Dr_Ro_4_NVocInAudio_GlobalThetaInVideo.avi,vocoded,plusVideo,sp07,Dr,Ro,4,2,1,flow/blocks/NVocInAudio_GlobalThetaInVideo_A.csv,,,,,,,,,0,2,2,2,0,13,13,27,,,,,,,,,-0.38101851851851853,0.14444444444444443,1,0,0,4.509746900061145,call2,0.006481481481481481,-0.11527777777777778,1,0,0,5.092895700014196,colour3,0.38981481481481484,-0.29583333333333334,1,0,0,5.62626689998433,number4,True,True,True,27,2,2019_Nov_18_1002,MA_Theta_Exp,3.0.7,59.973108049072366,
video/Experiment/zh_sp01_Dr_We_2_NVocInAudio_GlobalThetaInVideo.avi,vocoded,plusVideo,sp01,Dr,We,2,2,1,flow/blocks/NVocInAudio_GlobalThetaInVideo_A.csv,,,,,,,,,0,2,2,2,0,14,14,13,,,,,,,,,-0.3560185185185185,0.06527777777777778,1,0,0,5.543508299975656,call2,0.0412037037037037,-0.3055555555555556,1,0,0,6.132129200035706,colour4,0.4689814814814815,0.13333333333333333,1,0,0,7.126049800077453,number2,True,True,True,27,2,2019_Nov_18_1002,MA_Theta_Exp,3.0.7,59.973108049072366,
video/Experiment/zh_sp07_Dr_Ge_1_NVocInAudio_GlobalThetaInVideo.avi,vocoded,plusVideo,sp07,Dr,Ge,1,2,1,flow/blocks/NVocInAudio_GlobalThetaInVideo_A.csv,,,,,,,,,0,2,2,2,0,15,15,0,,,,,,,,,-0.42962962962962964,0.06111111111111111,1,0,0,5.066731299972162,call2,-0.04212962962962963,0.26944444444444443,1,0,0,5.714955799980089,colour1,0.4787037037037037,0.2708333333333333,1,0,0,6.298132200026885,number1,True,True,True,27,2,2019_Nov_18_1002,MA_Theta_Exp,3.0.7,59.973108049072366,
video/Experiment/zh_sp01_Ad_Gr_3_NVocInAudio_GlobalThetaInVideo.avi,vocoded,plusVideo,sp01,Ad,Gr,3,2,1,flow/blocks/NVocInAudio_GlobalThetaInVideo_A.csv,,,,,,,,,0,2,2,2,0,16,16,22,,,,,,,,,-0.4199074074074074,0.2875,1,0,0,5.501170000061393,call1,0.003703703703703704,0.07916666666666666,1,0,0,6.150436899974011,colour2,0.4162037037037037,-0.11527777777777778,1,0,0,6.734348000027239,number3,True,True,True,27,2,2019_Nov_18_1002,MA_Theta_Exp,3.0.7,59.973108049072366,
video/Experiment/zh_sp01_Ti_Ge_2_NVocInAudio_GlobalThetaInVideo.avi,vocoded,plusVideo,sp01,Ti,Ge,2,2,1,flow/blocks/NVocInAudio_GlobalThetaInVideo_A.csv,,,,,,,,,0,2,2,2,0,17,17,1,,,,,,,,,-0.40324074074074073,-0.08888888888888889,1,0,0,5.303929899935611,call3,-0.040740740740740744,0.26944444444444443,1,0,0,5.970077599980868,colour1,0.42314814814814816,0.08611111111111111,1,0,0,6.470203000004403,number2,True,True,True,27,2,2019_Nov_18_1002,MA_Theta_Exp,3.0.7,59.973108049072366,
video/Experiment/zh_sp01_Ti_Ro_2_NVocInAudio_GlobalThetaInVideo.avi,vocoded,plusVideo,sp01,Ti,Ro,2,2,1,flow/blocks/NVocInAudio_GlobalThetaInVideo_A.csv,,,,,,,,,0,2,2,2,0,18,18,25,,,,,,,,,-0.39351851851851855,-0.08055555555555556,1,0,0,5.317798800067976,call3,-0.02962962962962963,-0.09444444444444444,1,0,0,5.784329000045545,colour3,0.3939814814814815,0.08194444444444444,1,0,0,6.384333799942397,number2,True,True,True,27,2,2019_Nov_18_1002,MA_Theta_Exp,3.0.7,59.973108049072366,
video/Experiment/zh_sp01_Un_Gr_1_NVocInAudio_GlobalThetaInVideo.avi,vocoded,plusVideo,sp01,Un,Gr,1,2,1,flow/blocks/NVocInAudio_GlobalThetaInVideo_A.csv,,,,,,,,,0,2,2,2,0,19,19,20,,,,,,,,,-0.3824074074074074,-0.2611111111111111,1,0,0,5.075487000052817,call4,-0.007407407407407408,0.043055555555555555,1,0,0,5.625248400028795,colour2,0.4425925925925926,0.3013888888888889,1,0,0,6.125113099929877,number1,True,True,True,27,2,2019_Nov_18_1002,MA_Theta_Exp,3.0.7,59.973108049072366,
video/Experiment/zh_sp07_Dr_Gr_2_NVocInAudio_GlobalThetaInVideo.avi,vocoded,plusVideo,sp07,Dr,Gr,2,2,1,flow/blocks/NVocInAudio_GlobalThetaInVideo_A.csv,,,,,,,,,0,2,2,2,0,20,20,5,,,,,,,,,-0.38657407407407407,-0.2763888888888889,1,0,0,5.002169699990191,call4,-0.02824074074074074,0.07361111111111111,1,0,0,5.701219699927606,colour2,0.4050925925925926,0.08472222222222223,1,0,0,6.101168699911796,number2,False,True,True,27,2,2019_Nov_18_1002,MA_Theta_Exp,3.0.7,59.973108049072366,
video/Experiment/zh_sp01_Dr_Ro_2_NVocInAudio_GlobalThetaInVideo.avi,vocoded,plusVideo,sp01,Dr,Ro,2,2,1,flow/blocks/NVocInAudio_GlobalThetaInVideo_A.csv,,,,,,,,,0,2,2,2,0,21,21,9,,,,,,,,,-0.3587962962962963,0.11805555555555555,1,0,0,5.429930400103331,call2,-0.014351851851851852,-0.11805555555555555,1,0,0,6.095950399991125,colour3,0.41064814814814815,0.05138888888888889,1,0,0,6.579927999991924,number2,True,True,True,27,2,2019_Nov_18_1002,MA_Theta_Exp,3.0.7,59.973108049072366,
video/Experiment/zh_sp07_Dr_Ge_4_NVocInAudio_GlobalThetaInVideo.avi,vocoded,plusVideo,sp07,Dr,Ge,4,2,1,flow/blocks/NVocInAudio_GlobalThetaInVideo_A.csv,,,,,,,,,0,2,2,2,0,22,22,19,,,,,,,,,-0.4337962962962963,0.12777777777777777,1,0,0,4.453259299974889,call2,0.010648148148148148,0.2625,1,0,0,4.9202526999870315,colour1,0.4078703703703704,-0.2708333333333333,1,0,0,5.53652730002068,number4,True,True,True,27,2,2019_Nov_18_1002,MA_Theta_Exp,3.0.7,59.973108049072366,
video/Experiment/zh_sp07_Ti_Ge_3_NVocInAudio_GlobalThetaInVideo.avi,vocoded,plusVideo,sp07,Ti,Ge,3,2,1,flow/blocks/NVocInAudio_GlobalThetaInVideo_A.csv,,,,,,,,,0,2,2,2,0,23,23,18,,,,,,,,,-0.4337962962962963,-0.09861111111111111,1,0,0,4.609932699939236,call3,-0.008796296296296297,0.28888888888888886,1,0,0,5.32691199996043,colour1,0.4009259259259259,-0.15833333333333333,1,0,0,5.9267996000126,number3,True,True,True,27,2,2019_Nov_18_1002,MA_Theta_Exp,3.0.7,59.973108049072366,
video/Experiment/zh_sp01_Un_Ro_1_NVocInAudio_GlobalThetaInVideo.avi,vocoded,plusVideo,sp01,Un,Ro,1,2,1,flow/blocks/NVocInAudio_GlobalThetaInVideo_A.csv,,,,,,,,,0,2,2,2,0,24,24,24,,,,,,,,,-0.42407407407407405,-0.3013888888888889,1,0,0,5.196649199933745,call4,-0.021296296296296296,-0.15416666666666667,1,0,0,5.729765599942766,colour3,0.34814814814814815,0.23472222222222222,1,0,0,6.348375600064173,number1,True,True,True,27,2,2019_Nov_18_1002,MA_Theta_Exp,3.0.7,59.973108049072366,
video/Experiment/zh_sp01_Ad_We_1_NVocInAudio_GlobalThetaInVideo.avi,vocoded,plusVideo,sp01,Ad,We,1,2,1,flow/blocks/NVocInAudio_GlobalThetaInVideo_A.csv,,,,,,,,,0,2,2,2,0,25,25,12,,,,,,,,,-0.3921296296296296,0.2833333333333333,1,0,0,5.124014599947259,call1,-0.010185185185185186,-0.29583333333333334,1,0,0,5.855553800007328,colour4,0.3175925925925926,0.2361111111111111,1,0,0,6.755509900045581,number1,True,True,True,27,2,2019_Nov_18_1002,MA_Theta_Exp,3.0.7,59.973108049072366,
video/Experiment/zh_sp07_Dr_Gr_3_NVocInAudio_GlobalThetaInVideo.avi,vocoded,plusVideo,sp07,Dr,Gr,3,2,1,flow/blocks/NVocInAudio_GlobalThetaInVideo_A.csv,,,,,,,,,0,2,2,2,0,26,26,6,,,,,,,,,-0.40185185185185185,0.09861111111111111,1,0,0,5.00522200006526,call2,0.062037037037037036,0.08611111111111111,1,0,0,5.571757400059141,colour2,0.4162037037037037,-0.09027777777777778,1,0,0,6.188201299984939,number3,True,True,True,27,2,2019_Nov_18_1002,MA_Theta_Exp,3.0.7,59.973108049072366,
video/Experiment/zh_sp07_Un_Ge_3_NVocInAudio_GlobalThetaInVideo.avi,vocoded,plusVideo,sp07,Un,Ge,3,2,1,flow/blocks/NVocInAudio_GlobalThetaInVideo_A.csv,,,,,,,,,0,2,2,2,0,27,27,2,,,,,,,,,-0.3851851851851852,-0.33194444444444443,1,0,0,4.644653099938296,call4,0.037037037037037035,0.12361111111111112,1,0,0,6.127474699984305,colour2,0.4162037037037037,-0.1125,1,0,0,6.660775299998932,number3,True,False,True,27,2,2019_Nov_18_1002,MA_Theta_Exp,3.0.7,59.973108049072366,
video/Experiment/zh_sp07_Ti_Ge_4_NVocInAudio_GlobalThetaInVideo.avi,vocoded,plusVideo,sp07,Ti,Ge,4,2,1,flow/blocks/NVocInAudio_GlobalThetaInVideo_A.csv,,,,,,,,,0,2,2,2,0,28,28,3,,,,,,,,,-0.40879629629629627,-0.15138888888888888,1,0,0,4.428328200010583,call3,0.060648148148148145,0.2861111111111111,1,0,0,5.327627099934034,colour1,0.4300925925925926,-0.28055555555555556,1,0,0,5.911742099910043,number4,True,True,True,27,2,2019_Nov_18_1002,MA_Theta_Exp,3.0.7,59.973108049072366,
video/Experiment/zh_sp01_Un_We_3_NVocInAudio_GlobalThetaInVideo.avi,vocoded,plusVideo,sp01,Un,We,3,2,1,flow/blocks/NVocInAudio_GlobalThetaInVideo_A.csv,,,,,,,,,0,2,2,2,0,29,29,14,,,,,,,,,-0.4115740740740741,-0.3375,1,0,0,5.391985800000839,call4,-0.01712962962962963,-0.3347222222222222,1,0,0,5.941710000042804,colour4,0.3453703703703704,-0.14027777777777778,1,0,0,6.655346599989571,number3,True,True,True,27,2,2019_Nov_18_1002,MA_Theta_Exp,3.0.7,59.973108049072366,
video/Experiment/zh_sp07_Ti_Ge_1_NVocInAudio_GlobalThetaInVideo.avi,vocoded,plusVideo,sp07,Ti,Ge,1,2,1,flow/blocks/NVocInAudio_GlobalThetaInVideo_A.csv,,,,,,,,,0,2,2,2,0,30,30,16,,,,,,,,,-0.38101851851851853,-0.13472222222222222,1,0,0,4.414953300030902,call3,0.027314814814814816,0.2847222222222222,1,0,0,5.116223199991509,colour1,0.39537037037037037,0.30972222222222223,1,0,0,5.581719300011173,number1,True,True,True,27,2,2019_Nov_18_1002,MA_Theta_Exp,3.0.7,59.973108049072366,
video/Experiment/zh_sp07_Un_Ge_2_NVocInAudio_GlobalThetaInVideo.avi,vocoded,plusVideo,sp07,Un,Ge,2,2,1,flow/blocks/NVocInAudio_GlobalThetaInVideo_A.csv,,,,,,,,,0,2,2,2,0,31,31,17,,,,,,,,,-0.40324074074074073,-0.3138888888888889,1,0,0,4.630085000069812,call4,-0.022685185185185187,0.32222222222222224,1,0,0,5.5964996999828145,colour1,0.3787037037037037,0.10694444444444444,1,0,0,6.065433299983852,number2,True,True,True,27,2,2019_Nov_18_1002,MA_Theta_Exp,3.0.7,59.973108049072366,
video/Experiment/zh_sp01_Un_Ge_4_NoThetaInAudio_NoVideo.avi,noTheta,noVideo,sp01,Un,Ge,4,3,4,flow/blocks/NoThetaInAudio_NoVideo_B.csv,,,,,,,,,0,3,3,3,0,0,0,19,,,,,,,,,-0.34074074074074073,-0.32222222222222224,1,0,0,5.393590099993162,call4,0.000925925925925926,0.25,1,0,0,6.160001100040972,colour1,0.4064814814814815,-0.29583333333333334,1,0,0,6.809893499943428,number4,True,True,True,27,2,2019_Nov_18_1002,MA_Theta_Exp,3.0.7,59.973108049072366,
video/Experiment/zh_sp07_Dr_We_4_NoThetaInAudio_NoVideo.avi,noTheta,noVideo,sp07,Dr,We,4,3,4,flow/blocks/NoThetaInAudio_NoVideo_B.csv,,,,,,,,,0,3,3,3,0,1,1,15,,,,,,,,,-0.33935185185185185,-0.3277777777777778,1,0,0,4.536770200007595,call4,-0.01574074074074074,0.1486111111111111,1,0,0,5.270040399977006,colour2,0.4273148148148148,-0.34444444444444444,1,0,0,5.80372010008432,number4,False,False,True,27,2,2019_Nov_18_1002,MA_Theta_Exp,3.0.7,59.973108049072366,
video/Experiment/zh_sp01_Dr_We_1_NoThetaInAudio_NoVideo.avi,noTheta,noVideo,sp01,Dr,We,1,3,4,flow/blocks/NoThetaInAudio_NoVideo_B.csv,,,,,,,,,0,3,3,3,0,2,2,28,,,,,,,,,-0.3726851851851852,-0.3263888888888889,1,0,0,5.356851399992593,call4,0.08287037037037037,-0.325,1,0,0,5.874164600041695,colour4,0.37175925925925923,0.30277777777777776,1,0,0,6.823142300010659,number1,False,True,True,27,2,2019_Nov_18_1002,MA_Theta_Exp,3.0.7,59.973108049072366,
video/Experiment/zh_sp07_Dr_Ro_3_NoThetaInAudio_NoVideo.avi,noTheta,noVideo,sp07,Dr,Ro,3,3,4,flow/blocks/NoThetaInAudio_NoVideo_B.csv,,,,,,,,,0,3,3,3,0,3,3,26,,,,,,,,,-0.41574074074074074,0.11527777777777778,1,0,0,4.414408299955539,call2,0.01898148148148148,-0.12222222222222222,1,0,0,4.930844400078058,colour3,0.4217592592592593,-0.08472222222222223,1,0,0,5.330923500005156,number3,True,True,True,27,2,2019_Nov_18_1002,MA_Theta_Exp,3.0.7,59.973108049072366,
video/Experiment/zh_sp07_Un_Gr_3_NoThetaInAudio_NoVideo.avi,noTheta,noVideo,sp07,Un,Gr,3,3,4,flow/blocks/NoThetaInAudio_NoVideo_B.csv,,,,,,,,,0,3,3,3,0,4,4,6,,,,,,,,,-0.40046296296296297,-0.08194444444444444,1,0,0,4.594820400001481,call3,-0.032407407407407406,0.10277777777777777,1,0,0,5.110207200050354,colour2,0.4550925925925926,-0.1388888888888889,1,0,0,5.662608399987221,number3,False,True,True,27,2,2019_Nov_18_1002,MA_Theta_Exp,3.0.7,59.973108049072366,
video/Experiment/zh_sp01_Ti_Ro_1_NoThetaInAudio_NoVideo.avi,noTheta,noVideo,sp01,Ti,Ro,1,3,4,flow/blocks/NoThetaInAudio_NoVideo_B.csv,,,,,,,,,0,3,3,3,0,5,5,8,,,,,,,,,-0.39351851851851855,-0.11666666666666667,1,0,0,5.433659299975261,call3,-0.03518518518518519,-0.11388888888888889,1,0,0,6.100143500021659,colour3,0.39537037037037037,0.29583333333333334,1,0,0,6.805393800023012,number1,True,True,True,27,2,2019_Nov_18_1002,MA_Theta_Exp,3.0.7,59.973108049072366,
video/Experiment/zh_sp01_Ad_Ge_2_NoThetaInAudio_NoVideo.avi,noTheta,noVideo,sp01,Ad,Ge,2,3,4,flow/blocks/NoThetaInAudio_NoVideo_B.csv,,,,,,,,,0,3,3,3,0,6,6,1,,,,,,,,,-0.39351851851851855,0.3263888888888889,1,0,0,5.085803300025873,call1,-0.007407407407407408,0.33055555555555555,1,0,0,5.602154000080191,colour1,0.3939814814814815,0.10555555555555556,1,0,0,6.1384600000455976,number2,True,True,True,27,2,2019_Nov_18_1002,MA_Theta_Exp,3.0.7,59.973108049072366,
video/Experiment/zh_sp07_Ad_Ro_3_NoThetaInAudio_NoVideo.avi,noTheta,noVideo,sp07,Ad,Ro,3,3,4,flow/blocks/NoThetaInAudio_NoVideo_B.csv,,,,,,,,,0,3,3,3,0,7,7,10,,,,,,,,,-0.33935185185185185,0.2763888888888889,1,0,0,4.863651699968614,call1,0.060648148148148145,-0.13055555555555556,1,0,0,6.393990400014445,colour3,0.41898148148148145,-0.09583333333333334,1,0,0,6.828093499992974,number3,True,True,True,27,2,2019_Nov_18_1002,MA_Theta_Exp,3.0.7,59.973108049072366,
video/Experiment/zh_sp07_Ti_We_3_NoThetaInAudio_NoVideo.avi,noTheta,noVideo,sp07,Ti,We,3,3,4,flow/blocks/NoThetaInAudio_NoVideo_B.csv,,,,,,,,,0,3,3,3,0,8,8,30,,,,,,,,,-0.4074074074074074,-0.07361111111111111,1,0,0,4.45356339996215,call3,-0.08796296296296297,-0.33055555555555555,1,0,0,5.036892000003718,colour4,0.4356481481481482,-0.13194444444444445,1,0,0,5.620796400005929,number3,True,True,True,27,2,2019_Nov_18_1002,MA_Theta_Exp,3.0.7,59.973108049072366,
video/Experiment/zh_sp07_Un_Ro_4_NoThetaInAudio_NoVideo.avi,noTheta,noVideo,sp07,Un,Ro,4,3,4,flow/blocks/NoThetaInAudio_NoVideo_B.csv,,,,,,,,,0,3,3,3,0,9,9,27,,,,,,,,,-0.40046296296296297,-0.26805555555555555,1,0,0,4.821569100022316,call4,0.00787037037037037,0.28194444444444444,1,0,0,5.704596699913964,colour1,0.3662037037037037,-0.28194444444444444,1,0,0,6.254411399946548,number4,True,False,True,27,2,2019_Nov_18_1002,MA_Theta_Exp,3.0.7,59.973108049072366,
video/Experiment/zh_sp07_Un_Ge_1_NoThetaInAudio_NoVideo.avi,noTheta,noVideo,sp07,Un,Ge,1,3,4,flow/blocks/NoThetaInAudio_NoVideo_B.csv,,,,,,,,,0,3,3,3,0,10,10,0,,,,,,,,,-0.41712962962962963,-0.2513888888888889,1,0,0,4.3829680000199005,call4,0.038425925925925926,0.26944444444444443,1,0,0,5.15319380001165,colour1,0.3912037037037037,0.30277777777777776,1,0,0,5.6823341000126675,number1,True,True,True,27,2,2019_Nov_18_1002,MA_Theta_Exp,3.0.7,59.973108049072366,
video/Experiment/zh_sp07_Ad_Ge_4_NoThetaInAudio_NoVideo.avi,noTheta,noVideo,sp07,Ad,Ge,4,3,4,flow/blocks/NoThetaInAudio_NoVideo_B.csv,,,,,,,,,0,3,3,3,0,11,11,3,,,,,,,,,-0.40879629629629627,0.34444444444444444,1,0,0,4.570235799998045,call1,-0.024074074074074074,0.30694444444444446,1,0,0,5.120159699930809,colour1,0.4203703703703704,-0.34444444444444444,1,0,0,5.954030699911527,number4,True,True,True,27,2,2019_Nov_18_1002,MA_Theta_Exp,3.0.7,59.973108049072366,
video/Experiment/zh_sp01_Ad_Ge_3_NoThetaInAudio_NoVideo.avi,noTheta,noVideo,sp01,Ad,Ge,3,3,4,flow/blocks/NoThetaInAudio_NoVideo_B.csv,,,,,,,,,0,3,3,3,0,12,12,18,,,,,,,,,-0.47129629629629627,0.2902777777777778,1,0,0,5.161501200054772,call1,-0.049074074074074076,0.3263888888888889,1,0,0,5.677987599978223,colour1,0.4203703703703704,-0.12222222222222222,1,0,0,6.278406700002961,number3,True,True,True,27,2,2019_Nov_18_1002,MA_Theta_Exp,3.0.7,59.973108049072366,
video/Experiment/zh_sp01_Un_Gr_4_NoThetaInAudio_NoVideo.avi,noTheta,noVideo,sp01,Un,Gr,4,3,4,flow/blocks/NoThetaInAudio_NoVideo_B.csv,,,,,,,,,0,3,3,3,0,13,13,23,,,,,,,,,-0.38796296296296295,-0.3236111111111111,1,0,0,5.28203530004248,call4,0.017592592592592594,0.12361111111111112,1,0,0,6.115112700033933,colour2,0.4273148148148148,-0.37083333333333335,1,0,0,7.049588399939239,number4,True,True,True,27,2,2019_Nov_18_1002,MA_Theta_Exp,3.0.7,59.973108049072366,
video/Experiment/zh_sp07_Dr_We_3_NoThetaInAudio_NoVideo.avi,noTheta,noVideo,sp07,Dr,We,3,3,4,flow/blocks/NoThetaInAudio_NoVideo_B.csv,,,,,,,,,0,3,3,3,0,14,14,14,,,,,,,,,-0.41574074074074074,0.3111111111111111,1,0,0,4.648082399973646,call1,-0.0032407407407407406,-0.29305555555555557,1,0,0,5.431869400083087,colour4,0.5189814814814815,-0.12361111111111112,1,0,0,6.048328900011256,number3,False,True,True,27,2,2019_Nov_18_1002,MA_Theta_Exp,3.0.7,59.973108049072366,
video/Experiment/zh_sp07_Ti_Gr_1_NoThetaInAudio_NoVideo.avi,noTheta,noVideo,sp07,Ti,Gr,1,3,4,flow/blocks/NoThetaInAudio_NoVideo_B.csv,,,,,,,,,0,3,3,3,0,15,15,4,,,,,,,,,-0.42268518518518516,-0.1361111111111111,1,0,0,5.089728099992499,call3,0.000925925925925926,0.02638888888888889,1,0,0,5.589522500056773,colour2,0.3773148148148148,0.3,1,0,0,6.073489199974574,number1,True,True,True,27,2,2019_Nov_18_1002,MA_Theta_Exp,3.0.7,59.973108049072366,
video/Experiment/zh_sp01_Ti_We_1_NoThetaInAudio_NoVideo.avi,noTheta,noVideo,sp01,Ti,We,1,3,4,flow/blocks/NoThetaInAudio_NoVideo_B.csv,,,,,,,,,0,3,3,3,0,16,16,12,,,,,,,,,-0.39490740740740743,-0.1,1,0,0,5.5565401000203565,call3,-0.06574074074074074,-0.29305555555555557,1,0,0,6.355176500044763,colour4,0.35648148148148145,0.28194444444444444,1,0,0,7.019804799929261,number1,True,True,True,27,2,2019_Nov_18_1002,MA_Theta_Exp,3.0.7,59.973108049072366,
video/Experiment/zh_sp01_Dr_Gr_1_NoThetaInAudio_NoVideo.avi,noTheta,noVideo,sp01,Dr,Gr,1,3,4,flow/blocks/NoThetaInAudio_NoVideo_B.csv,,,,,,,,,0,3,3,3,0,17,17,20,,,,,,,,,-0.3699074074074074,0.07361111111111111,1,0,0,5.69495559995994,call2,-0.024074074074074074,0.0763888888888889,1,0,0,6.261343299993314,colour2,0.3787037037037037,0.325,1,0,0,6.844491900061257,number1,True,True,True,27,2,2019_Nov_18_1002,MA_Theta_Exp,3.0.7,59.973108049072366,
video/Experiment/zh_sp01_Dr_Ro_1_NoThetaInAudio_NoVideo.avi,noTheta,noVideo,sp01,Dr,Ro,1,3,4,flow/blocks/NoThetaInAudio_NoVideo_B.csv,,,,,,,,,0,3,3,3,0,18,18,24,,,,,,,,,-0.4060185185185185,0.08194444444444444,1,0,0,5.22567459999118,call2,-0.050462962962962966,-0.08055555555555556,1,0,0,5.7409124000696465,colour3,0.3592592592592593,0.33194444444444443,1,0,0,6.474381500040181,number1,True,True,True,27,2,2019_Nov_18_1002,MA_Theta_Exp,3.0.7,59.973108049072366,
video/Experiment/zh_sp07_Ti_Gr_2_NoThetaInAudio_NoVideo.avi,noTheta,noVideo,sp07,Ti,Gr,2,3,4,flow/blocks/NoThetaInAudio_NoVideo_B.csv,,,,,,,,,0,3,3,3,0,19,19,21,,,,,,,,,-0.4337962962962963,-0.10972222222222222,1,0,0,4.541895600035787,call3,0.013425925925925926,0.05555555555555555,1,0,0,5.127028899965808,colour2,0.3925925925925926,0.11944444444444445,1,0,0,5.776019799988717,number2,True,True,True,27,2,2019_Nov_18_1002,MA_Theta_Exp,3.0.7,59.973108049072366,
video/Experiment/zh_sp01_Ad_We_4_NoThetaInAudio_NoVideo.avi,noTheta,noVideo,sp01,Ad,We,4,3,4,flow/blocks/NoThetaInAudio_NoVideo_B.csv,,,,,,,,,0,3,3,3,0,20,20,31,,,,,,,,,-0.41574074074074074,0.3138888888888889,1,0,0,5.000641299993731,call1,-0.018518518518518517,-0.2916666666666667,1,0,0,5.9662359999492764,colour4,0.4564814814814815,-0.35694444444444445,1,0,0,6.4995857999892905,number4,True,True,True,27,2,2019_Nov_18_1002,MA_Theta_Exp,3.0.7,59.973108049072366,
video/Experiment/zh_sp01_Dr_Ge_3_NoThetaInAudio_NoVideo.avi,noTheta,noVideo,sp01,Dr,Ge,3,3,4,flow/blocks/NoThetaInAudio_NoVideo_B.csv,,,,,,,,,0,3,3,3,0,21,21,2,,,,,,,,,-0.37407407407407406,0.05555555555555555,1,0,0,5.216024599969387,call2,-0.06296296296296296,0.32083333333333336,1,0,0,5.995492599904537,colour1,0.4050925925925926,-0.11527777777777778,1,0,0,6.780766800045967,number3,True,True,True,27,2,2019_Nov_18_1002,MA_Theta_Exp,3.0.7,59.973108049072366,
video/Experiment/zh_sp01_Un_We_2_NoThetaInAudio_NoVideo.avi,noTheta,noVideo,sp01,Un,We,2,3,4,flow/blocks/NoThetaInAudio_NoVideo_B.csv,,,,,,,,,0,3,3,3,0,22,22,13,,,,,,,,,-0.41574074074074074,-0.30972222222222223,1,0,0,5.238253099960275,call4,-0.018518518518518517,-0.37222222222222223,1,0,0,5.935568600078113,colour4,0.4564814814814815,0.09722222222222222,1,0,0,6.51713649998419,number2,True,True,True,27,2,2019_Nov_18_1002,MA_Theta_Exp,3.0.7,59.973108049072366,
video/Experiment/zh_sp01_Un_Gr_2_NoThetaInAudio_NoVideo.avi,noTheta,noVideo,sp01,Un,Gr,2,3,4,flow/blocks/NoThetaInAudio_NoVideo_B.csv,,,,,,,,,0,3,3,3,0,23,23,5,,,,,,,,,-0.44074074074074077,-0.32916666666666666,1,0,0,5.456432299921289,call4,0.04814814814814815,0.09722222222222222,1,0,0,6.0570007000351325,colour2,0.4356481481481482,0.10416666666666667,1,0,0,6.506385300075635,number2,True,True,True,27,2,2019_Nov_18_1002,MA_Theta_Exp,3.0.7,59.973108049072366,
video/Experiment/zh_sp01_Dr_Ge_2_NoThetaInAudio_NoVideo.avi,noTheta,noVideo,sp01,Dr,Ge,2,3,4,flow/blocks/NoThetaInAudio_NoVideo_B.csv,,,,,,,,,0,3,3,3,0,24,24,17,,,,,,,,,-0.43796296296296294,0.10138888888888889,1,0,0,5.214152200031094,call2,0.000925925925925926,0.2708333333333333,1,0,0,5.748301799991168,colour1,0.41203703703703703,0.08472222222222223,1,0,0,6.265782300033607,number2,True,True,True,27,2,2019_Nov_18_1002,MA_Theta_Exp,3.0.7,59.973108049072366,
video/Experiment/zh_sp07_Ti_We_2_NoThetaInAudio_NoVideo.avi,noTheta,noVideo,sp07,Ti,We,2,3,4,flow/blocks/NoThetaInAudio_NoVideo_B.csv,,,,,,,,,0,3,3,3,0,25,25,29,,,,,,,,,-0.4546296296296296,-0.1111111111111111,1,0,0,4.594960199901834,call3,-0.01574074074074074,0.06944444444444445,1,0,0,6.063760000048205,colour2,0.36203703703703705,0.06111111111111111,1,0,0,6.6109074000269175,number2,True,False,True,27,2,2019_Nov_18_1002,MA_Theta_Exp,3.0.7,59.973108049072366,
video/Experiment/zh_sp07_Ad_Ro_2_NoThetaInAudio_NoVideo.avi,noTheta,noVideo,sp07,Ad,Ro,2,3,4,flow/blocks/NoThetaInAudio_NoVideo_B.csv,,,,,,,,,0,3,3,3,0,26,26,25,,,,,,,,,-0.37962962962962965,0.3,1,0,0,4.652529799961485,call1,-0.014351851851851852,-0.08611111111111111,1,0,0,5.303234299994074,colour3,0.37592592592592594,0.06805555555555555,1,0,0,5.867105299956165,number2,True,True,True,27,2,2019_Nov_18_1002,MA_Theta_Exp,3.0.7,59.973108049072366,
video/Experiment/zh_sp07_Un_Ro_2_NoThetaInAudio_NoVideo.avi,noTheta,noVideo,sp07,Un,Ro,2,3,4,flow/blocks/NoThetaInAudio_NoVideo_B.csv,,,,,,,,,0,3,3,3,0,27,27,9,,,,,,,,,-0.36435185185185187,-0.2986111111111111,1,0,0,4.485298000043258,call4,0.02175925925925926,-0.13194444444444445,1,0,0,4.985588899930008,colour3,0.38564814814814813,0.07777777777777778,1,0,0,5.571576299960725,number2,True,True,True,27,2,2019_Nov_18_1002,MA_Theta_Exp,3.0.7,59.973108049072366,
video/Experiment/zh_sp01_Ad_Ge_1_NoThetaInAudio_NoVideo.avi,noTheta,noVideo,sp01,Ad,Ge,1,3,4,flow/blocks/NoThetaInAudio_NoVideo_B.csv,,,,,,,,,0,3,3,3,0,28,28,16,,,,,,,,,-0.40324074074074073,0.30833333333333335,1,0,0,5.659553800011054,call1,0.025925925925925925,0.2638888888888889,1,0,0,6.271630399976857,colour1,0.39675925925925926,0.2722222222222222,1,0,0,6.829497899976559,number1,True,True,True,27,2,2019_Nov_18_1002,MA_Theta_Exp,3.0.7,59.973108049072366,
video/Experiment/zh_sp07_Ad_Gr_4_NoThetaInAudio_NoVideo.avi,noTheta,noVideo,sp07,Ad,Gr,4,3,4,flow/blocks/NoThetaInAudio_NoVideo_B.csv,,,,,,,,,0,3,3,3,0,29,29,7,,,,,,,,,-0.40046296296296297,0.12638888888888888,1,0,0,4.7467331000370905,call2,-0.026851851851851852,0.2902777777777778,1,0,0,5.34772930003237,colour1,0.4134259259259259,-0.3472222222222222,1,0,0,5.94673349999357,number4,False,False,True,27,2,2019_Nov_18_1002,MA_Theta_Exp,3.0.7,59.973108049072366,
video/Experiment/zh_sp01_Ti_Gr_3_NoThetaInAudio_NoVideo.avi,noTheta,noVideo,sp01,Ti,Gr,3,3,4,flow/blocks/NoThetaInAudio_NoVideo_B.csv,,,,,,,,,0,3,3,3,0,30,30,22,,,,,,,,,-0.3824074074074074,-0.12777777777777777,1,0,0,5.052986400085501,call3,0.00787037037037037,0.05694444444444444,1,0,0,5.804081400041468,colour2,0.4009259259259259,-0.14305555555555555,1,0,0,6.302893799962476,number3,True,True,True,27,2,2019_Nov_18_1002,MA_Theta_Exp,3.0.7,59.973108049072366,
video/Experiment/zh_sp07_Ti_Ro_4_NoThetaInAudio_NoVideo.avi,noTheta,noVideo,sp07,Ti,Ro,4,3,4,flow/blocks/NoThetaInAudio_NoVideo_B.csv,,,,,,,,,0,3,3,3,0,31,31,11,,,,,,,,,-0.37546296296296294,-0.11388888888888889,1,0,0,4.401488799951039,call3,-0.000462962962962963,-0.06527777777777778,1,0,0,4.90095919999294,colour3,0.44537037037037036,-0.3472222222222222,1,0,0,5.434382800012827,number4,True,True,True,27,2,2019_Nov_18_1002,MA_Theta_Exp,3.0.7,59.973108049072366,
video/Experiment/zh_sp07_Ti_Ge_4_NVocInAudio_NoVideo.avi,vocoded,noVideo,sp07,Ti,Ge,4,4,2,flow/blocks/NVocInAudio_NoVideo_A.csv,,,,,,,,,0,4,4,4,0,0,0,3,,,,,,,,,-0.37546296296296294,-0.10555555555555556,1,0,0,4.755654999986291,call3,-0.021296296296296296,0.25555555555555554,1,0,0,5.623046800028533,colour1,0.44814814814814813,-0.33194444444444443,1,0,0,6.239093500073068,number4,True,True,True,27,2,2019_Nov_18_1002,MA_Theta_Exp,3.0.7,59.973108049072366,
video/Experiment/zh_sp07_Ad_We_2_NVocInAudio_NoVideo.avi,vocoded,noVideo,sp07,Ad,We,2,4,2,flow/blocks/NVocInAudio_NoVideo_A.csv,,,,,,,,,0,4,4,4,0,1,1,29,,,,,,,,,-0.41574074074074074,0.3111111111111111,1,0,0,4.432189899962395,call1,-0.0060185185185185185,-0.25833333333333336,1,0,0,5.165835499996319,colour4,0.3675925925925926,0.04027777777777778,1,0,0,6.547772299963981,number2,True,True,True,27,2,2019_Nov_18_1002,MA_Theta_Exp,3.0.7,59.973108049072366,
video/Experiment/zh_sp01_Un_Ge_2_NVocInAudio_NoVideo.avi,vocoded,noVideo,sp01,Un,Ge,2,4,2,flow/blocks/NVocInAudio_NoVideo_A.csv,,,,,,,,,0,4,4,4,0,2,2,17,,,,,,,,,-0.38657407407407407,-0.31805555555555554,1,0,0,5.144181200070307,call4,0.017592592592592594,0.2569444444444444,1,0,0,5.877579299965873,colour1,0.36342592592592593,0.05694444444444444,1,0,0,6.397708799922839,number2,True,True,True,27,2,2019_Nov_18_1002,MA_Theta_Exp,3.0.7,59.973108049072366,
video/Experiment/zh_sp01_Dr_Ge_4_NVocInAudio_NoVideo.avi,vocoded,noVideo,sp01,Dr,Ge,4,4,2,flow/blocks/NVocInAudio_NoVideo_A.csv,,,,,,,,,0,4,4,4,0,3,3,19,,,,,,,,,-0.42962962962962964,0.0875,1,0,0,5.2043479999993,call2,-0.04351851851851852,0.2763888888888889,1,0,0,5.7534294000361115,colour1,0.45092592592592595,-0.2763888888888889,1,0,0,6.468350499984808,number4,True,True,True,27,2,2019_Nov_18_1002,MA_Theta_Exp,3.0.7,59.973108049072366,
video/Experiment/zh_sp07_Ad_We_3_NVocInAudio_NoVideo.avi,vocoded,noVideo,sp07,Ad,We,3,4,2,flow/blocks/NVocInAudio_NoVideo_A.csv,,,,,,,,,0,4,4,4,0,4,4,30,,,,,,,,,-0.4351851851851852,0.33194444444444443,1,0,0,4.686614800011739,call1,0.062037037037037036,-0.32083333333333336,1,0,0,5.398229499929585,colour4,0.4439814814814815,-0.12638888888888888,1,0,0,5.8810003999387845,number3,True,True,True,27,2,2019_Nov_18_1002,MA_Theta_Exp,3.0.7,59.973108049072366,
video/Experiment/zh_sp01_Ti_We_4_NVocInAudio_NoVideo.avi,vocoded,noVideo,sp01,Ti,We,4,4,2,flow/blocks/NVocInAudio_NoVideo_A.csv,,,,,,,,,0,4,4,4,0,5,5,31,,,,,,,,,-0.37824074074074077,-0.09444444444444444,1,0,0,5.171270200051367,call3,0.01898148148148148,-0.3347222222222222,1,0,0,5.722114000003785,colour4,0.3912037037037037,-0.34305555555555556,1,0,0,6.139698600047268,number4,True,True,True,27,2,2019_Nov_18_1002,MA_Theta_Exp,3.0.7,59.973108049072366,
video/Experiment/zh_sp07_Dr_Ro_4_NVocInAudio_NoVideo.avi,vocoded,noVideo,sp07,Dr,Ro,4,4,2,flow/blocks/NVocInAudio_NoVideo_A.csv,,,,,,,,,0,4,4,4,0,6,6,27,,,,,,,,,-0.3824074074074074,0.12083333333333333,1,0,0,4.821493900031783,call2,-0.001851851851851852,-0.08888888888888889,1,0,0,5.370396799989976,colour3,0.34120370370370373,-0.3263888888888889,1,0,0,5.9529744000174105,number4,True,True,True,27,2,2019_Nov_18_1002,MA_Theta_Exp,3.0.7,59.973108049072366,
video/Experiment/zh_sp07_Un_We_1_NVocInAudio_NoVideo.avi,vocoded,noVideo,sp07,Un,We,1,4,2,flow/blocks/NVocInAudio_NoVideo_A.csv,,,,,,,,,0,4,4,4,0,7,7,28,,,,,,,,,-0.42824074074074076,-0.2791666666666667,1,0,0,5.366213700035587,call4,0.012037037037037037,-0.29583333333333334,1,0,0,5.898149200016633,colour4,0.3939814814814815,0.2708333333333333,1,0,0,6.4646204999880865,number1,True,True,True,27,2,2019_Nov_18_1002,MA_Theta_Exp,3.0.7,59.973108049072366,
video/Experiment/zh_sp01_Dr_Gr_2_NVocInAudio_NoVideo.avi,vocoded,noVideo,sp01,Dr,Gr,2,4,2,flow/blocks/NVocInAudio_NoVideo_A.csv,,,,,,,,,0,4,4,4,0,8,8,5,,,,,,,,,-0.4337962962962963,0.15416666666666667,1,0,0,5.253833799972199,call2,-0.02824074074074074,0.10416666666666667,1,0,0,5.772342800046317,colour2,0.4412037037037037,0.06666666666666667,1,0,0,6.204653699998744,number2,True,True,True,27,2,2019_Nov_18_1002,MA_Theta_Exp,3.0.7,59.973108049072366,
video/Experiment/zh_sp01_Un_Ro_3_NVocInAudio_NoVideo.avi,vocoded,noVideo,sp01,Un,Ro,3,4,2,flow/blocks/NVocInAudio_NoVideo_A.csv,,,,,,,,,0,4,4,4,0,9,9,26,,,,,,,,,-0.4310185185185185,-0.30416666666666664,1,0,0,5.199908599955961,call4,-0.07546296296296297,-0.13333333333333333,1,0,0,5.715490399976261,colour3,0.3537037037037037,-0.1625,1,0,0,6.131867699907161,number3,True,True,True,27,2,2019_Nov_18_1002,MA_Theta_Exp,3.0.7,59.973108049072366,
video/Experiment/zh_sp07_Ti_Ge_2_NVocInAudio_NoVideo.avi,vocoded,noVideo,sp07,Ti,Ge,2,4,2,flow/blocks/NVocInAudio_NoVideo_A.csv,,,,,,,,,0,4,4,4,0,10,10,1,,,,,,,,,-0.3962962962962963,-0.09861111111111111,1,0,0,4.853801300050691,call3,-0.014351851851851852,0.3,1,0,0,5.436246299999766,colour1,0.3675925925925926,0.08611111111111111,1,0,0,5.919823199976236,number2,True,True,True,27,2,2019_Nov_18_1002,MA_Theta_Exp,3.0.7,59.973108049072366,
video/Experiment/zh_sp01_Ti_Ge_3_NVocInAudio_NoVideo.avi,vocoded,noVideo,sp01,Ti,Ge,3,4,2,flow/blocks/NVocInAudio_NoVideo_A.csv,,,,,,,,,0,4,4,4,0,11,11,18,,,,,,,,,-0.3351851851851852,-0.11388888888888889,1,0,0,5.144955400028266,call3,0.08287037037037037,0.2875,1,0,0,5.778580900048837,colour1,0.3453703703703704,-0.13055555555555556,1,0,0,6.428536899969913,number3,True,True,True,27,2,2019_Nov_18_1002,MA_Theta_Exp,3.0.7,59.973108049072366,
video/Experiment/zh_sp01_Dr_Ro_2_NVocInAudio_NoVideo.avi,vocoded,noVideo,sp01,Dr,Ro,2,4,2,flow/blocks/NVocInAudio_NoVideo_A.csv,,,,,,,,,0,4,4,4,0,12,12,9,,,,,,,,,-0.412962962962963,0.1111111111111111,1,0,0,5.501949000055902,call2,0.013425925925925926,-0.15138888888888888,1,0,0,6.001463599968702,colour3,0.4148148148148148,0.0763888888888889,1,0,0,6.500739199924283,number2,True,True,True,27,2,2019_Nov_18_1002,MA_Theta_Exp,3.0.7,59.973108049072366,
video/Experiment/zh_sp01_Ad_We_1_NVocInAudio_NoVideo.avi,vocoded,noVideo,sp01,Ad,We,1,4,2,flow/blocks/NVocInAudio_NoVideo_A.csv,,,,,,,,,0,4,4,4,0,13,13,12,,,,,,,,,-0.36574074074074076,0.31666666666666665,1,0,0,5.212091800058261,call1,-0.018518518518518517,-0.30833333333333335,1,0,0,5.961723000044003,colour4,0.3925925925925926,0.2972222222222222,1,0,0,6.695567699964158,number1,True,True,True,27,2,2019_Nov_18_1002,MA_Theta_Exp,3.0.7,59.973108049072366,
video/Experiment/zh_sp07_Dr_Gr_4_NVocInAudio_NoVideo.avi,vocoded,noVideo,sp07,Dr,Gr,4,4,2,flow/blocks/NVocInAudio_NoVideo_A.csv,,,,,,,,,0,4,4,4,0,14,14,23,,,,,,,,,-0.40324074074074073,0.09444444444444444,1,0,0,4.7338981999782845,call2,0.0412037037037037,0.09444444444444444,1,0,0,5.3232913999818265,colour2,0.462037037037037,-0.30972222222222223,1,0,0,5.816544100060128,number4,True,True,True,27,2,2019_Nov_18_1002,MA_Theta_Exp,3.0.7,59.973108049072366,
video/Experiment/zh_sp07_Un_Ro_1_NVocInAudio_NoVideo.avi,vocoded,noVideo,sp07,Un,Ro,1,4,2,flow/blocks/NVocInAudio_NoVideo_A.csv,,,,,,,,,0,4,4,4,0,15,15,24,,,,,,,,,-0.3990740740740741,-0.2861111111111111,1,0,0,4.542637999984436,call4,0.060648148148148145,-0.10555555555555556,1,0,0,5.043064300087281,colour3,0.3523148148148148,0.30416666666666664,1,0,0,5.659426799975336,number1,True,True,True,27,2,2019_Nov_18_1002,MA_Theta_Exp,3.0.7,59.973108049072366,
video/Experiment/zh_sp07_Ad_Gr_3_NVocInAudio_NoVideo.avi,vocoded,noVideo,sp07,Ad,Gr,3,4,2,flow/blocks/NVocInAudio_NoVideo_A.csv,,,,,,,,,0,4,4,4,0,16,16,22,,,,,,,,,-0.4532407407407407,0.3402777777777778,1,0,0,4.905786199960858,call1,0.017592592592592594,0.11944444444444445,1,0,0,5.52155079995282,colour2,0.4217592592592593,-0.12361111111111112,1,0,0,6.221050200052559,number3,True,True,True,27,2,2019_Nov_18_1002,MA_Theta_Exp,3.0.7,59.973108049072366,
video/Experiment/zh_sp07_Ad_Ro_1_NVocInAudio_NoVideo.avi,vocoded,noVideo,sp07,Ad,Ro,1,4,2,flow/blocks/NVocInAudio_NoVideo_A.csv,,,,,,,,,0,4,4,4,0,17,17,8,,,,,,,,,-0.4199074074074074,0.2861111111111111,1,0,0,4.605559699935839,call1,-0.02962962962962963,-0.09444444444444444,1,0,0,5.25670520006679,colour3,0.37175925925925923,0.3333333333333333,1,0,0,5.855212399968877,number1,True,True,True,27,2,2019_Nov_18_1002,MA_Theta_Exp,3.0.7,59.973108049072366,
video/Experiment/zh_sp07_Ti_Ro_2_NVocInAudio_NoVideo.avi,vocoded,noVideo,sp07,Ti,Ro,2,4,2,flow/blocks/NVocInAudio_NoVideo_A.csv,,,,,,,,,0,4,4,4,0,18,18,25,,,,,,,,,-0.3726851851851852,-0.08333333333333333,1,0,0,4.725444099982269,call3,-0.01574074074074074,-0.11805555555555555,1,0,0,5.475120499962941,colour3,0.43287037037037035,0.10277777777777777,1,0,0,6.008869700017385,number2,True,True,True,27,2,2019_Nov_18_1002,MA_Theta_Exp,3.0.7,59.973108049072366,
video/Experiment/zh_sp01_Dr_Gr_3_NVocInAudio_NoVideo.avi,vocoded,noVideo,sp01,Dr,Gr,3,4,2,flow/blocks/NVocInAudio_NoVideo_A.csv,,,,,,,,,0,4,4,4,0,19,19,6,,,,,,,,,-0.42962962962962964,0.11805555555555555,1,0,0,5.394987500039861,call2,0.04537037037037037,0.09861111111111111,1,0,0,6.497171099996194,colour2,0.4356481481481482,-0.11944444444444445,1,0,0,6.96119349997025,number3,True,True,True,27,2,2019_Nov_18_1002,MA_Theta_Exp,3.0.7,59.973108049072366,
video/Experiment/zh_sp07_Un_Ge_3_NVocInAudio_NoVideo.avi,vocoded,noVideo,sp07,Un,Ge,3,4,2,flow/blocks/NVocInAudio_NoVideo_A.csv,,,,,,,,,0,4,4,4,0,20,20,2,,,,,,,,,-0.4476851851851852,-0.325,1,0,0,4.385009700083174,call4,0.016203703703703703,0.3125,1,0,0,5.3676643000217155,colour1,0.3578703703703704,-0.14305555555555555,1,0,0,5.900884800008498,number3,True,True,True,27,2,2019_Nov_18_1002,MA_Theta_Exp,3.0.7,59.973108049072366,
video/Experiment/zh_sp01_Ti_Ro_3_NVocInAudio_NoVideo.avi,vocoded,noVideo,sp01,Ti,Ro,3,4,2,flow/blocks/NVocInAudio_NoVideo_A.csv,,,,,,,,,0,4,4,4,0,21,21,10,,,,,,,,,-0.41574074074074074,-0.12083333333333333,1,0,0,5.303155200090259,call3,-0.021296296296296296,0.05277777777777778,1,0,0,6.035914500011131,colour2,0.3912037037037037,-0.15138888888888888,1,0,0,6.652745499974117,number3,True,False,True,27,2,2019_Nov_18_1002,MA_Theta_Exp,3.0.7,59.973108049072366,
video/Experiment/zh_sp07_Dr_We_2_NVocInAudio_NoVideo.avi,vocoded,noVideo,sp07,Dr,We,2,4,2,flow/blocks/NVocInAudio_NoVideo_A.csv,,,,,,,,,0,4,4,4,0,22,22,13,,,,,,,,,-0.350462962962963,0.0875,1,0,0,5.2686848000157624,call2,0.006481481481481481,-0.32083333333333336,1,0,0,5.850432800012641,colour4,0.4064814814814815,0.04722222222222222,1,0,0,6.383379400009289,number2,True,True,True,27,2,2019_Nov_18_1002,MA_Theta_Exp,3.0.7,59.973108049072366,
video/Experiment/zh_sp01_Ad_Gr_2_NVocInAudio_NoVideo.avi,vocoded,noVideo,sp01,Ad,Gr,2,4,2,flow/blocks/NVocInAudio_NoVideo_A.csv,,,,,,,,,0,4,4,4,0,23,23,21,,,,,,,,,-0.45601851851851855,0.30972222222222223,1,0,0,5.338242399971932,call1,0.013425925925925926,0.10833333333333334,1,0,0,6.021537099964917,colour2,0.40370370370370373,0.10138888888888889,1,0,0,6.571511999936774,number2,True,True,True,27,2,2019_Nov_18_1002,MA_Theta_Exp,3.0.7,59.973108049072366,
video/Experiment/zh_sp07_Un_Gr_1_NVocInAudio_NoVideo.avi,vocoded,noVideo,sp07,Un,Gr,1,4,2,flow/blocks/NVocInAudio_NoVideo_A.csv,,,,,,,,,0,4,4,4,0,24,24,20,,,,,,,,,-0.3990740740740741,-0.3236111111111111,1,0,0,5.246752099948935,call4,-0.0032407407407407406,0.07777777777777778,1,0,0,5.89596969995182,colour2,0.34120370370370373,0.2986111111111111,1,0,0,6.446337399887852,number1,True,True,True,27,2,2019_Nov_18_1002,MA_Theta_Exp,3.0.7,59.973108049072366,
video/Experiment/zh_sp01_Dr_Ge_1_NVocInAudio_NoVideo.avi,vocoded,noVideo,sp01,Dr,Ge,1,4,2,flow/blocks/NVocInAudio_NoVideo_A.csv,,,,,,,,,0,4,4,4,0,25,25,0,,,,,,,,,-0.43657407407407406,-0.36527777777777776,1,0,0,5.1508893999271095,call4,0.014814814814814815,0.2847222222222222,1,0,0,6.0047678999835625,colour1,0.42592592592592593,0.32083333333333336,1,0,0,6.45019800006412,number1,False,True,True,27,2,2019_Nov_18_1002,MA_Theta_Exp,3.0.7,59.973108049072366,
video/Experiment/zh_sp01_Ti_Gr_4_NVocInAudio_NoVideo.avi,vocoded,noVideo,sp01,Ti,Gr,4,4,2,flow/blocks/NVocInAudio_NoVideo_A.csv,,,,,,,,,0,4,4,4,0,26,26,7,,,,,,,,,-0.38101851851851853,-0.1361111111111111,1,0,0,5.192278399947099,call3,0.020370370370370372,0.09722222222222222,1,0,0,5.655606099986471,colour2,0.37453703703703706,-0.32222222222222224,1,0,0,6.1554853999987245,number4,True,True,True,27,2,2019_Nov_18_1002,MA_Theta_Exp,3.0.7,59.973108049072366,
video/Experiment/zh_sp07_Un_We_3_NVocInAudio_NoVideo.avi,vocoded,noVideo,sp07,Un,We,3,4,2,flow/blocks/NVocInAudio_NoVideo_A.csv,,,,,,,,,0,4,4,4,0,27,27,14,,,,,,,,,-0.3824074074074074,-0.2861111111111111,1,0,0,4.342271800036542,call4,0.017592592592592594,-0.2916666666666667,1,0,0,4.84240259998478,colour4,0.3537037037037037,-0.13055555555555556,1,0,0,5.291970500024036,number3,True,True,True,27,2,2019_Nov_18_1002,MA_Theta_Exp,3.0.7,59.973108049072366,
video/Experiment/zh_sp01_Ad_Gr_1_NVocInAudio_NoVideo.avi,vocoded,noVideo,sp01,Ad,Gr,1,4,2,flow/blocks/NVocInAudio_NoVideo_A.csv,,,,,,,,,0,4,4,4,0,28,28,4,,,,,,,,,-0.37546296296296294,0.3236111111111111,1,0,0,5.942728800000623,call1,-0.04490740740740741,0.13194444444444445,1,0,0,6.4592232999857515,colour2,0.4703703703703704,0.2861111111111111,1,0,0,6.975601100013591,number1,True,True,True,27,2,2019_Nov_18_1002,MA_Theta_Exp,3.0.7,59.973108049072366,
video/Experiment/zh_sp01_Ad_Ro_4_NVocInAudio_NoVideo.avi,vocoded,noVideo,sp01,Ad,Ro,4,4,2,flow/blocks/NVocInAudio_NoVideo_A.csv,,,,,,,,,0,4,4,4,0,29,29,11,,,,,,,,,-0.43657407407407406,0.3819444444444444,1,0,0,5.279200199991465,call1,0.003703703703703704,-0.09305555555555556,1,0,0,6.262462400016375,colour3,0.41203703703703703,-0.3333333333333333,1,0,0,7.128906000056304,number4,True,True,True,27,2,2019_Nov_18_1002,MA_Theta_Exp,3.0.7,59.973108049072366,
video/Experiment/zh_sp07_Un_We_4_NVocInAudio_NoVideo.avi,vocoded,noVideo,sp07,Un,We,4,4,2,flow/blocks/NVocInAudio_NoVideo_A.csv,,,,,,,,,0,4,4,4,0,30,30,15,,,,,,,,,-0.3990740740740741,-0.2861111111111111,1,0,0,4.405060099903494,call4,-0.02962962962962963,-0.31805555555555554,1,0,0,4.788372600101866,colour4,0.36342592592592593,-0.29444444444444445,1,0,0,5.20510879997164,number4,True,True,True,27,2,2019_Nov_18_1002,MA_Theta_Exp,3.0.7,59.973108049072366,
video/Experiment/zh_sp01_Ti_Ge_1_NVocInAudio_NoVideo.avi,vocoded,noVideo,sp01,Ti,Ge,1,4,2,flow/blocks/NVocInAudio_NoVideo_A.csv,,,,,,,,,0,4,4,4,0,31,31,16,,,,,,,,,-0.4212962962962963,-0.09305555555555556,1,0,0,5.280432799947448,call3,-0.05185185185185185,0.2611111111111111,1,0,0,5.930237299995497,colour1,0.42453703703703705,0.3055555555555556,1,0,0,6.447774500004016,number1,True,True,True,27,2,2019_Nov_18_1002,MA_Theta_Exp,3.0.7,59.973108049072366,
video/Experiment/zh_sp01_Dr_We_1_NoThetaInAudio_GlobalThetaInVideo.avi,noTheta,plusVideo,sp01,Dr,We,1,0,3,flow/blocks/NoThetaInAudio_GlobalThetaInVideo_B.csv,,,,,,,,,,,,,,,,,0,0,0,0,0,0,0,28,-0.40324074074074073,-0.27361111111111114,1,0,0,5.446608899976127,call4,-0.05740740740740741,-0.28055555555555556,1,0,0,6.197032099938951,colour4,0.36064814814814816,0.32083333333333336,1,0,0,6.915275499923155,number1,False,True,True,27,2,2019_Nov_18_1002,MA_Theta_Exp,3.0.7,59.973108049072366,
video/Experiment/zh_sp01_Dr_Ge_2_NoThetaInAudio_GlobalThetaInVideo.avi,noTheta,plusVideo,sp01,Dr,Ge,2,0,3,flow/blocks/NoThetaInAudio_GlobalThetaInVideo_B.csv,,,,,,,,,,,,,,,,,0,0,0,0,0,1,1,17,-0.475462962962963,-0.08194444444444444,1,0,0,5.178602700005285,call3,-0.01712962962962963,0.2875,1,0,0,5.828885399969295,colour1,0.3578703703703704,0.09305555555555556,1,0,0,6.296088899951428,number2,False,True,True,27,2,2019_Nov_18_1002,MA_Theta_Exp,3.0.7,59.973108049072366,
video/Experiment/zh_sp07_Ti_Gr_3_NoThetaInAudio_GlobalThetaInVideo.avi,noTheta,plusVideo,sp07,Ti,Gr,3,0,3,flow/blocks/NoThetaInAudio_GlobalThetaInVideo_B.csv,,,,,,,,,,,,,,,,,0,0,0,0,0,2,2,22,-0.39351851851851855,-0.11527777777777778,1,0,0,4.599809900042601,call3,-0.02546296296296296,0.1125,1,0,0,5.06917789997533,colour2,0.44675925925925924,-0.1,1,0,0,5.554569399915636,number3,True,True,True,27,2,2019_Nov_18_1002,MA_Theta_Exp,3.0.7,59.973108049072366,
video/Experiment/zh_sp07_Ad_Gr_4_NoThetaInAudio_GlobalThetaInVideo.avi,noTheta,plusVideo,sp07,Ad,Gr,4,0,3,flow/blocks/NoThetaInAudio_GlobalThetaInVideo_B.csv,,,,,,,,,,,,,,,,,0,0,0,0,0,3,3,7,-0.39351851851851855,0.2916666666666667,1,0,0,4.597192200017162,call1,0.03009259259259259,0.10416666666666667,1,0,0,5.131746199913323,colour2,0.4425925925925926,-0.24166666666666667,1,0,0,5.6965012000873685,number4,True,True,True,27,2,2019_Nov_18_1002,MA_Theta_Exp,3.0.7,59.973108049072366,
video/Experiment/zh_sp01_Dr_Ge_3_NoThetaInAudio_GlobalThetaInVideo.avi,noTheta,plusVideo,sp01,Dr,Ge,3,0,3,flow/blocks/NoThetaInAudio_GlobalThetaInVideo_B.csv,,,,,,,,,,,,,,,,,0,0,0,0,0,4,4,2,-0.3907407407407407,-0.2972222222222222,1,0,0,4.767887499998324,call4,0.062037037037037036,0.2972222222222222,1,0,0,5.717839400051162,colour1,0.4203703703703704,-0.11527777777777778,1,0,0,6.435048299957998,number3,False,True,True,27,2,2019_Nov_18_1002,MA_Theta_Exp,3.0.7,59.973108049072366,
video/Experiment/zh_sp01_Un_Gr_4_NoThetaInAudio_GlobalThetaInVideo.avi,noTheta,plusVideo,sp01,Un,Gr,4,0,3,flow/blocks/NoThetaInAudio_GlobalThetaInVideo_B.csv,,,,,,,,,,,,,,,,,0,0,0,0,0,5,5,23,-0.37407407407407406,-0.2722222222222222,1,0,0,4.916054000030272,call4,-0.012962962962962963,0.11666666666666667,1,0,0,5.482738099992275,colour2,0.38842592592592595,-0.36527777777777776,1,0,0,6.065619400003925,number4,True,True,True,27,2,2019_Nov_18_1002,MA_Theta_Exp,3.0.7,59.973108049072366,
video/Experiment/zh_sp07_Un_Ro_2_NoThetaInAudio_GlobalThetaInVideo.avi,noTheta,plusVideo,sp07,Un,Ro,2,0,3,flow/blocks/NoThetaInAudio_GlobalThetaInVideo_B.csv,,,,,,,,,,,,,,,,,0,0,0,0,0,6,6,9,-0.3685185185185185,-0.2902777777777778,1,0,0,4.624843600089662,call4,-0.03796296296296296,-0.14027777777777778,1,0,0,5.091345499968156,colour3,0.3814814814814815,0.10138888888888889,1,0,0,5.54141389997676,number2,True,True,True,27,2,2019_Nov_18_1002,MA_Theta_Exp,3.0.7,59.973108049072366,
video/Experiment/zh_sp07_Ti_Gr_1_NoThetaInAudio_GlobalThetaInVideo.avi,noTheta,plusVideo,sp07,Ti,Gr,1,0,3,flow/blocks/NoThetaInAudio_GlobalThetaInVideo_B.csv,,,,,,,,,,,,,,,,,0,0,0,0,0,7,7,4,-0.44907407407407407,-0.09305555555555556,1,0,0,4.450188299990259,call3,0.009259259259259259,0.10555555555555556,1,0,0,5.03076700004749,colour2,0.39675925925925926,0.3055555555555556,1,0,0,5.568906700005755,number1,True,True,True,27,2,2019_Nov_18_1002,MA_Theta_Exp,3.0.7,59.973108049072366,
video/Experiment/zh_sp01_Un_We_2_NoThetaInAudio_GlobalThetaInVideo.avi,noTheta,plusVideo,sp01,Un,We,2,0,3,flow/blocks/NoThetaInAudio_GlobalThetaInVideo_B.csv,,,,,,,,,,,,,,,,,0,0,0,0,0,8,8,13,-0.35185185185185186,-0.2972222222222222,1,0,0,5.057396299904212,call4,-0.032407407407407406,-0.325,1,0,0,5.470890500000678,colour4,0.3537037037037037,0.08333333333333333,1,0,0,6.020214300020598,number2,True,True,True,27,2,2019_Nov_18_1002,MA_Theta_Exp,3.0.7,59.973108049072366,
video/Experiment/zh_sp07_Dr_Ro_1_NoThetaInAudio_GlobalThetaInVideo.avi,noTheta,plusVideo,sp07,Dr,Ro,1,0,3,flow/blocks/NoThetaInAudio_GlobalThetaInVideo_B.csv,,,,,,,,,,,,,,,,,0,0,0,0,0,9,9,24,-0.42824074074074076,-0.09722222222222222,1,0,0,4.289303199970163,call3,-0.03935185185185185,-0.1388888888888889,1,0,0,4.755745999980718,colour3,0.4134259259259259,0.3194444444444444,1,0,0,5.357120600063354,number1,False,True,True,27,2,2019_Nov_18_1002,MA_Theta_Exp,3.0.7,59.973108049072366,
video/Experiment/zh_sp01_Ti_We_1_NoThetaInAudio_GlobalThetaInVideo.avi,noTheta,plusVideo,sp01,Ti,We,1,0,3,flow/blocks/NoThetaInAudio_GlobalThetaInVideo_B.csv,,,,,,,,,,,,,,,,,0,0,0,0,0,10,10,12,-0.36435185185185187,-0.10694444444444444,1,0,0,5.070527500007302,call3,-0.010185185185185186,-0.29305555555555557,1,0,0,5.52096759993583,colour4,0.47175925925925927,0.24166666666666667,1,0,0,6.18917079991661,number1,True,True,True,27,2,2019_Nov_18_1002,MA_Theta_Exp,3.0.7,59.973108049072366,
video/Experiment/zh_sp07_Ad_Ge_1_NoThetaInAudio_GlobalThetaInVideo.avi,noTheta,plusVideo,sp07,Ad,Ge,1,0,3,flow/blocks/NoThetaInAudio_GlobalThetaInVideo_B.csv,,,,,,,,,,,,,,,,,0,0,0,0,0,11,11,16,-0.3560185185185185,0.04861111111111111,1,0,0,5.219870300032198,call2,0.025925925925925925,0.05,1,0,0,6.154719699989073,colour2,0.3662037037037037,0.2916666666666667,1,0,0,6.670974500011653,number1,False,False,True,27,2,2019_Nov_18_1002,MA_Theta_Exp,3.0.7,59.973108049072366,
video/Experiment/zh_sp01_Ad_Ge_4_NoThetaInAudio_GlobalThetaInVideo.avi,noTheta,plusVideo,sp01,Ad,Ge,4,0,3,flow/blocks/NoThetaInAudio_GlobalThetaInVideo_B.csv,,,,,,,,,,,,,,,,,0,0,0,0,0,12,12,3,-0.4046296296296296,0.2902777777777778,1,0,0,4.972551899962127,call1,0.006481481481481481,0.2986111111111111,1,0,0,5.423482500016689,colour1,0.3912037037037037,-0.2916666666666667,1,0,0,6.18845630006399,number4,True,True,True,27,2,2019_Nov_18_1002,MA_Theta_Exp,3.0.7,59.973108049072366,
video/Experiment/zh_sp07_Dr_Gr_1_NoThetaInAudio_GlobalThetaInVideo.avi,noTheta,plusVideo,sp07,Dr,Gr,1,0,3,flow/blocks/NoThetaInAudio_GlobalThetaInVideo_B.csv,,,,,,,,,,,,,,,,,0,0,0,0,0,13,13,20,-0.36157407407407405,0.07916666666666666,1,0,0,4.484576800023206,call2,-0.001851851851851852,0.10416666666666667,1,0,0,5.800550200045109,colour2,0.39537037037037037,0.2972222222222222,1,0,0,6.352358200005256,number1,True,True,True,27,2,2019_Nov_18_1002,MA_Theta_Exp,3.0.7,59.973108049072366,
video/Experiment/zh_sp01_Ti_Ro_1_NoThetaInAudio_GlobalThetaInVideo.avi,noTheta,plusVideo,sp01,Ti,Ro,1,0,3,flow/blocks/NoThetaInAudio_GlobalThetaInVideo_B.csv,,,,,,,,,,,,,,,,,0,0,0,0,0,14,14,8,-0.3574074074074074,-0.1111111111111111,1,0,0,5.831107700010762,call3,-0.07824074074074074,-0.1527777777777778,1,0,0,6.312557899975218,colour3,0.3814814814814815,0.25277777777777777,1,0,0,7.215359999914654,number1,True,True,True,27,2,2019_Nov_18_1002,MA_Theta_Exp,3.0.7,59.973108049072366,
video/Experiment/zh_sp01_Un_Ge_1_NoThetaInAudio_GlobalThetaInVideo.avi,noTheta,plusVideo,sp01,Un,Ge,1,0,3,flow/blocks/NoThetaInAudio_GlobalThetaInVideo_B.csv,,,,,,,,,,,,,,,,,0,0,0,0,0,15,15,0,-0.36435185185185187,-0.3277777777777778,1,0,0,5.645121999899857,call4,-0.031018518518518518,0.32916666666666666,1,0,0,6.426739600021392,colour1,0.42592592592592593,0.26805555555555555,1,0,0,6.942668000003323,number1,True,True,True,27,2,2019_Nov_18_1002,MA_Theta_Exp,3.0.7,59.973108049072366,
video/Experiment/zh_sp01_Un_Ro_4_NoThetaInAudio_GlobalThetaInVideo.avi,noTheta,plusVideo,sp01,Un,Ro,4,0,3,flow/blocks/NoThetaInAudio_GlobalThetaInVideo_B.csv,,,,,,,,,,,,,,,,,0,0,0,0,0,16,16,27,-0.4046296296296296,-0.29583333333333334,1,0,0,5.248574999975972,call4,-0.011574074074074073,0.08888888888888889,1,0,0,5.815266599995084,colour2,0.3578703703703704,-0.31805555555555554,1,0,0,6.364643399952911,number4,True,False,True,27,2,2019_Nov_18_1002,MA_Theta_Exp,3.0.7,59.973108049072366,
video/Experiment/zh_sp01_Ad_Ge_2_NoThetaInAudio_GlobalThetaInVideo.avi,noTheta,plusVideo,sp01,Ad,Ge,2,0,3,flow/blocks/NoThetaInAudio_GlobalThetaInVideo_B.csv,,,,,,,,,,,,,,,,,0,0,0,0,0,17,17,1,-0.42407407407407405,0.3402777777777778,1,0,0,5.61697779991664,call1,-0.032407407407407406,0.29305555555555557,1,0,0,6.115170200006105,colour1,0.43287037037037035,0.09722222222222222,1,0,0,6.5320054000476375,number2,True,True,True,27,2,2019_Nov_18_1002,MA_Theta_Exp,3.0.7,59.973108049072366,
video/Experiment/zh_sp07_Ti_Gr_2_NoThetaInAudio_GlobalThetaInVideo.avi,noTheta,plusVideo,sp07,Ti,Gr,2,0,3,flow/blocks/NoThetaInAudio_GlobalThetaInVideo_B.csv,,,,,,,,,,,,,,,,,0,0,0,0,0,18,18,21,-0.4046296296296296,-0.09722222222222222,1,0,0,4.669050500029698,call3,-0.000462962962962963,0.06666666666666667,1,0,0,5.148973700008355,colour2,0.36342592592592593,0.06805555555555555,1,0,0,5.615587600041181,number2,True,True,True,27,2,2019_Nov_18_1002,MA_Theta_Exp,3.0.7,59.973108049072366,
video/Experiment/zh_sp07_Dr_We_4_NoThetaInAudio_GlobalThetaInVideo.avi,noTheta,plusVideo,sp07,Dr,We,4,0,3,flow/blocks/NoThetaInAudio_GlobalThetaInVideo_B.csv,,,,,,,,,,,,,,,,,0,0,0,0,0,19,19,15,-0.3990740740740741,0.2791666666666667,1,0,0,4.356095600058325,call1,-0.02824074074074074,0.09722222222222222,1,0,0,4.875297999940813,colour2,0.4078703703703704,-0.3541666666666667,1,0,0,5.635279799927957,number4,False,False,True,27,2,2019_Nov_18_1002,MA_Theta_Exp,3.0.7,59.973108049072366,
video/Experiment/zh_sp07_Ti_We_2_NoThetaInAudio_GlobalThetaInVideo.avi,noTheta,plusVideo,sp07,Ti,We,2,0,3,flow/blocks/NoThetaInAudio_GlobalThetaInVideo_B.csv,,,,,,,,,,,,,,,,,0,0,0,0,0,20,20,29,-0.350462962962963,-0.1,1,0,0,4.633344699977897,call3,0.060648148148148145,0.06388888888888888,1,0,0,5.11699990008492,colour2,0.462037037037037,0.059722222222222225,1,0,0,5.5158554000081494,number2,True,False,True,27,2,2019_Nov_18_1002,MA_Theta_Exp,3.0.7,59.973108049072366,
video/Experiment/zh_sp01_Ad_Ge_3_NoThetaInAudio_GlobalThetaInVideo.avi,noTheta,plusVideo,sp01,Ad,Ge,3,0,3,flow/blocks/NoThetaInAudio_GlobalThetaInVideo_B.csv,,,,,,,,,,,,,,,,,0,0,0,0,0,21,21,18,-0.40185185185185185,0.2847222222222222,1,0,0,4.791247299988754,call1,-0.001851851851851852,0.3013888888888889,1,0,0,5.25799700000789,colour1,0.4148148148148148,-0.05694444444444444,1,0,0,5.824643099913374,number3,True,True,True,27,2,2019_Nov_18_1002,MA_Theta_Exp,3.0.7,59.973108049072366,
video/Experiment/zh_sp01_Un_Gr_2_NoThetaInAudio_GlobalThetaInVideo.avi,noTheta,plusVideo,sp01,Un,Gr,2,0,3,flow/blocks/NoThetaInAudio_GlobalThetaInVideo_B.csv,,,,,,,,,,,,,,,,,0,0,0,0,0,22,22,5,-0.3476851851851852,-0.28888888888888886,1,0,0,5.182117499993183,call4,-0.031018518518518518,0.11805555555555555,1,0,0,5.780124000040814,colour2,0.32592592592592595,0.08333333333333333,1,0,0,6.264637500047684,number2,True,True,True,27,2,2019_Nov_18_1002,MA_Theta_Exp,3.0.7,59.973108049072366,
video/Experiment/zh_sp07_Un_Gr_3_NoThetaInAudio_GlobalThetaInVideo.avi,noTheta,plusVideo,sp07,Un,Gr,3,0,3,flow/blocks/NoThetaInAudio_GlobalThetaInVideo_B.csv,,,,,,,,,,,,,,,,,0,0,0,0,0,23,23,6,-0.4449074074074074,-0.12777777777777777,1,0,0,4.536020400002599,call3,-0.000462962962962963,0.10972222222222222,1,0,0,5.095721199992113,colour2,0.37453703703703706,-0.10277777777777777,1,0,0,5.577795900055207,number3,False,True,True,27,2,2019_Nov_18_1002,MA_Theta_Exp,3.0.7,59.973108049072366,
video/Experiment/zh_sp07_Un_Ge_4_NoThetaInAudio_GlobalThetaInVideo.avi,noTheta,plusVideo,sp07,Un,Ge,4,0,3,flow/blocks/NoThetaInAudio_GlobalThetaInVideo_B.csv,,,,,,,,,,,,,,,,,0,0,0,0,0,24,24,19,-0.3560185185185185,-0.26944444444444443,1,0,0,4.795195399899967,call4,0.03287037037037037,0.2513888888888889,1,0,0,5.5662303999997675,colour1,0.43287037037037035,-0.2972222222222222,1,0,0,6.1833622000413015,number4,True,True,True,27,2,2019_Nov_18_1002,MA_Theta_Exp,3.0.7,59.973108049072366,
video/Experiment/zh_sp07_Ad_Ro_3_NoThetaInAudio_GlobalThetaInVideo.avi,noTheta,plusVideo,sp07,Ad,Ro,3,0,3,flow/blocks/NoThetaInAudio_GlobalThetaInVideo_B.csv,,,,,,,,,,,,,,,,,0,0,0,0,0,25,25,10,-0.36018518518518516,0.2791666666666667,1,0,0,4.802890099934302,call1,0.07453703703703704,0.30972222222222223,1,0,0,5.268828400061466,colour1,0.399537037037037,-0.10972222222222222,1,0,0,5.8706804000539705,number3,True,False,True,27,2,2019_Nov_18_1002,MA_Theta_Exp,3.0.7,59.973108049072366,
video/Experiment/zh_sp01_Ti_Ro_4_NoThetaInAudio_GlobalThetaInVideo.avi,noTheta,plusVideo,sp01,Ti,Ro,4,0,3,flow/blocks/NoThetaInAudio_GlobalThetaInVideo_B.csv,,,,,,,,,,,,,,,,,0,0,0,0,0,26,26,11,-0.43796296296296294,-0.09027777777777778,1,0,0,5.347597899963148,call3,0.04537037037037037,0.3472222222222222,1,0,0,6.447997299954295,colour1,0.4050925925925926,-0.22777777777777777,1,0,0,7.214116999995895,number4,True,False,True,27,2,2019_Nov_18_1002,MA_Theta_Exp,3.0.7,59.973108049072366,
video/Experiment/zh_sp07_Ad_Ro_2_NoThetaInAudio_GlobalThetaInVideo.avi,noTheta,plusVideo,sp07,Ad,Ro,2,0,3,flow/blocks/NoThetaInAudio_GlobalThetaInVideo_B.csv,,,,,,,,,,,,,,,,,0,0,0,0,0,27,27,25,-0.350462962962963,0.3388888888888889,1,0,0,4.831651400076225,call1,0.027314814814814816,-0.09305555555555556,1,0,0,5.448898900067434,colour3,0.4439814814814815,0.1,1,0,0,5.89832799998112,number2,True,True,True,27,2,2019_Nov_18_1002,MA_Theta_Exp,3.0.7,59.973108049072366,
video/Experiment/zh_sp07_Dr_We_3_NoThetaInAudio_GlobalThetaInVideo.avi,noTheta,plusVideo,sp07,Dr,We,3,0,3,flow/blocks/NoThetaInAudio_GlobalThetaInVideo_B.csv,,,,,,,,,,,,,,,,,0,0,0,0,0,28,28,14,-0.36018518518518516,0.28194444444444444,1,0,0,4.616418799967505,call1,-0.011574074074074073,-0.3125,1,0,0,5.283006299985573,colour4,0.42592592592592593,-0.09305555555555556,1,0,0,5.799422499956563,number3,False,True,True,27,2,2019_Nov_18_1002,MA_Theta_Exp,3.0.7,59.973108049072366,
video/Experiment/zh_sp01_Ti_We_3_NoThetaInAudio_GlobalThetaInVideo.avi,noTheta,plusVideo,sp01,Ti,We,3,0,3,flow/blocks/NoThetaInAudio_GlobalThetaInVideo_B.csv,,,,,,,,,,,,,,,,,0,0,0,0,0,29,29,30,-0.37824074074074077,-0.125,1,0,0,5.136369199957699,call3,0.03981481481481482,-0.3194444444444444,1,0,0,5.7852625999366865,colour4,0.3731481481481482,-0.1,1,0,0,6.285503100021742,number3,True,True,True,27,2,2019_Nov_18_1002,MA_Theta_Exp,3.0.7,59.973108049072366,
video/Experiment/zh_sp01_Dr_Ro_3_NoThetaInAudio_GlobalThetaInVideo.avi,noTheta,plusVideo,sp01,Dr,Ro,3,0,3,flow/blocks/NoThetaInAudio_GlobalThetaInVideo_B.csv,,,,,,,,,,,,,,,,,0,0,0,0,0,30,30,26,-0.4212962962962963,-0.12083333333333333,1,0,0,5.268381200032309,call3,-0.011574074074074073,-0.14166666666666666,1,0,0,5.76815399993211,colour3,0.3731481481481482,-0.11388888888888889,1,0,0,6.201918999897316,number3,False,True,True,27,2,2019_Nov_18_1002,MA_Theta_Exp,3.0.7,59.973108049072366,
video/Experiment/zh_sp07_Ad_We_4_NoThetaInAudio_GlobalThetaInVideo.avi,noTheta,plusVideo,sp07,Ad,We,4,0,3,flow/blocks/NoThetaInAudio_GlobalThetaInVideo_B.csv,,,,,,,,,,,,,,,,,0,0,0,0,0,31,31,31,-0.3587962962962963,0.3375,1,0,0,4.447809499921277,call1,-0.049074074074074076,-0.24166666666666667,1,0,0,5.05116660008207,colour4,0.4287037037037037,-0.33055555555555555,1,0,0,5.400080000050366,number4,True,True,True,27,2,2019_Nov_18_1002,MA_Theta_Exp,3.0.7,59.973108049072366,
