videoFile,condition,video,speaker,callSign,colour,number,seq,id,block,exp.thisRepN,exp.thisTrialN,exp.thisN,exp.thisIndex,training.thisRepN,training.thisTrialN,training.thisN,training.thisIndex,firstHalf.thisRepN,firstHalf.thisTrialN,firstHalf.thisN,firstHalf.thisIndex,blocksA.thisRepN,blocksA.thisTrialN,blocksA.thisN,blocksA.thisIndex,mouseClickOnCall.x,mouseClickOnCall.y,mouseClickOnCall.leftButton,mouseClickOnCall.midButton,mouseClickOnCall.rightButton,mouseClickOnCall.time,mouseClickOnCall.clicked_name,mouseClickOnColour.x,mouseClickOnColour.y,mouseClickOnColour.leftButton,mouseClickOnColour.midButton,mouseClickOnColour.rightButton,mouseClickOnColour.time,mouseClickOnColour.clicked_name,mouseClickOnNumber.x,mouseClickOnNumber.y,mouseClickOnNumber.leftButton,mouseClickOnNumber.midButton,mouseClickOnNumber.rightButton,mouseClickOnNumber.time,mouseClickOnNumber.clicked_name,callSignCorrect,colourCorrect,numberCorrect,participant,order,date,expName,psychopyVersion,frameRate,
video/Training/zh_sp01_Ad_We_4_NVocInAudio_NoVideo.avi,vocoded,noVideo,sp01,Ad,We,4,,,,,,,,0,0,0,0,,,,,,,,,-0.37824074074074077,0.3375,1,0,0,5.752087300061248,call1,0.00787037037037037,-0.325,1,0,0,6.709984200075269,colour4,0.38981481481481484,-0.2763888888888889,1,0,0,7.440762700047344,number4,True,True,True,32,2,2019_Nov_18_1600,MA_Theta_Exp,3.0.7,59.98037442566704,
video/Training/zh_sp07_Ad_Ge_3_NVocInAudio_NoVideo.avi,vocoded,noVideo,sp07,Ad,Ge,3,,,,,,,,0,1,1,1,,,,,,,,,-0.34629629629629627,0.2902777777777778,1,0,0,5.492359699914232,call1,-0.02962962962962963,0.3277777777777778,1,0,0,6.142160000046715,colour1,0.4023148148148148,-0.07777777777777778,1,0,0,7.177952600060962,number3,True,True,True,32,2,2019_Nov_18_1600,MA_Theta_Exp,3.0.7,59.98037442566704,
video/Training/zh_sp01_Dr_Ro_3_NVocInAudio_GlobalThetaInVideo.avi,vocoded,plusVideo,sp01,Dr,Ro,3,,,,,,,,0,2,2,2,,,,,,,,,-0.4115740740740741,0.09722222222222222,1,0,0,5.412463100044988,call2,0.04537037037037037,-0.11944444444444445,1,0,0,6.0235152000095695,colour3,0.3912037037037037,-0.05138888888888889,1,0,0,6.774288899963722,number3,True,True,True,32,2,2019_Nov_18_1600,MA_Theta_Exp,3.0.7,59.98037442566704,
video/Training/zh_sp07_Dr_Gr_4_NVocInAudio_GlobalThetaInVideo.avi,vocoded,plusVideo,sp07,Dr,Gr,4,,,,,,,,0,3,3,3,,,,,,,,,-0.38935185185185184,0.14027777777777778,1,0,0,6.6142256000312045,call2,0.014814814814814815,0.12638888888888888,1,0,0,7.413572799996473,colour2,0.39537037037037037,-0.33194444444444443,1,0,0,8.068418900016695,number4,True,True,True,32,2,2019_Nov_18_1600,MA_Theta_Exp,3.0.7,59.98037442566704,
video/Training/zh_sp01_Ti_Gr_2_NoThetaInAudio_NoVideo.avi,noTheta,noVideo,sp01,Ti,Gr,2,,,,,,,,0,4,4,4,,,,,,,,,-0.41435185185185186,0.3388888888888889,1,0,0,6.033530000015162,call1,0.06620370370370371,0.07083333333333333,1,0,0,7.24821659992449,colour2,0.4287037037037037,0.10555555555555556,1,0,0,8.184424199978821,number2,False,True,True,32,2,2019_Nov_18_1600,MA_Theta_Exp,3.0.7,59.98037442566704,
video/Training/zh_sp07_Ti_Ro_1_NoThetaInAudio_NoVideo.avi,noTheta,noVideo,sp07,Ti,Ro,1,,,,,,,,0,5,5,5,,,,,,,,,-0.3699074074074074,0.26666666666666666,1,0,0,4.776759099913761,call1,-0.026851851851851852,-0.05555555555555555,1,0,0,5.3983969000400975,colour3,0.3439814814814815,0.31527777777777777,1,0,0,6.215457700076513,number1,False,True,True,32,2,2019_Nov_18_1600,MA_Theta_Exp,3.0.7,59.98037442566704,
video/Training/zh_sp01_Un_Ge_1_NoThetaInAudio_GlobalThetaInVideo.avi,noTheta,plusVideo,sp01,Un,Ge,1,,,,,,,,0,6,6,6,,,,,,,,,-0.3962962962962963,0.30277777777777776,1,0,0,7.675262899952941,call1,0.016203703703703703,-0.09166666666666666,1,0,0,9.475445399992168,colour3,0.3925925925925926,0.33611111111111114,1,0,0,10.226652499986812,number1,False,False,True,32,2,2019_Nov_18_1600,MA_Theta_Exp,3.0.7,59.98037442566704,
video/Training/zh_sp07_Un_We_2_NoThetaInAudio_GlobalThetaInVideo.avi,noTheta,plusVideo,sp07,Un,We,2,,,,,,,,0,7,7,7,,,,,,,,,-0.38101851851851853,-0.10555555555555556,1,0,0,5.276446699979715,call3,0.053703703703703705,-0.06527777777777778,1,0,0,6.5379756999900565,colour3,0.40370370370370373,0.3194444444444444,1,0,0,7.336729799979366,number1,False,False,False,32,2,2019_Nov_18_1600,MA_Theta_Exp,3.0.7,59.98037442566704,
video/Training/zh_sp01_Ad_Ge_1_GlobalTheta_NoVideo.avi,globalTheta,noVideo,sp01,Ad,Ge,1,,,,,,,,0,8,8,8,,,,,,,,,-0.3726851851851852,0.2916666666666667,1,0,0,5.977080799988471,call1,-0.021296296296296296,0.12083333333333333,1,0,0,6.478112200042233,colour2,0.4050925925925926,0.12222222222222222,1,0,0,7.196483199950308,number2,True,False,False,32,2,2019_Nov_18_1600,MA_Theta_Exp,3.0.7,59.98037442566704,
video/Training/zh_sp07_Ad_Ro_3_GlobalTheta_NoVideo.avi,globalTheta,noVideo,sp07,Ad,Ro,3,,,,,,,,0,9,9,9,,,,,,,,,-0.3351851851851852,0.09722222222222222,1,0,0,4.542710500070825,call2,0.06898148148148148,-0.08333333333333333,1,0,0,5.693559400038794,colour3,0.38842592592592595,0.11944444444444445,1,0,0,6.223591499961913,number2,False,True,False,32,2,2019_Nov_18_1600,MA_Theta_Exp,3.0.7,59.98037442566704,
video/Experiment/zh_sp01_Dr_Ro_4_NoThetaInAudio_GlobalThetaInVideo.avi,noTheta,plusVideo,sp01,Dr,Ro,4,0,3,flow/blocks/NoThetaInAudio_GlobalThetaInVideo_A.csv,,,,,,,,,0,0,0,0,0,0,0,27,-0.3699074074074074,0.2902777777777778,1,0,0,5.172685700003058,call1,0.028703703703703703,-0.11666666666666667,1,0,0,6.422347199986689,colour3,0.41203703703703703,-0.3375,1,0,0,7.1058051999425516,number4,False,True,True,32,2,2019_Nov_18_1600,MA_Theta_Exp,3.0.7,59.98037442566704,
video/Experiment/zh_sp07_Ti_Ge_2_NoThetaInAudio_GlobalThetaInVideo.avi,noTheta,plusVideo,sp07,Ti,Ge,2,0,3,flow/blocks/NoThetaInAudio_GlobalThetaInVideo_A.csv,,,,,,,,,0,0,0,0,0,1,1,1,-0.4074074074074074,-0.28194444444444444,1,0,0,4.826410800102167,call4,0.02175925925925926,0.3138888888888889,1,0,0,5.947859300067648,colour1,0.4564814814814815,0.10138888888888889,1,0,0,6.719455000013113,number2,False,True,True,32,2,2019_Nov_18_1600,MA_Theta_Exp,3.0.7,59.98037442566704,
video/Experiment/zh_sp01_Ad_Gr_2_NoThetaInAudio_GlobalThetaInVideo.avi,noTheta,plusVideo,sp01,Ad,Gr,2,0,3,flow/blocks/NoThetaInAudio_GlobalThetaInVideo_A.csv,,,,,,,,,0,0,0,0,0,2,2,21,-0.3726851851851852,0.2791666666666667,1,0,0,5.075673299957998,call1,0.060648148148148145,0.13472222222222222,1,0,0,5.864939799997956,colour2,0.4439814814814815,0.13055555555555556,1,0,0,6.59424200002104,number2,True,True,True,32,2,2019_Nov_18_1600,MA_Theta_Exp,3.0.7,59.98037442566704,
video/Experiment/zh_sp07_Dr_Ro_2_NoThetaInAudio_GlobalThetaInVideo.avi,noTheta,plusVideo,sp07,Dr,Ro,2,0,3,flow/blocks/NoThetaInAudio_GlobalThetaInVideo_A.csv,,,,,,,,,0,0,0,0,0,3,3,9,-0.4185185185185185,0.1375,1,0,0,4.884654699941166,call2,-0.000462962962962963,-0.0875,1,0,0,5.5688681999454275,colour3,0.337037037037037,0.10694444444444444,1,0,0,6.301910899928771,number2,True,True,True,32,2,2019_Nov_18_1600,MA_Theta_Exp,3.0.7,59.98037442566704,
video/Experiment/zh_sp01_Un_Ro_3_NoThetaInAudio_GlobalThetaInVideo.avi,noTheta,plusVideo,sp01,Un,Ro,3,0,3,flow/blocks/NoThetaInAudio_GlobalThetaInVideo_A.csv,,,,,,,,,0,0,0,0,0,4,4,26,-0.40879629629629627,0.13194444444444445,1,0,0,5.783304800046608,call2,0.05092592592592592,-0.1111111111111111,1,0,0,6.745425799977966,colour3,0.3800925925925926,-0.1,1,0,0,7.349844999960624,number3,False,True,True,32,2,2019_Nov_18_1600,MA_Theta_Exp,3.0.7,59.98037442566704,
video/Experiment/zh_sp07_Dr_Gr_2_NoThetaInAudio_GlobalThetaInVideo.avi,noTheta,plusVideo,sp07,Dr,Gr,2,0,3,flow/blocks/NoThetaInAudio_GlobalThetaInVideo_A.csv,,,,,,,,,0,0,0,0,0,5,5,5,-0.38657407407407407,0.08055555555555556,1,0,0,5.189433900057338,call2,0.006481481481481481,-0.0875,1,0,0,5.851507700048387,colour3,0.3592592592592593,0.0763888888888889,1,0,0,6.3709655000129715,number2,True,False,True,32,2,2019_Nov_18_1600,MA_Theta_Exp,3.0.7,59.98037442566704,
video/Experiment/zh_sp01_Dr_Gr_3_NoThetaInAudio_GlobalThetaInVideo.avi,noTheta,plusVideo,sp01,Dr,Gr,3,0,3,flow/blocks/NoThetaInAudio_GlobalThetaInVideo_A.csv,,,,,,,,,0,0,0,0,0,6,6,6,-0.3851851851851852,0.09166666666666666,1,0,0,5.384931300068274,call2,-0.024074074074074074,0.25,1,0,0,7.452665299992077,colour1,0.43148148148148147,-0.10694444444444444,1,0,0,8.247979399980977,number3,True,False,True,32,2,2019_Nov_18_1600,MA_Theta_Exp,3.0.7,59.98037442566704,
video/Experiment/zh_sp07_Dr_Gr_4_NoThetaInAudio_GlobalThetaInVideo.avi,noTheta,plusVideo,sp07,Dr,Gr,4,0,3,flow/blocks/NoThetaInAudio_GlobalThetaInVideo_A.csv,,,,,,,,,0,0,0,0,0,7,7,23,-0.37824074074074077,0.10972222222222222,1,0,0,4.67650900001172,call2,0.07731481481481481,0.1,1,0,0,6.077552899951115,colour2,0.44537037037037036,-0.32083333333333336,1,0,0,6.906699899933301,number4,True,True,True,32,2,2019_Nov_18_1600,MA_Theta_Exp,3.0.7,59.98037442566704,
video/Experiment/zh_sp07_Un_Ge_2_NoThetaInAudio_GlobalThetaInVideo.avi,noTheta,plusVideo,sp07,Un,Ge,2,0,3,flow/blocks/NoThetaInAudio_GlobalThetaInVideo_A.csv,,,,,,,,,0,0,0,0,0,8,8,17,-0.36712962962962964,-0.30694444444444446,1,0,0,4.268967499956489,call4,0.000925925925925926,-0.07083333333333333,1,0,0,5.368205500068143,colour3,0.3800925925925926,0.13472222222222222,1,0,0,5.98717380000744,number2,True,False,True,32,2,2019_Nov_18_1600,MA_Theta_Exp,3.0.7,59.98037442566704,
video/Experiment/zh_sp07_Ti_We_4_NoThetaInAudio_GlobalThetaInVideo.avi,noTheta,plusVideo,sp07,Ti,We,4,0,3,flow/blocks/NoThetaInAudio_GlobalThetaInVideo_A.csv,,,,,,,,,0,0,0,0,0,9,9,31,-0.4351851851851852,-0.11944444444444445,1,0,0,4.577820200007409,call3,0.04814814814814815,-0.32222222222222224,1,0,0,5.724356499966234,colour4,0.38842592592592595,-0.33194444444444443,1,0,0,6.277114000055008,number4,True,True,True,32,2,2019_Nov_18_1600,MA_Theta_Exp,3.0.7,59.98037442566704,
video/Experiment/zh_sp07_Ti_Gr_4_NoThetaInAudio_GlobalThetaInVideo.avi,noTheta,plusVideo,sp07,Ti,Gr,4,0,3,flow/blocks/NoThetaInAudio_GlobalThetaInVideo_A.csv,,,,,,,,,0,0,0,0,0,10,10,7,-0.36018518518518516,0.0875,1,0,0,6.128219299949706,call2,0.009259259259259259,0.0875,1,0,0,7.078639700077474,colour2,0.41898148148148145,-0.3194444444444444,1,0,0,7.715654300060123,number4,False,True,True,32,2,2019_Nov_18_1600,MA_Theta_Exp,3.0.7,59.98037442566704,
video/Experiment/zh_sp01_Un_Gr_1_NoThetaInAudio_GlobalThetaInVideo.avi,noTheta,plusVideo,sp01,Un,Gr,1,0,3,flow/blocks/NoThetaInAudio_GlobalThetaInVideo_A.csv,,,,,,,,,0,0,0,0,0,11,11,20,-0.4074074074074074,0.11666666666666667,1,0,0,6.19220209994819,call2,0.038425925925925926,0.14027777777777778,1,0,0,7.222754200105555,colour2,0.4162037037037037,0.32083333333333336,1,0,0,8.258984200074337,number1,False,True,True,32,2,2019_Nov_18_1600,MA_Theta_Exp,3.0.7,59.98037442566704,
video/Experiment/zh_sp01_Un_Ro_1_NoThetaInAudio_GlobalThetaInVideo.avi,noTheta,plusVideo,sp01,Un,Ro,1,0,3,flow/blocks/NoThetaInAudio_GlobalThetaInVideo_A.csv,,,,,,,,,0,0,0,0,0,12,12,24,-0.3824074074074074,-0.3416666666666667,1,0,0,5.226474000024609,call4,0.05648148148148148,0.32083333333333336,1,0,0,6.6153583999257535,colour1,0.4064814814814815,0.325,1,0,0,7.2990158998873085,number1,True,False,True,32,2,2019_Nov_18_1600,MA_Theta_Exp,3.0.7,59.98037442566704,
video/Experiment/zh_sp01_Ad_Gr_3_NoThetaInAudio_GlobalThetaInVideo.avi,noTheta,plusVideo,sp01,Ad,Gr,3,0,3,flow/blocks/NoThetaInAudio_GlobalThetaInVideo_A.csv,,,,,,,,,0,0,0,0,0,13,13,22,-0.3907407407407407,0.32222222222222224,1,0,0,5.17394480004441,call1,-0.03935185185185185,0.11805555555555555,1,0,0,5.844682399998419,colour2,0.41898148148148145,-0.10555555555555556,1,0,0,6.462362100020982,number3,True,True,True,32,2,2019_Nov_18_1600,MA_Theta_Exp,3.0.7,59.98037442566704,
video/Experiment/zh_sp01_Ad_We_2_NoThetaInAudio_GlobalThetaInVideo.avi,noTheta,plusVideo,sp01,Ad,We,2,0,3,flow/blocks/NoThetaInAudio_GlobalThetaInVideo_A.csv,,,,,,,,,0,0,0,0,0,14,14,29,-0.42268518518518516,0.3111111111111111,1,0,0,5.0880154999904335,call1,0.04398148148148148,-0.29583333333333334,1,0,0,5.890285099972971,colour4,0.39814814814814814,0.11805555555555555,1,0,0,6.711812800029293,number2,True,True,True,32,2,2019_Nov_18_1600,MA_Theta_Exp,3.0.7,59.98037442566704,
video/Experiment/zh_sp01_Ti_Ro_2_NoThetaInAudio_GlobalThetaInVideo.avi,noTheta,plusVideo,sp01,Ti,Ro,2,0,3,flow/blocks/NoThetaInAudio_GlobalThetaInVideo_A.csv,,,,,,,,,0,0,0,0,0,15,15,25,-0.4074074074074074,0.10972222222222222,1,0,0,6.424931099987589,call2,0.013425925925925926,0.13055555555555556,1,0,0,7.3094696999760345,colour2,0.449537037037037,0.13472222222222222,1,0,0,7.812804599991068,number2,False,False,True,32,2,2019_Nov_18_1600,MA_Theta_Exp,3.0.7,59.98037442566704,
video/Experiment/zh_sp07_Un_We_3_NoThetaInAudio_GlobalThetaInVideo.avi,noTheta,plusVideo,sp07,Un,We,3,0,3,flow/blocks/NoThetaInAudio_GlobalThetaInVideo_A.csv,,,,,,,,,0,0,0,0,0,16,16,14,-0.4185185185185185,0.09583333333333334,1,0,0,4.710593300056644,call2,0.038425925925925926,-0.30694444444444446,1,0,0,5.611394899897277,colour4,0.37592592592592594,-0.059722222222222225,1,0,0,6.328427700093016,number3,False,True,True,32,2,2019_Nov_18_1600,MA_Theta_Exp,3.0.7,59.98037442566704,
video/Experiment/zh_sp01_Un_We_1_NoThetaInAudio_GlobalThetaInVideo.avi,noTheta,plusVideo,sp01,Un,We,1,0,3,flow/blocks/NoThetaInAudio_GlobalThetaInVideo_A.csv,,,,,,,,,0,0,0,0,0,17,17,28,-0.35185185185185186,-0.2986111111111111,1,0,0,5.33282260003034,call4,-0.05185185185185185,-0.2777777777777778,1,0,0,5.828578799962997,colour4,0.40370370370370373,0.30277777777777776,1,0,0,6.544352099997923,number1,True,True,True,32,2,2019_Nov_18_1600,MA_Theta_Exp,3.0.7,59.98037442566704,
video/Experiment/zh_sp07_Ad_Gr_1_NoThetaInAudio_GlobalThetaInVideo.avi,noTheta,plusVideo,sp07,Ad,Gr,1,0,3,flow/blocks/NoThetaInAudio_GlobalThetaInVideo_A.csv,,,,,,,,,0,0,0,0,0,18,18,4,-0.3476851851851852,0.14027777777777778,1,0,0,5.176873999997042,call2,0.05092592592592592,0.11388888888888889,1,0,0,6.659878499922343,colour2,0.37453703703703706,0.29583333333333334,1,0,0,7.076312000048347,number1,False,True,True,32,2,2019_Nov_18_1600,MA_Theta_Exp,3.0.7,59.98037442566704,
video/Experiment/zh_sp07_Dr_We_2_NoThetaInAudio_GlobalThetaInVideo.avi,noTheta,plusVideo,sp07,Dr,We,2,0,3,flow/blocks/NoThetaInAudio_GlobalThetaInVideo_A.csv,,,,,,,,,0,0,0,0,0,19,19,13,-0.40185185185185185,0.12638888888888888,1,0,0,4.720255000051111,call2,0.009259259259259259,-0.3013888888888889,1,0,0,5.426443499978632,colour4,0.387037037037037,0.08888888888888889,1,0,0,6.086366400006227,number2,True,True,True,32,2,2019_Nov_18_1600,MA_Theta_Exp,3.0.7,59.98037442566704,
video/Experiment/zh_sp01_Ad_Ro_1_NoThetaInAudio_GlobalThetaInVideo.avi,noTheta,plusVideo,sp01,Ad,Ro,1,0,3,flow/blocks/NoThetaInAudio_GlobalThetaInVideo_A.csv,,,,,,,,,0,0,0,0,0,20,20,8,-0.3907407407407407,0.3277777777777778,1,0,0,5.360458399984054,call1,0.03425925925925926,-0.12361111111111112,1,0,0,5.994806000031531,colour3,0.38842592592592595,0.2902777777777778,1,0,0,6.611166100017726,number1,True,True,True,32,2,2019_Nov_18_1600,MA_Theta_Exp,3.0.7,59.98037442566704,
video/Experiment/zh_sp07_Un_We_4_NoThetaInAudio_GlobalThetaInVideo.avi,noTheta,plusVideo,sp07,Un,We,4,0,3,flow/blocks/NoThetaInAudio_GlobalThetaInVideo_A.csv,,,,,,,,,0,0,0,0,0,21,21,15,-0.3449074074074074,0.10277777777777777,1,0,0,4.922166800010018,call2,0.060648148148148145,-0.34444444444444444,1,0,0,6.010036200052127,colour4,0.43148148148148147,-0.3138888888888889,1,0,0,6.522174900048412,number4,False,True,True,32,2,2019_Nov_18_1600,MA_Theta_Exp,3.0.7,59.98037442566704,
video/Experiment/zh_sp07_Ti_Ro_3_NoThetaInAudio_GlobalThetaInVideo.avi,noTheta,plusVideo,sp07,Ti,Ro,3,0,3,flow/blocks/NoThetaInAudio_GlobalThetaInVideo_A.csv,,,,,,,,,0,0,0,0,0,22,22,10,-0.36435185185185187,-0.09027777777777778,1,0,0,4.457056200015359,call3,0.012037037037037037,-0.06944444444444445,1,0,0,4.970802000025287,colour3,0.4162037037037037,-0.06944444444444445,1,0,0,5.540375399985351,number3,True,True,True,32,2,2019_Nov_18_1600,MA_Theta_Exp,3.0.7,59.98037442566704,
video/Experiment/zh_sp07_Dr_Ge_1_NoThetaInAudio_GlobalThetaInVideo.avi,noTheta,plusVideo,sp07,Dr,Ge,1,0,3,flow/blocks/NoThetaInAudio_GlobalThetaInVideo_A.csv,,,,,,,,,0,0,0,0,0,23,23,0,-0.38935185185185184,0.09305555555555556,1,0,0,4.356116999988444,call2,0.003703703703703704,0.33055555555555555,1,0,0,5.017372400034219,colour1,0.38842592592592595,0.32222222222222224,1,0,0,5.6393743000226095,number1,True,True,True,32,2,2019_Nov_18_1600,MA_Theta_Exp,3.0.7,59.98037442566704,
video/Experiment/zh_sp07_Un_Ge_3_NoThetaInAudio_GlobalThetaInVideo.avi,noTheta,plusVideo,sp07,Un,Ge,3,0,3,flow/blocks/NoThetaInAudio_GlobalThetaInVideo_A.csv,,,,,,,,,0,0,0,0,0,24,24,2,-0.4060185185185185,-0.3333333333333333,1,0,0,4.323017099988647,call4,0.014814814814814815,0.30694444444444446,1,0,0,5.275664799963124,colour1,0.42453703703703705,-0.05138888888888889,1,0,0,5.910293199936859,number3,True,True,True,32,2,2019_Nov_18_1600,MA_Theta_Exp,3.0.7,59.98037442566704,
video/Experiment/zh_sp01_Ad_Ro_4_NoThetaInAudio_GlobalThetaInVideo.avi,noTheta,plusVideo,sp01,Ad,Ro,4,0,3,flow/blocks/NoThetaInAudio_GlobalThetaInVideo_A.csv,,,,,,,,,0,0,0,0,0,25,25,11,-0.36712962962962964,0.32916666666666666,1,0,0,6.034526500036009,call1,0.04398148148148148,-0.31666666666666665,1,0,0,7.533456500037573,colour4,0.41064814814814815,-0.34305555555555556,1,0,0,8.486227700021118,number4,True,False,True,32,2,2019_Nov_18_1600,MA_Theta_Exp,3.0.7,59.98037442566704,
video/Experiment/zh_sp01_Ad_We_1_NoThetaInAudio_GlobalThetaInVideo.avi,noTheta,plusVideo,sp01,Ad,We,1,0,3,flow/blocks/NoThetaInAudio_GlobalThetaInVideo_A.csv,,,,,,,,,0,0,0,0,0,26,26,12,-0.412962962962963,0.2916666666666667,1,0,0,5.157729599974118,call1,0.016203703703703703,-0.27361111111111114,1,0,0,5.8904925000388175,colour4,0.4064814814814815,0.2902777777777778,1,0,0,6.558251100010239,number1,True,True,True,32,2,2019_Nov_18_1600,MA_Theta_Exp,3.0.7,59.98037442566704,
video/Experiment/zh_sp01_Dr_Ge_4_NoThetaInAudio_GlobalThetaInVideo.avi,noTheta,plusVideo,sp01,Dr,Ge,4,0,3,flow/blocks/NoThetaInAudio_GlobalThetaInVideo_A.csv,,,,,,,,,0,0,0,0,0,27,27,19,-0.3976851851851852,0.06944444444444445,1,0,0,5.042726699961349,call2,-0.018518518518518517,0.2847222222222222,1,0,0,5.690195300034247,colour1,0.40370370370370373,-0.3347222222222222,1,0,0,6.458383499993943,number4,True,True,True,32,2,2019_Nov_18_1600,MA_Theta_Exp,3.0.7,59.98037442566704,
video/Experiment/zh_sp01_Ti_Ge_4_NoThetaInAudio_GlobalThetaInVideo.avi,noTheta,plusVideo,sp01,Ti,Ge,4,0,3,flow/blocks/NoThetaInAudio_GlobalThetaInVideo_A.csv,,,,,,,,,0,0,0,0,0,28,28,3,-0.35324074074074074,-0.1361111111111111,1,0,0,5.166269000037573,call3,0.000925925925925926,0.35833333333333334,1,0,0,6.35378430003766,colour1,0.37592592592592594,-0.32222222222222224,1,0,0,7.164764099987224,number4,True,True,True,32,2,2019_Nov_18_1600,MA_Theta_Exp,3.0.7,59.98037442566704,
video/Experiment/zh_sp07_Ti_Ge_3_NoThetaInAudio_GlobalThetaInVideo.avi,noTheta,plusVideo,sp07,Ti,Ge,3,0,3,flow/blocks/NoThetaInAudio_GlobalThetaInVideo_A.csv,,,,,,,,,0,0,0,0,0,29,29,18,-0.3337962962962963,-0.12222222222222222,1,0,0,5.664697800064459,call3,-0.000462962962962963,0.11944444444444445,1,0,0,7.40961089998018,colour2,0.387037037037037,-0.1125,1,0,0,7.996686800033785,number3,True,False,True,32,2,2019_Nov_18_1600,MA_Theta_Exp,3.0.7,59.98037442566704,
video/Experiment/zh_sp01_Ti_Ge_1_NoThetaInAudio_GlobalThetaInVideo.avi,noTheta,plusVideo,sp01,Ti,Ge,1,0,3,flow/blocks/NoThetaInAudio_GlobalThetaInVideo_A.csv,,,,,,,,,0,0,0,0,0,30,30,16,-0.3449074074074074,-0.1527777777777778,1,0,0,5.561299000051804,call3,0.04675925925925926,0.2777777777777778,1,0,0,6.383041199995205,colour1,0.37453703703703706,0.3055555555555556,1,0,0,6.949889500043355,number1,True,True,True,32,2,2019_Nov_18_1600,MA_Theta_Exp,3.0.7,59.98037442566704,
video/Experiment/zh_sp07_Ad_We_3_NoThetaInAudio_GlobalThetaInVideo.avi,noTheta,plusVideo,sp07,Ad,We,3,0,3,flow/blocks/NoThetaInAudio_GlobalThetaInVideo_A.csv,,,,,,,,,0,0,0,0,0,31,31,30,-0.36157407407407405,0.2777777777777778,1,0,0,5.1177472999552265,call1,0.017592592592592594,-0.2847222222222222,1,0,0,7.117956700036302,colour4,0.3800925925925926,-0.1527777777777778,1,0,0,7.550721000065096,number3,True,True,True,32,2,2019_Nov_18_1600,MA_Theta_Exp,3.0.7,59.98037442566704,
video/Experiment/zh_sp07_Ti_Ro_1_GlobalTheta_NoVideo.avi,globalTheta,noVideo,sp07,Ti,Ro,1,1,5,flow/blocks/GlobalTheta_NoVideo_B.csv,,,,,,,,,0,1,1,1,0,0,0,8,-0.34074074074074073,-0.08333333333333333,1,0,0,5.206707799923606,call3,0.037037037037037035,-0.1763888888888889,1,0,0,6.5415727000217885,colour3,0.37592592592592594,0.12638888888888888,1,0,0,7.494469800032675,number2,True,True,False,32,2,2019_Nov_18_1600,MA_Theta_Exp,3.0.7,59.98037442566704,
video/Experiment/zh_sp07_Dr_Ge_2_GlobalTheta_NoVideo.avi,globalTheta,noVideo,sp07,Dr,Ge,2,1,5,flow/blocks/GlobalTheta_NoVideo_B.csv,,,,,,,,,0,1,1,1,0,1,1,17,-0.37962962962962965,0.29583333333333334,1,0,0,5.560800199978985,call1,0.01898148148148148,0.2986111111111111,1,0,0,6.09910920006223,colour1,0.3939814814814815,0.29444444444444445,1,0,0,6.5654310999671,number1,False,True,False,32,2,2019_Nov_18_1600,MA_Theta_Exp,3.0.7,59.98037442566704,
video/Experiment/zh_sp07_Dr_We_3_GlobalTheta_NoVideo.avi,globalTheta,noVideo,sp07,Dr,We,3,1,5,flow/blocks/GlobalTheta_NoVideo_B.csv,,,,,,,,,0,1,1,1,0,2,2,14,-0.4212962962962963,0.08888888888888889,1,0,0,4.24335250002332,call2,0.02175925925925926,0.06388888888888888,1,0,0,5.641106299939565,colour2,0.37453703703703706,-0.1361111111111111,1,0,0,6.291923499898985,number3,True,False,True,32,2,2019_Nov_18_1600,MA_Theta_Exp,3.0.7,59.98037442566704,
video/Experiment/zh_sp01_Ad_Ge_4_GlobalTheta_NoVideo.avi,globalTheta,noVideo,sp01,Ad,Ge,4,1,5,flow/blocks/GlobalTheta_NoVideo_B.csv,,,,,,,,,0,1,1,1,0,3,3,3,-0.3907407407407407,0.3055555555555556,1,0,0,4.809565299889073,call1,0.020370370370370372,0.3138888888888889,1,0,0,6.191957400063984,colour1,0.4439814814814815,0.06111111111111111,1,0,0,6.829076000023633,number2,True,True,False,32,2,2019_Nov_18_1600,MA_Theta_Exp,3.0.7,59.98037442566704,
video/Experiment/zh_sp07_Ti_We_3_GlobalTheta_NoVideo.avi,globalTheta,noVideo,sp07,Ti,We,3,1,5,flow/blocks/GlobalTheta_NoVideo_B.csv,,,,,,,,,0,1,1,1,0,4,4,30,-0.4115740740740741,-0.09583333333333334,1,0,0,5.962700600037351,call3,0.003703703703703704,-0.12638888888888888,1,0,0,6.6771743999561295,colour3,0.3314814814814815,-0.10833333333333334,1,0,0,7.187073399894871,number3,True,False,True,32,2,2019_Nov_18_1600,MA_Theta_Exp,3.0.7,59.98037442566704,
video/Experiment/zh_sp07_Ad_Ro_2_GlobalTheta_NoVideo.avi,globalTheta,noVideo,sp07,Ad,Ro,2,1,5,flow/blocks/GlobalTheta_NoVideo_B.csv,,,,,,,,,0,1,1,1,0,5,5,25,-0.3699074074074074,0.2986111111111111,1,0,0,4.242122599971481,call1,0.04398148148148148,-0.3138888888888889,1,0,0,5.514106499962509,colour4,0.3662037037037037,0.09166666666666666,1,0,0,6.128514199983329,number2,True,False,True,32,2,2019_Nov_18_1600,MA_Theta_Exp,3.0.7,59.98037442566704,
video/Experiment/zh_sp07_Ad_Ge_2_GlobalTheta_NoVideo.avi,globalTheta,noVideo,sp07,Ad,Ge,2,1,5,flow/blocks/GlobalTheta_NoVideo_B.csv,,,,,,,,,0,1,1,1,0,6,6,1,-0.3712962962962963,0.3013888888888889,1,0,0,4.4271055000135675,call1,0.024537037037037038,0.08194444444444444,1,0,0,5.3720271999482065,colour2,0.38564814814814813,0.11944444444444445,1,0,0,5.952253600000404,number2,True,False,True,32,2,2019_Nov_18_1600,MA_Theta_Exp,3.0.7,59.98037442566704,
video/Experiment/zh_sp01_Un_Gr_4_GlobalTheta_NoVideo.avi,globalTheta,noVideo,sp01,Un,Gr,4,1,5,flow/blocks/GlobalTheta_NoVideo_B.csv,,,,,,,,,0,1,1,1,0,7,7,23,-0.4212962962962963,-0.3,1,0,0,4.8767242999747396,call4,0.04953703703703704,0.1125,1,0,0,6.026953399996273,colour2,0.4009259259259259,-0.36666666666666664,1,0,0,6.7968011000193655,number4,True,True,True,32,2,2019_Nov_18_1600,MA_Theta_Exp,3.0.7,59.98037442566704,
video/Experiment/zh_sp07_Ti_Gr_1_GlobalTheta_NoVideo.avi,globalTheta,noVideo,sp07,Ti,Gr,1,1,5,flow/blocks/GlobalTheta_NoVideo_B.csv,,,,,,,,,0,1,1,1,0,8,8,4,-0.3726851851851852,-0.09166666666666666,1,0,0,4.1772307000355795,call3,0.00787037037037037,-0.06111111111111111,1,0,0,5.177779600024223,colour3,0.42592592592592593,0.0875,1,0,0,6.110734899993986,number2,True,False,False,32,2,2019_Nov_18_1600,MA_Theta_Exp,3.0.7,59.98037442566704,
video/Experiment/zh_sp07_Dr_Ro_1_GlobalTheta_NoVideo.avi,globalTheta,noVideo,sp07,Dr,Ro,1,1,5,flow/blocks/GlobalTheta_NoVideo_B.csv,,,,,,,,,0,1,1,1,0,9,9,24,-0.38935185185185184,0.09861111111111111,1,0,0,4.360324100009166,call2,-0.011574074074074073,0.1361111111111111,1,0,0,4.779122099978849,colour2,0.36064814814814816,0.31666666666666665,1,0,0,5.24591049994342,number1,True,False,True,32,2,2019_Nov_18_1600,MA_Theta_Exp,3.0.7,59.98037442566704,
video/Experiment/zh_sp07_Un_Ge_4_GlobalTheta_NoVideo.avi,globalTheta,noVideo,sp07,Un,Ge,4,1,5,flow/blocks/GlobalTheta_NoVideo_B.csv,,,,,,,,,0,1,1,1,0,10,10,19,-0.3837962962962963,-0.3375,1,0,0,4.314983400050551,call4,-0.004629629629629629,0.30694444444444446,1,0,0,5.051036500022747,colour1,0.38981481481481484,-0.14027777777777778,1,0,0,5.787327499943785,number3,True,True,False,32,2,2019_Nov_18_1600,MA_Theta_Exp,3.0.7,59.98037442566704,
video/Experiment/zh_sp01_Un_We_2_GlobalTheta_NoVideo.avi,globalTheta,noVideo,sp01,Un,We,2,1,5,flow/blocks/GlobalTheta_NoVideo_B.csv,,,,,,,,,0,1,1,1,0,11,11,13,-0.38101851851851853,-0.2847222222222222,1,0,0,5.341314299963415,call4,0.020370370370370372,-0.06944444444444445,1,0,0,6.425448799971491,colour3,0.36342592592592593,0.12222222222222222,1,0,0,6.9102737999055535,number2,True,False,True,32,2,2019_Nov_18_1600,MA_Theta_Exp,3.0.7,59.98037442566704,
video/Experiment/zh_sp01_Un_Gr_3_GlobalTheta_NoVideo.avi,globalTheta,noVideo,sp01,Un,Gr,3,1,5,flow/blocks/GlobalTheta_NoVideo_B.csv,,,,,,,,,0,1,1,1,0,12,12,6,-0.37407407407407406,-0.07083333333333333,1,0,0,5.531262699980289,call3,-0.04212962962962963,-0.07777777777777778,1,0,0,6.319266099948436,colour3,0.3773148148148148,-0.075,1,0,0,6.920643399935216,number3,False,False,True,32,2,2019_Nov_18_1600,MA_Theta_Exp,3.0.7,59.98037442566704,
video/Experiment/zh_sp01_Ti_We_1_GlobalTheta_NoVideo.avi,globalTheta,noVideo,sp01,Ti,We,1,1,5,flow/blocks/GlobalTheta_NoVideo_B.csv,,,,,,,,,0,1,1,1,0,13,13,12,-0.31851851851851853,-0.10694444444444444,1,0,0,5.558538499986753,call3,0.005092592592592593,0.12916666666666668,1,0,0,6.508027500007302,colour2,0.4300925925925926,0.11666666666666667,1,0,0,6.9970513000153005,number2,True,False,False,32,2,2019_Nov_18_1600,MA_Theta_Exp,3.0.7,59.98037442566704,
video/Experiment/zh_sp01_Ad_Gr_4_GlobalTheta_NoVideo.avi,globalTheta,noVideo,sp01,Ad,Gr,4,1,5,flow/blocks/GlobalTheta_NoVideo_B.csv,,,,,,,,,0,1,1,1,0,14,14,7,-0.3560185185185185,0.3125,1,0,0,5.123438599985093,call1,-0.01574074074074074,0.125,1,0,0,5.7383426000596955,colour2,0.4162037037037037,-0.28888888888888886,1,0,0,6.472366299945861,number4,True,True,True,32,2,2019_Nov_18_1600,MA_Theta_Exp,3.0.7,59.98037442566704,
video/Experiment/zh_sp07_Dr_Ge_3_GlobalTheta_NoVideo.avi,globalTheta,noVideo,sp07,Dr,Ge,3,1,5,flow/blocks/GlobalTheta_NoVideo_B.csv,,,,,,,,,0,1,1,1,0,15,15,2,-0.4212962962962963,0.09583333333333334,1,0,0,4.320159399998374,call2,0.0412037037037037,0.13472222222222222,1,0,0,5.739625599933788,colour2,0.4217592592592593,-0.15138888888888888,1,0,0,6.291205400018953,number3,True,False,True,32,2,2019_Nov_18_1600,MA_Theta_Exp,3.0.7,59.98037442566704,
video/Experiment/zh_sp07_Ti_Ro_4_GlobalTheta_NoVideo.avi,globalTheta,noVideo,sp07,Ti,Ro,4,1,5,flow/blocks/GlobalTheta_NoVideo_B.csv,,,,,,,,,0,1,1,1,0,16,16,11,-0.37824074074074077,0.14583333333333334,1,0,0,5.267705300007947,call2,-0.0060185185185185185,0.13055555555555556,1,0,0,5.799205400049686,colour2,0.41898148148148145,-0.08611111111111111,1,0,0,6.568836799939163,number3,False,False,False,32,2,2019_Nov_18_1600,MA_Theta_Exp,3.0.7,59.98037442566704,
video/Experiment/zh_sp01_Ad_Ge_3_GlobalTheta_NoVideo.avi,globalTheta,noVideo,sp01,Ad,Ge,3,1,5,flow/blocks/GlobalTheta_NoVideo_B.csv,,,,,,,,,0,1,1,1,0,17,17,18,-0.412962962962963,0.31805555555555554,1,0,0,4.7069806000217795,call1,-0.07685185185185185,0.32916666666666666,1,0,0,5.156628499971703,colour1,0.4634259259259259,-0.10138888888888889,1,0,0,6.107484200038016,number3,True,True,True,32,2,2019_Nov_18_1600,MA_Theta_Exp,3.0.7,59.98037442566704,
video/Experiment/zh_sp01_Ad_We_4_GlobalTheta_NoVideo.avi,globalTheta,noVideo,sp01,Ad,We,4,1,5,flow/blocks/GlobalTheta_NoVideo_B.csv,,,,,,,,,0,1,1,1,0,18,18,31,-0.40046296296296297,0.2972222222222222,1,0,0,5.099381200037897,call1,0.04398148148148148,0.14583333333333334,1,0,0,6.329722999944352,colour2,0.4078703703703704,0.13055555555555556,1,0,0,6.82992569997441,number2,True,False,False,32,2,2019_Nov_18_1600,MA_Theta_Exp,3.0.7,59.98037442566704,
video/Experiment/zh_sp01_Un_Ro_4_GlobalTheta_NoVideo.avi,globalTheta,noVideo,sp01,Un,Ro,4,1,5,flow/blocks/GlobalTheta_NoVideo_B.csv,,,,,,,,,0,1,1,1,0,19,19,27,-0.33101851851851855,-0.3194444444444444,1,0,0,4.850168599979952,call4,-0.040740740740740744,-0.11527777777777778,1,0,0,5.318620799924247,colour3,0.38287037037037036,-0.27361111111111114,1,0,0,5.923079600092024,number4,True,True,True,32,2,2019_Nov_18_1600,MA_Theta_Exp,3.0.7,59.98037442566704,
video/Experiment/zh_sp07_Dr_Ro_3_GlobalTheta_NoVideo.avi,globalTheta,noVideo,sp07,Dr,Ro,3,1,5,flow/blocks/GlobalTheta_NoVideo_B.csv,,,,,,,,,0,1,1,1,0,20,20,26,-0.31296296296296294,0.11388888888888889,1,0,0,4.419336999999359,call2,0.03287037037037037,-0.3472222222222222,1,0,0,6.353899199981242,colour4,0.41203703703703703,-0.09722222222222222,1,0,0,6.874887200072408,number3,True,False,True,32,2,2019_Nov_18_1600,MA_Theta_Exp,3.0.7,59.98037442566704,
video/Experiment/zh_sp01_Dr_Gr_1_GlobalTheta_NoVideo.avi,globalTheta,noVideo,sp01,Dr,Gr,1,1,5,flow/blocks/GlobalTheta_NoVideo_B.csv,,,,,,,,,0,1,1,1,0,21,21,20,-0.35462962962962963,-0.10277777777777777,1,0,0,5.294147599954158,call3,0.037037037037037035,-0.325,1,0,0,7.222989399917424,colour4,0.37453703703703706,0.2652777777777778,1,0,0,7.791640799958259,number1,False,False,True,32,2,2019_Nov_18_1600,MA_Theta_Exp,3.0.7,59.98037442566704,
video/Experiment/zh_sp07_Dr_We_4_GlobalTheta_NoVideo.avi,globalTheta,noVideo,sp07,Dr,We,4,1,5,flow/blocks/GlobalTheta_NoVideo_B.csv,,,,,,,,,0,1,1,1,0,22,22,15,-0.42824074074074076,0.09027777777777778,1,0,0,5.12864970008377,call2,-0.01712962962962963,0.09305555555555556,1,0,0,5.647598500014283,colour2,0.38287037037037036,-0.09305555555555556,1,0,0,6.243972799973562,number3,True,False,False,32,2,2019_Nov_18_1600,MA_Theta_Exp,3.0.7,59.98037442566704,
video/Experiment/zh_sp01_Dr_We_1_GlobalTheta_NoVideo.avi,globalTheta,noVideo,sp01,Dr,We,1,1,5,flow/blocks/GlobalTheta_NoVideo_B.csv,,,,,,,,,0,1,1,1,0,23,23,28,-0.37546296296296294,0.30416666666666664,1,0,0,5.026738399988972,call1,0.020370370370370372,-0.10833333333333334,1,0,0,6.274991400074214,colour3,0.39675925925925926,0.33611111111111114,1,0,0,6.870778999989852,number1,False,False,True,32,2,2019_Nov_18_1600,MA_Theta_Exp,3.0.7,59.98037442566704,
video/Experiment/zh_sp01_Ad_Ro_3_GlobalTheta_NoVideo.avi,globalTheta,noVideo,sp01,Ad,Ro,3,1,5,flow/blocks/GlobalTheta_NoVideo_B.csv,,,,,,,,,0,1,1,1,0,24,24,10,-0.3587962962962963,0.3375,1,0,0,4.813972199917771,call1,0.055092592592592596,-0.10555555555555556,1,0,0,5.417907900060527,colour3,0.36898148148148147,-0.08888888888888889,1,0,0,5.9471338000148535,number3,True,True,True,32,2,2019_Nov_18_1600,MA_Theta_Exp,3.0.7,59.98037442566704,
video/Experiment/zh_sp01_Ad_Ge_1_GlobalTheta_NoVideo.avi,globalTheta,noVideo,sp01,Ad,Ge,1,1,5,flow/blocks/GlobalTheta_NoVideo_B.csv,,,,,,,,,0,1,1,1,0,25,25,16,-0.4476851851851852,0.30694444444444446,1,0,0,5.209764400031418,call1,0.027314814814814816,0.31527777777777777,1,0,0,5.66114139999263,colour1,0.41759259259259257,0.3388888888888889,1,0,0,6.051531299948692,number1,True,True,True,32,2,2019_Nov_18_1600,MA_Theta_Exp,3.0.7,59.98037442566704,
video/Experiment/zh_sp07_Un_Gr_2_GlobalTheta_NoVideo.avi,globalTheta,noVideo,sp07,Un,Gr,2,1,5,flow/blocks/GlobalTheta_NoVideo_B.csv,,,,,,,,,0,1,1,1,0,26,26,5,-0.35185185185185186,-0.31527777777777777,1,0,0,4.52701469999738,call4,-0.03935185185185185,-0.2611111111111111,1,0,0,5.26753039995674,colour4,0.33287037037037037,-0.05555555555555555,1,0,0,5.762749299989082,number3,True,False,False,32,2,2019_Nov_18_1600,MA_Theta_Exp,3.0.7,59.98037442566704,
video/Experiment/zh_sp07_Ti_We_2_GlobalTheta_NoVideo.avi,globalTheta,noVideo,sp07,Ti,We,2,1,5,flow/blocks/GlobalTheta_NoVideo_B.csv,,,,,,,,,0,1,1,1,0,27,27,29,-0.4324074074074074,-0.13194444444444445,1,0,0,4.8031450000125915,call3,-0.033796296296296297,0.05138888888888889,1,0,0,5.3868709000526,colour2,0.38425925925925924,0.09166666666666666,1,0,0,6.107311700005084,number2,True,False,True,32,2,2019_Nov_18_1600,MA_Theta_Exp,3.0.7,59.98037442566704,
video/Experiment/zh_sp01_Ti_Gr_2_GlobalTheta_NoVideo.avi,globalTheta,noVideo,sp01,Ti,Gr,2,1,5,flow/blocks/GlobalTheta_NoVideo_B.csv,,,,,,,,,0,1,1,1,0,28,28,21,-0.38101851851851853,-0.2986111111111111,1,0,0,5.5289770000381395,call4,-0.012962962962962963,-0.09027777777777778,1,0,0,6.434433500049636,colour3,0.3814814814814815,0.06388888888888888,1,0,0,7.211534000001848,number2,False,False,True,32,2,2019_Nov_18_1600,MA_Theta_Exp,3.0.7,59.98037442566704,
video/Experiment/zh_sp01_Un_Ro_2_GlobalTheta_NoVideo.avi,globalTheta,noVideo,sp01,Un,Ro,2,1,5,flow/blocks/GlobalTheta_NoVideo_B.csv,,,,,,,,,0,1,1,1,0,29,29,9,-0.3962962962962963,0.09861111111111111,1,0,0,6.455803799908608,call2,0.017592592592592594,0.10277777777777777,1,0,0,7.408396500046365,colour2,0.3773148148148148,0.10833333333333334,1,0,0,7.83990470005665,number2,False,False,True,32,2,2019_Nov_18_1600,MA_Theta_Exp,3.0.7,59.98037442566704,
video/Experiment/zh_sp01_Un_Ge_1_GlobalTheta_NoVideo.avi,globalTheta,noVideo,sp01,Un,Ge,1,1,5,flow/blocks/GlobalTheta_NoVideo_B.csv,,,,,,,,,0,1,1,1,0,30,30,0,-0.3824074074074074,-0.3194444444444444,1,0,0,5.067736000055447,call4,0.00787037037037037,-0.09444444444444444,1,0,0,5.634649500017986,colour3,0.3731481481481482,0.3277777777777778,1,0,0,6.286968900007196,number1,True,False,True,32,2,2019_Nov_18_1600,MA_Theta_Exp,3.0.7,59.98037442566704,
video/Experiment/zh_sp07_Ti_Gr_3_GlobalTheta_NoVideo.avi,globalTheta,noVideo,sp07,Ti,Gr,3,1,5,flow/blocks/GlobalTheta_NoVideo_B.csv,,,,,,,,,0,1,1,1,0,31,31,22,-0.3907407407407407,0.2902777777777778,1,0,0,4.989318300038576,call1,-0.04351851851851852,0.2861111111111111,1,0,0,5.393646199954674,colour1,0.41898148148148145,0.29444444444444445,1,0,0,5.876773099997081,number1,False,False,False,32,2,2019_Nov_18_1600,MA_Theta_Exp,3.0.7,59.98037442566704,
