videoFile,condition,video,speaker,callSign,colour,number,seq,id,block,exp.thisRepN,exp.thisTrialN,exp.thisN,exp.thisIndex,training.thisRepN,training.thisTrialN,training.thisN,training.thisIndex,firstHalf.thisRepN,firstHalf.thisTrialN,firstHalf.thisN,firstHalf.thisIndex,blocksA.thisRepN,blocksA.thisTrialN,blocksA.thisN,blocksA.thisIndex,secondHalf.thisRepN,secondHalf.thisTrialN,secondHalf.thisN,secondHalf.thisIndex,blocksB.thisRepN,blocksB.thisTrialN,blocksB.thisN,blocksB.thisIndex,mouseClickOnCall.x,mouseClickOnCall.y,mouseClickOnCall.leftButton,mouseClickOnCall.midButton,mouseClickOnCall.rightButton,mouseClickOnCall.time,mouseClickOnCall.clicked_name,mouseClickOnColour.x,mouseClickOnColour.y,mouseClickOnColour.leftButton,mouseClickOnColour.midButton,mouseClickOnColour.rightButton,mouseClickOnColour.time,mouseClickOnColour.clicked_name,mouseClickOnNumber.x,mouseClickOnNumber.y,mouseClickOnNumber.leftButton,mouseClickOnNumber.midButton,mouseClickOnNumber.rightButton,mouseClickOnNumber.time,mouseClickOnNumber.clicked_name,callSignCorrect,colourCorrect,numberCorrect,participant,order,date,expName,psychopyVersion,frameRate,
video/Training/zh_sp01_Ad_We_4_NVocInAudio_NoVideo.avi,vocoded,noVideo,sp01,Ad,We,4,,,,,,,,0,0,0,0,,,,,,,,,,,,,,,,,-0.4236111111111111,0.300462962962963,1,0,0,7.004093399999988,call1,-0.02361111111111111,-0.3523148148148148,1,0,0,8.14986799999997,colour4,0.4388888888888889,-0.29398148148148145,1,0,0,8.949724199999991,number4,True,True,True,34,4,2019_Nov_19_1204,MA_Theta_Exp,3.0.7,60.16119590834621,
video/Training/zh_sp07_Ad_Ge_3_NVocInAudio_NoVideo.avi,vocoded,noVideo,sp07,Ad,Ge,3,,,,,,,,0,1,1,1,,,,,,,,,,,,,,,,,-0.425,0.34074074074074073,1,0,0,5.157907000000023,call1,0.034722222222222224,0.287962962962963,1,0,0,6.171933999999965,colour1,0.4222222222222222,-0.08009259259259259,1,0,0,7.142539899999974,number3,True,True,True,34,4,2019_Nov_19_1204,MA_Theta_Exp,3.0.7,60.16119590834621,
video/Training/zh_sp01_Dr_Ro_3_NVocInAudio_GlobalThetaInVideo.avi,vocoded,plusVideo,sp01,Dr,Ro,3,,,,,,,,0,2,2,2,,,,,,,,,,,,,,,,,-0.3888888888888889,0.13796296296296295,1,0,0,5.8023582000000715,call2,0.008333333333333333,-0.08425925925925926,1,0,0,7.20316600000001,colour3,0.4,-0.14675925925925926,1,0,0,7.975482700000043,number3,True,True,True,34,4,2019_Nov_19_1204,MA_Theta_Exp,3.0.7,60.16119590834621,
video/Training/zh_sp07_Dr_Gr_4_NVocInAudio_GlobalThetaInVideo.avi,vocoded,plusVideo,sp07,Dr,Gr,4,,,,,,,,0,3,3,3,,,,,,,,,,,,,,,,,-0.45,0.14629629629629629,1,0,0,5.007240900000056,call2,-0.05138888888888889,0.06851851851851852,1,0,0,5.609972200000016,colour2,0.3402777777777778,-0.31203703703703706,1,0,0,6.366735000000062,number4,True,True,True,34,4,2019_Nov_19_1204,MA_Theta_Exp,3.0.7,60.16119590834621,
video/Training/zh_sp01_Ti_Gr_2_NoThetaInAudio_NoVideo.avi,noTheta,noVideo,sp01,Ti,Gr,2,,,,,,,,0,4,4,4,,,,,,,,,,,,,,,,,-0.39166666666666666,0.07546296296296297,1,0,0,8.616941499999939,call2,0.013888888888888888,-0.1550925925925926,1,0,0,13.117801199999917,colour3,,,,,,,,False,False,NO_ANSW,34,4,2019_Nov_19_1204,MA_Theta_Exp,3.0.7,60.16119590834621,
video/Training/zh_sp07_Ti_Ro_1_NoThetaInAudio_NoVideo.avi,noTheta,noVideo,sp07,Ti,Ro,1,,,,,,,,0,5,5,5,,,,,,,,,,,,,,,,,0.3680555555555556,0.31851851851851853,1,0,0,4.867540200000008,call1,0.0,-0.1162037037037037,1,0,0,7.751041299999997,colour3,0.3875,0.33935185185185185,1,0,0,8.368624899999986,number1,False,True,True,34,4,2019_Nov_19_1204,MA_Theta_Exp,3.0.7,60.16119590834621,
video/Training/zh_sp01_Un_Ge_1_NoThetaInAudio_GlobalThetaInVideo.avi,noTheta,plusVideo,sp01,Un,Ge,1,,,,,,,,0,6,6,6,,,,,,,,,,,,,,,,,-0.36944444444444446,0.33935185185185185,1,0,0,6.331881899999985,call1,0.05555555555555555,0.021296296296296296,1,0,0,7.512110900000039,colour2,0.3972222222222222,0.28935185185185186,1,0,0,8.18151290000003,number1,False,False,True,34,4,2019_Nov_19_1204,MA_Theta_Exp,3.0.7,60.16119590834621,
video/Training/zh_sp07_Un_We_2_NoThetaInAudio_GlobalThetaInVideo.avi,noTheta,plusVideo,sp07,Un,We,2,,,,,,,,0,7,7,7,,,,,,,,,,,,,,,,,-0.37222222222222223,-0.3162037037037037,1,0,0,6.118393099999935,call4,0.05277777777777778,0.31574074074074077,1,0,0,7.597262099999966,colour1,0.4083333333333333,-0.04953703703703704,1,0,0,9.591902699999991,number3,True,False,False,34,4,2019_Nov_19_1204,MA_Theta_Exp,3.0.7,60.16119590834621,
video/Training/zh_sp01_Ad_Ge_1_GlobalTheta_NoVideo.avi,globalTheta,noVideo,sp01,Ad,Ge,1,,,,,,,,0,8,8,8,,,,,,,,,,,,,,,,,-0.3875,-0.08842592592592592,1,0,0,5.4593241000000035,call3,0.0375,0.13518518518518519,1,0,0,6.324392799999941,colour2,0.42083333333333334,0.3296296296296296,1,0,0,6.84921339999994,number1,False,False,True,34,4,2019_Nov_19_1204,MA_Theta_Exp,3.0.7,60.16119590834621,
video/Training/zh_sp07_Ad_Ro_3_GlobalTheta_NoVideo.avi,globalTheta,noVideo,sp07,Ad,Ro,3,,,,,,,,0,9,9,9,,,,,,,,,,,,,,,,,-0.3611111111111111,0.33240740740740743,1,0,0,4.663987499999962,call1,-0.022222222222222223,-0.11898148148148148,1,0,0,6.937447399999996,colour3,0.4,-0.13148148148148148,1,0,0,7.45686610000007,number3,True,True,True,34,4,2019_Nov_19_1204,MA_Theta_Exp,3.0.7,60.16119590834621,
video/Experiment/zh_sp01_Ad_We_1_NVocInAudio_GlobalThetaInVideo.avi,vocoded,plusVideo,sp01,Ad,We,1,0,1,flow/blocks/NVocInAudio_GlobalThetaInVideo_A.csv,,,,,,,,,0,0,0,0,0,0,0,12,,,,,,,,,-0.4513888888888889,0.33240740740740743,1,0,0,5.40550989999997,call1,0.03333333333333333,-0.3453703703703704,1,0,0,6.35216790000004,colour4,0.37222222222222223,0.3365740740740741,1,0,0,7.095065100000056,number1,True,True,True,34,4,2019_Nov_19_1204,MA_Theta_Exp,3.0.7,60.16119590834621,
video/Experiment/zh_sp07_Un_Ge_2_NVocInAudio_GlobalThetaInVideo.avi,vocoded,plusVideo,sp07,Un,Ge,2,0,1,flow/blocks/NVocInAudio_GlobalThetaInVideo_A.csv,,,,,,,,,0,0,0,0,0,1,1,17,,,,,,,,,-0.3861111111111111,-0.3300925925925926,1,0,0,6.244934199999989,call4,0.018055555555555554,0.31851851851851853,1,0,0,8.420929900000033,colour1,0.4125,0.10740740740740741,1,0,0,8.976354700000002,number2,True,True,True,34,4,2019_Nov_19_1204,MA_Theta_Exp,3.0.7,60.16119590834621,
video/Experiment/zh_sp01_Ad_Gr_2_NVocInAudio_GlobalThetaInVideo.avi,vocoded,plusVideo,sp01,Ad,Gr,2,0,1,flow/blocks/NVocInAudio_GlobalThetaInVideo_A.csv,,,,,,,,,0,0,0,0,0,2,2,21,,,,,,,,,-0.425,0.3087962962962963,1,0,0,5.468217200000026,call1,-0.001388888888888889,0.09351851851851851,1,0,0,6.103658100000075,colour2,0.4388888888888889,0.12962962962962962,1,0,0,7.210388200000011,number2,True,True,True,34,4,2019_Nov_19_1204,MA_Theta_Exp,3.0.7,60.16119590834621,
video/Experiment/zh_sp01_Ti_Ro_2_NVocInAudio_GlobalThetaInVideo.avi,vocoded,plusVideo,sp01,Ti,Ro,2,0,1,flow/blocks/NVocInAudio_GlobalThetaInVideo_A.csv,,,,,,,,,0,0,0,0,0,3,3,25,,,,,,,,,-0.44583333333333336,-0.08703703703703704,1,0,0,5.6958773000000065,call3,0.011111111111111112,-0.07037037037037037,1,0,0,6.261615300000017,colour3,0.3875,0.09212962962962963,1,0,0,7.331711799999994,number2,True,True,True,34,4,2019_Nov_19_1204,MA_Theta_Exp,3.0.7,60.16119590834621,
video/Experiment/zh_sp07_Ti_Ge_4_NVocInAudio_GlobalThetaInVideo.avi,vocoded,plusVideo,sp07,Ti,Ge,4,0,1,flow/blocks/NVocInAudio_GlobalThetaInVideo_A.csv,,,,,,,,,0,0,0,0,0,4,4,3,,,,,,,,,-0.4,-0.12453703703703704,1,0,0,4.878122400000052,call3,-0.03194444444444444,0.31157407407407406,1,0,0,5.468319999999949,colour1,0.3861111111111111,-0.32731481481481484,1,0,0,6.195700299999999,number4,True,True,True,34,4,2019_Nov_19_1204,MA_Theta_Exp,3.0.7,60.16119590834621,
video/Experiment/zh_sp07_Un_We_1_NVocInAudio_GlobalThetaInVideo.avi,vocoded,plusVideo,sp07,Un,We,1,0,1,flow/blocks/NVocInAudio_GlobalThetaInVideo_A.csv,,,,,,,,,0,0,0,0,0,5,5,28,,,,,,,,,-0.4222222222222222,-0.33425925925925926,1,0,0,4.633208099999933,call4,0.015277777777777777,-0.25092592592592594,1,0,0,5.796932599999991,colour4,0.38055555555555554,0.3574074074074074,1,0,0,6.652786100000071,number1,True,True,True,34,4,2019_Nov_19_1204,MA_Theta_Exp,3.0.7,60.16119590834621,
video/Experiment/zh_sp07_Un_Ge_3_NVocInAudio_GlobalThetaInVideo.avi,vocoded,plusVideo,sp07,Un,Ge,3,0,1,flow/blocks/NVocInAudio_GlobalThetaInVideo_A.csv,,,,,,,,,0,0,0,0,0,6,6,2,,,,,,,,,-0.4388888888888889,-0.2828703703703704,1,0,0,5.142316499999993,call4,-0.05416666666666667,0.31851851851851853,1,0,0,5.7923852000000124,colour1,0.40694444444444444,-0.11342592592592593,1,0,0,6.458161300000029,number3,True,True,True,34,4,2019_Nov_19_1204,MA_Theta_Exp,3.0.7,60.16119590834621,
video/Experiment/zh_sp01_Un_Gr_1_NVocInAudio_GlobalThetaInVideo.avi,vocoded,plusVideo,sp01,Un,Gr,1,0,1,flow/blocks/NVocInAudio_GlobalThetaInVideo_A.csv,,,,,,,,,0,0,0,0,0,7,7,20,,,,,,,,,-0.3902777777777778,-0.30925925925925923,1,0,0,5.846137900000031,call4,-0.07361111111111111,0.12268518518518519,1,0,0,6.668392900000072,colour2,0.44166666666666665,0.3351851851851852,1,0,0,7.510129299999903,number1,True,True,True,34,4,2019_Nov_19_1204,MA_Theta_Exp,3.0.7,60.16119590834621,
video/Experiment/zh_sp07_Dr_Gr_3_NVocInAudio_GlobalThetaInVideo.avi,vocoded,plusVideo,sp07,Dr,Gr,3,0,1,flow/blocks/NVocInAudio_GlobalThetaInVideo_A.csv,,,,,,,,,0,0,0,0,0,8,8,6,,,,,,,,,-0.42916666666666664,0.09490740740740741,1,0,0,4.933829699999933,call2,0.06527777777777778,0.13935185185185187,1,0,0,5.638401700000031,colour2,0.39861111111111114,-0.11481481481481481,1,0,0,6.251215100000081,number3,True,True,True,34,4,2019_Nov_19_1204,MA_Theta_Exp,3.0.7,60.16119590834621,
video/Experiment/zh_sp01_Dr_Ro_2_NVocInAudio_GlobalThetaInVideo.avi,vocoded,plusVideo,sp01,Dr,Ro,2,0,1,flow/blocks/NVocInAudio_GlobalThetaInVideo_A.csv,,,,,,,,,0,0,0,0,0,9,9,9,,,,,,,,,-0.375,0.10601851851851851,1,0,0,5.164298400000007,call2,-0.034722222222222224,-0.07037037037037037,1,0,0,5.775417000000061,colour3,0.39305555555555555,0.11435185185185186,1,0,0,6.3817573999999695,number2,True,True,True,34,4,2019_Nov_19_1204,MA_Theta_Exp,3.0.7,60.16119590834621,
video/Experiment/zh_sp01_Ti_Ge_2_NVocInAudio_GlobalThetaInVideo.avi,vocoded,plusVideo,sp01,Ti,Ge,2,0,1,flow/blocks/NVocInAudio_GlobalThetaInVideo_A.csv,,,,,,,,,0,0,0,0,0,10,10,1,,,,,,,,,-0.41388888888888886,-0.08842592592592592,1,0,0,5.65864339999996,call3,-0.008333333333333333,0.3101851851851852,1,0,0,6.257856400000037,colour1,0.44166666666666665,0.09351851851851851,1,0,0,6.9697386999999935,number2,True,True,True,34,4,2019_Nov_19_1204,MA_Theta_Exp,3.0.7,60.16119590834621,
video/Experiment/zh_sp07_Ad_We_2_NVocInAudio_GlobalThetaInVideo.avi,vocoded,plusVideo,sp07,Ad,We,2,0,1,flow/blocks/NVocInAudio_GlobalThetaInVideo_A.csv,,,,,,,,,0,0,0,0,0,11,11,29,,,,,,,,,-0.3625,-0.3175925925925926,1,0,0,6.377291599999921,call4,0.011111111111111112,0.30185185185185187,1,0,0,7.551496200000088,colour1,0.4638888888888889,0.06712962962962964,1,0,0,8.137324700000022,number2,False,False,True,34,4,2019_Nov_19_1204,MA_Theta_Exp,3.0.7,60.16119590834621,
video/Experiment/zh_sp07_Dr_Ge_4_NVocInAudio_GlobalThetaInVideo.avi,vocoded,plusVideo,sp07,Dr,Ge,4,0,1,flow/blocks/NVocInAudio_GlobalThetaInVideo_A.csv,,,,,,,,,0,0,0,0,0,12,12,19,,,,,,,,,-0.4013888888888889,0.050462962962962966,1,0,0,4.964513399999987,call2,-0.013888888888888888,0.28935185185185186,1,0,0,5.607223499999918,colour1,0.3902777777777778,-0.3425925925925926,1,0,0,6.3904357999999775,number4,True,True,True,34,4,2019_Nov_19_1204,MA_Theta_Exp,3.0.7,60.16119590834621,
video/Experiment/zh_sp01_Un_We_4_NVocInAudio_GlobalThetaInVideo.avi,vocoded,plusVideo,sp01,Un,We,4,0,1,flow/blocks/NVocInAudio_GlobalThetaInVideo_A.csv,,,,,,,,,0,0,0,0,0,13,13,15,,,,,,,,,-0.4305555555555556,-0.3023148148148148,1,0,0,5.981811999999991,call4,-0.004166666666666667,-0.3148148148148148,1,0,0,7.022563800000057,colour4,0.45,-0.3287037037037037,1,0,0,7.565661999999975,number4,True,True,True,34,4,2019_Nov_19_1204,MA_Theta_Exp,3.0.7,60.16119590834621,
video/Experiment/zh_sp01_Ti_Gr_4_NVocInAudio_GlobalThetaInVideo.avi,vocoded,plusVideo,sp01,Ti,Gr,4,0,1,flow/blocks/NVocInAudio_GlobalThetaInVideo_A.csv,,,,,,,,,0,0,0,0,0,14,14,7,,,,,,,,,-0.39166666666666666,-0.12731481481481483,1,0,0,5.258989499999984,call3,-0.025,0.09768518518518518,1,0,0,5.860959500000035,colour2,0.37916666666666665,-0.3050925925925926,1,0,0,6.4311298999999735,number4,True,True,True,34,4,2019_Nov_19_1204,MA_Theta_Exp,3.0.7,60.16119590834621,
video/Experiment/zh_sp07_Dr_Ro_4_NVocInAudio_GlobalThetaInVideo.avi,vocoded,plusVideo,sp07,Dr,Ro,4,0,1,flow/blocks/NVocInAudio_GlobalThetaInVideo_A.csv,,,,,,,,,0,0,0,0,0,15,15,27,,,,,,,,,-0.3638888888888889,0.10462962962962963,1,0,0,6.339691399999992,call2,0.025,-0.1425925925925926,1,0,0,7.115857900000037,colour3,0.3638888888888889,-0.3106481481481482,1,0,0,7.785954300000071,number4,True,True,True,34,4,2019_Nov_19_1204,MA_Theta_Exp,3.0.7,60.16119590834621,
video/Experiment/zh_sp01_Un_Ro_1_NVocInAudio_GlobalThetaInVideo.avi,vocoded,plusVideo,sp01,Un,Ro,1,0,1,flow/blocks/NVocInAudio_GlobalThetaInVideo_A.csv,,,,,,,,,0,0,0,0,0,16,16,24,,,,,,,,,-0.39166666666666666,-0.3300925925925926,1,0,0,5.410223099999939,call4,-0.019444444444444445,-0.11481481481481481,1,0,0,6.487321199999997,colour3,0.37222222222222223,0.31712962962962965,1,0,0,7.207521500000098,number1,True,True,True,34,4,2019_Nov_19_1204,MA_Theta_Exp,3.0.7,60.16119590834621,
video/Experiment/zh_sp01_Ti_Ro_3_NVocInAudio_GlobalThetaInVideo.avi,vocoded,plusVideo,sp01,Ti,Ro,3,0,1,flow/blocks/NVocInAudio_GlobalThetaInVideo_A.csv,,,,,,,,,0,0,0,0,0,17,17,10,,,,,,,,,-0.44305555555555554,-0.13148148148148148,1,0,0,5.249201900000003,call3,0.013888888888888888,-0.10925925925925926,1,0,0,5.804547899999989,colour3,0.43333333333333335,-0.09259259259259259,1,0,0,6.276838399999974,number3,True,True,True,34,4,2019_Nov_19_1204,MA_Theta_Exp,3.0.7,60.16119590834621,
video/Experiment/zh_sp01_Ad_Gr_3_NVocInAudio_GlobalThetaInVideo.avi,vocoded,plusVideo,sp01,Ad,Gr,3,0,1,flow/blocks/NVocInAudio_GlobalThetaInVideo_A.csv,,,,,,,,,0,0,0,0,0,18,18,22,,,,,,,,,-0.42083333333333334,0.33935185185185185,1,0,0,5.312200999999959,call1,0.02361111111111111,0.11712962962962963,1,0,0,5.81827700000008,colour2,0.4097222222222222,-0.15092592592592594,1,0,0,6.455472999999984,number3,True,True,True,34,4,2019_Nov_19_1204,MA_Theta_Exp,3.0.7,60.16119590834621,
video/Experiment/zh_sp07_Dr_Gr_4_NVocInAudio_GlobalThetaInVideo.avi,vocoded,plusVideo,sp07,Dr,Gr,4,0,1,flow/blocks/NVocInAudio_GlobalThetaInVideo_A.csv,,,,,,,,,0,0,0,0,0,19,19,23,,,,,,,,,-0.3736111111111111,0.07268518518518519,1,0,0,4.57326050000006,call2,0.041666666666666664,0.07407407407407407,1,0,0,5.057422200000019,colour2,0.425,-0.324537037037037,1,0,0,6.603166099999953,number4,True,True,True,34,4,2019_Nov_19_1204,MA_Theta_Exp,3.0.7,60.16119590834621,
video/Experiment/zh_sp01_Un_Ro_3_NVocInAudio_GlobalThetaInVideo.avi,vocoded,plusVideo,sp01,Un,Ro,3,0,1,flow/blocks/NVocInAudio_GlobalThetaInVideo_A.csv,,,,,,,,,0,0,0,0,0,20,20,26,,,,,,,,,-0.45,-0.30092592592592593,1,0,0,5.135783199999992,call4,0.030555555555555555,-0.10648148148148148,1,0,0,5.683116799999993,colour3,0.45416666666666666,-0.09398148148148149,1,0,0,6.129857899999934,number3,True,True,True,34,4,2019_Nov_19_1204,MA_Theta_Exp,3.0.7,60.16119590834621,
video/Experiment/zh_sp01_Dr_We_2_NVocInAudio_GlobalThetaInVideo.avi,vocoded,plusVideo,sp01,Dr,We,2,0,1,flow/blocks/NVocInAudio_GlobalThetaInVideo_A.csv,,,,,,,,,0,0,0,0,0,21,21,13,,,,,,,,,-0.3486111111111111,0.05324074074074074,1,0,0,5.3020808999999645,call2,0.034722222222222224,-0.2564814814814815,1,0,0,6.993955099999994,colour4,0.3736111111111111,0.06851851851851852,1,0,0,8.642485999999963,number2,True,True,True,34,4,2019_Nov_19_1204,MA_Theta_Exp,3.0.7,60.16119590834621,
video/Experiment/zh_sp07_Ad_Gr_1_NVocInAudio_GlobalThetaInVideo.avi,vocoded,plusVideo,sp07,Ad,Gr,1,0,1,flow/blocks/NVocInAudio_GlobalThetaInVideo_A.csv,,,,,,,,,0,0,0,0,0,22,22,4,,,,,,,,,-0.38472222222222224,0.2490740740740741,1,0,0,6.137112799999841,call1,-0.019444444444444445,0.06296296296296296,1,0,0,6.814418699999919,colour2,0.41805555555555557,0.30324074074074076,1,0,0,7.372686799999997,number1,True,True,True,34,4,2019_Nov_19_1204,MA_Theta_Exp,3.0.7,60.16119590834621,
video/Experiment/zh_sp07_Ti_Ge_3_NVocInAudio_GlobalThetaInVideo.avi,vocoded,plusVideo,sp07,Ti,Ge,3,0,1,flow/blocks/NVocInAudio_GlobalThetaInVideo_A.csv,,,,,,,,,0,0,0,0,0,23,23,18,,,,,,,,,-0.3736111111111111,-0.0787037037037037,1,0,0,5.372399900000119,call3,-0.05,0.3226851851851852,1,0,0,6.005622499999845,colour1,0.37083333333333335,-0.12175925925925926,1,0,0,6.590816300000142,number3,True,True,True,34,4,2019_Nov_19_1204,MA_Theta_Exp,3.0.7,60.16119590834621,
video/Experiment/zh_sp07_Dr_Ge_1_NVocInAudio_GlobalThetaInVideo.avi,vocoded,plusVideo,sp07,Dr,Ge,1,0,1,flow/blocks/NVocInAudio_GlobalThetaInVideo_A.csv,,,,,,,,,0,0,0,0,0,24,24,0,,,,,,,,,-0.4375,0.11851851851851852,1,0,0,4.582613900000069,call2,0.015277777777777777,0.2657407407407407,1,0,0,5.547252000000071,colour1,0.40555555555555556,0.33240740740740743,1,0,0,6.062135000000126,number1,True,True,True,34,4,2019_Nov_19_1204,MA_Theta_Exp,3.0.7,60.16119590834621,
video/Experiment/zh_sp01_Ad_We_3_NVocInAudio_GlobalThetaInVideo.avi,vocoded,plusVideo,sp01,Ad,We,3,0,1,flow/blocks/NVocInAudio_GlobalThetaInVideo_A.csv,,,,,,,,,0,0,0,0,0,25,25,30,,,,,,,,,-0.4125,0.3699074074074074,1,0,0,5.1615733000001,call1,0.011111111111111112,-0.3037037037037037,1,0,0,6.613310400000046,colour4,0.40694444444444444,-0.04675925925925926,1,0,0,7.456663500000104,number3,True,True,True,34,4,2019_Nov_19_1204,MA_Theta_Exp,3.0.7,60.16119590834621,
video/Experiment/zh_sp07_Ti_Ge_1_NVocInAudio_GlobalThetaInVideo.avi,vocoded,plusVideo,sp07,Ti,Ge,1,0,1,flow/blocks/NVocInAudio_GlobalThetaInVideo_A.csv,,,,,,,,,0,0,0,0,0,26,26,16,,,,,,,,,-0.44166666666666665,-0.12175925925925926,1,0,0,4.9630853000001025,call3,-0.04722222222222222,0.2671296296296296,1,0,0,5.508745699999963,colour1,0.46944444444444444,0.30185185185185187,1,0,0,6.020012299999962,number1,True,True,True,34,4,2019_Nov_19_1204,MA_Theta_Exp,3.0.7,60.16119590834621,
video/Experiment/zh_sp07_Ad_Ro_4_NVocInAudio_GlobalThetaInVideo.avi,vocoded,plusVideo,sp07,Ad,Ro,4,0,1,flow/blocks/NVocInAudio_GlobalThetaInVideo_A.csv,,,,,,,,,0,0,0,0,0,27,27,11,,,,,,,,,-0.38472222222222224,0.300462962962963,1,0,0,6.083172999999988,call1,0.07083333333333333,-0.1537037037037037,1,0,0,6.719183899999962,colour3,0.43194444444444446,-0.27870370370370373,1,0,0,7.46579870000005,number4,True,True,True,34,4,2019_Nov_19_1204,MA_Theta_Exp,3.0.7,60.16119590834621,
video/Experiment/zh_sp01_Ad_Ro_1_NVocInAudio_GlobalThetaInVideo.avi,vocoded,plusVideo,sp01,Ad,Ro,1,0,1,flow/blocks/NVocInAudio_GlobalThetaInVideo_A.csv,,,,,,,,,0,0,0,0,0,28,28,8,,,,,,,,,-0.43333333333333335,-0.09398148148148149,1,0,0,6.0655850999999075,call3,-0.04722222222222222,-0.15925925925925927,1,0,0,6.628836700000193,colour3,0.4583333333333333,0.2810185185185185,1,0,0,7.229328199999827,number1,False,True,True,34,4,2019_Nov_19_1204,MA_Theta_Exp,3.0.7,60.16119590834621,
video/Experiment/zh_sp01_Un_We_3_NVocInAudio_GlobalThetaInVideo.avi,vocoded,plusVideo,sp01,Un,We,3,0,1,flow/blocks/NVocInAudio_GlobalThetaInVideo_A.csv,,,,,,,,,0,0,0,0,0,29,29,14,,,,,,,,,-0.48194444444444445,-0.33287037037037037,1,0,0,5.276497399999926,call4,0.015277777777777777,-0.3050925925925926,1,0,0,6.139009499999929,colour4,0.3375,-0.1300925925925926,1,0,0,6.9757276000000275,number3,True,True,True,34,4,2019_Nov_19_1204,MA_Theta_Exp,3.0.7,60.16119590834621,
video/Experiment/zh_sp07_Ti_We_4_NVocInAudio_GlobalThetaInVideo.avi,vocoded,plusVideo,sp07,Ti,We,4,0,1,flow/blocks/NVocInAudio_GlobalThetaInVideo_A.csv,,,,,,,,,0,0,0,0,0,30,30,31,,,,,,,,,-0.4722222222222222,-0.08425925925925926,1,0,0,4.857256300000017,call3,-0.04583333333333333,-0.3050925925925926,1,0,0,5.384516099999928,colour4,0.42083333333333334,-0.324537037037037,1,0,0,5.8586987000001045,number4,True,True,True,34,4,2019_Nov_19_1204,MA_Theta_Exp,3.0.7,60.16119590834621,
video/Experiment/zh_sp07_Dr_Gr_2_NVocInAudio_GlobalThetaInVideo.avi,vocoded,plusVideo,sp07,Dr,Gr,2,0,1,flow/blocks/NVocInAudio_GlobalThetaInVideo_A.csv,,,,,,,,,0,0,0,0,0,31,31,5,,,,,,,,,-0.3763888888888889,0.13796296296296295,1,0,0,4.621123000000125,call2,0.0375,0.09490740740740741,1,0,0,5.093489999999974,colour2,0.4,0.11990740740740741,1,0,0,5.6313447,number2,True,True,True,34,4,2019_Nov_19_1204,MA_Theta_Exp,3.0.7,60.16119590834621,
video/Experiment/zh_sp07_Un_Ge_1_NoThetaInAudio_NoVideo.avi,noTheta,noVideo,sp07,Un,Ge,1,1,4,flow/blocks/NoThetaInAudio_NoVideo_B.csv,,,,,,,,,0,1,1,1,0,0,0,0,,,,,,,,,-0.44166666666666665,0.07268518518518519,1,0,0,4.6490349999999125,call2,-0.005555555555555556,0.3101851851851852,1,0,0,5.853765500000009,colour1,0.4236111111111111,0.28379629629629627,1,0,0,6.350329499999816,number1,False,True,True,34,4,2019_Nov_19_1204,MA_Theta_Exp,3.0.7,60.16119590834621,
video/Experiment/zh_sp07_Dr_We_3_NoThetaInAudio_NoVideo.avi,noTheta,noVideo,sp07,Dr,We,3,1,4,flow/blocks/NoThetaInAudio_NoVideo_B.csv,,,,,,,,,0,1,1,1,0,1,1,14,,,,,,,,,-0.3680555555555556,0.362962962962963,1,0,0,6.7656681000000845,call1,-0.020833333333333332,-0.3425925925925926,1,0,0,8.193267200000037,colour4,0.3972222222222222,-0.12037037037037036,1,0,0,8.681921000000102,number3,False,True,True,34,4,2019_Nov_19_1204,MA_Theta_Exp,3.0.7,60.16119590834621,
video/Experiment/zh_sp01_Ad_Ge_3_NoThetaInAudio_NoVideo.avi,noTheta,noVideo,sp01,Ad,Ge,3,1,4,flow/blocks/NoThetaInAudio_NoVideo_B.csv,,,,,,,,,0,1,1,1,0,2,2,18,,,,,,,,,-0.3597222222222222,0.2824074074074074,1,0,0,8.062954700000091,call1,-0.043055555555555555,-0.29814814814814816,1,0,0,9.444799899999907,colour4,0.4166666666666667,-0.1259259259259259,1,0,0,9.931507199999942,number3,True,False,True,34,4,2019_Nov_19_1204,MA_Theta_Exp,3.0.7,60.16119590834621,
video/Experiment/zh_sp07_Ti_Gr_2_NoThetaInAudio_NoVideo.avi,noTheta,noVideo,sp07,Ti,Gr,2,1,4,flow/blocks/NoThetaInAudio_NoVideo_B.csv,,,,,,,,,0,1,1,1,0,3,3,21,,,,,,,,,-0.4597222222222222,-0.1300925925925926,1,0,0,5.0414669000001595,call3,0.015277777777777777,0.0962962962962963,1,0,0,5.791168199999902,colour2,0.43472222222222223,0.36157407407407405,1,0,0,6.312640399999964,number1,True,True,False,34,4,2019_Nov_19_1204,MA_Theta_Exp,3.0.7,60.16119590834621,
video/Experiment/zh_sp07_Un_Ro_2_NoThetaInAudio_NoVideo.avi,noTheta,noVideo,sp07,Un,Ro,2,1,4,flow/blocks/NoThetaInAudio_NoVideo_B.csv,,,,,,,,,0,1,1,1,0,4,4,9,,,,,,,,,-0.36666666666666664,-0.3037037037037037,1,0,0,5.75558860000001,call4,-0.05138888888888889,-0.31203703703703706,1,0,0,6.815084100000149,colour4,0.4513888888888889,0.3074074074074074,1,0,0,7.527943699999923,number1,True,False,False,34,4,2019_Nov_19_1204,MA_Theta_Exp,3.0.7,60.16119590834621,
video/Experiment/zh_sp07_Un_Ro_4_NoThetaInAudio_NoVideo.avi,noTheta,noVideo,sp07,Un,Ro,4,1,4,flow/blocks/NoThetaInAudio_NoVideo_B.csv,,,,,,,,,0,1,1,1,0,5,5,27,,,,,,,,,-0.40555555555555556,-0.3050925925925926,1,0,0,5.563154299999951,call4,-0.018055555555555554,-0.3162037037037037,1,0,0,6.092949099999942,colour4,0.4486111111111111,-0.32314814814814813,1,0,0,6.594363399999793,number4,True,False,True,34,4,2019_Nov_19_1204,MA_Theta_Exp,3.0.7,60.16119590834621,
video/Experiment/zh_sp01_Ti_Ro_1_NoThetaInAudio_NoVideo.avi,noTheta,noVideo,sp01,Ti,Ro,1,1,4,flow/blocks/NoThetaInAudio_NoVideo_B.csv,,,,,,,,,0,1,1,1,0,6,6,8,,,,,,,,,-0.4097222222222222,-0.2912037037037037,1,0,0,5.738642199999958,call4,0.004166666666666667,-0.1287037037037037,1,0,0,6.816791000000194,colour3,0.39861111111111114,0.2935185185185185,1,0,0,7.566516699999966,number1,False,True,True,34,4,2019_Nov_19_1204,MA_Theta_Exp,3.0.7,60.16119590834621,
video/Experiment/zh_sp07_Dr_Ro_3_NoThetaInAudio_NoVideo.avi,noTheta,noVideo,sp07,Dr,Ro,3,1,4,flow/blocks/NoThetaInAudio_NoVideo_B.csv,,,,,,,,,0,1,1,1,0,7,7,26,,,,,,,,,-0.4041666666666667,-0.3384259259259259,1,0,0,6.034404900000027,call4,-0.043055555555555555,-0.17731481481481481,1,0,0,7.512973699999975,colour3,0.3888888888888889,-0.1425925925925926,1,0,0,7.975009200000159,number3,False,True,True,34,4,2019_Nov_19_1204,MA_Theta_Exp,3.0.7,60.16119590834621,
video/Experiment/zh_sp01_Un_Gr_4_NoThetaInAudio_NoVideo.avi,noTheta,noVideo,sp01,Un,Gr,4,1,4,flow/blocks/NoThetaInAudio_NoVideo_B.csv,,,,,,,,,0,1,1,1,0,8,8,23,,,,,,,,,-0.4263888888888889,-0.2967592592592593,1,0,0,5.272032699999954,call4,0.02361111111111111,0.07824074074074074,1,0,0,6.126452599999993,colour2,0.4263888888888889,-0.32037037037037036,1,0,0,7.007642899999837,number4,True,True,True,34,4,2019_Nov_19_1204,MA_Theta_Exp,3.0.7,60.16119590834621,
video/Experiment/zh_sp01_Ti_We_1_NoThetaInAudio_NoVideo.avi,noTheta,noVideo,sp01,Ti,We,1,1,4,flow/blocks/NoThetaInAudio_NoVideo_B.csv,,,,,,,,,0,1,1,1,0,9,9,12,,,,,,,,,-0.3972222222222222,-0.07314814814814814,1,0,0,5.2542191,call3,-0.05416666666666667,-0.28564814814814815,1,0,0,6.065149099999871,colour4,0.3819444444444444,0.31851851851851853,1,0,0,6.7993770999999015,number1,True,True,True,34,4,2019_Nov_19_1204,MA_Theta_Exp,3.0.7,60.16119590834621,
video/Experiment/zh_sp01_Dr_Gr_1_NoThetaInAudio_NoVideo.avi,noTheta,noVideo,sp01,Dr,Gr,1,1,4,flow/blocks/NoThetaInAudio_NoVideo_B.csv,,,,,,,,,0,1,1,1,0,10,10,20,,,,,,,,,-0.45555555555555555,-0.09537037037037037,1,0,0,7.029147899999998,call3,-0.08888888888888889,-0.2773148148148148,1,0,0,8.184473399999888,colour4,0.36944444444444446,0.3226851851851852,1,0,0,9.132173200000125,number1,False,False,True,34,4,2019_Nov_19_1204,MA_Theta_Exp,3.0.7,60.16119590834621,
video/Experiment/zh_sp07_Ti_Gr_1_NoThetaInAudio_NoVideo.avi,noTheta,noVideo,sp07,Ti,Gr,1,1,4,flow/blocks/NoThetaInAudio_NoVideo_B.csv,,,,,,,,,0,1,1,1,0,11,11,4,,,,,,,,,-0.39166666666666666,-0.09814814814814815,1,0,0,4.311354599999959,call3,0.0125,0.10185185185185185,1,0,0,4.786875799999962,colour2,0.4236111111111111,0.2824074074074074,1,0,0,5.294593999999961,number1,True,True,True,34,4,2019_Nov_19_1204,MA_Theta_Exp,3.0.7,60.16119590834621,
video/Experiment/zh_sp01_Un_Gr_2_NoThetaInAudio_NoVideo.avi,noTheta,noVideo,sp01,Un,Gr,2,1,4,flow/blocks/NoThetaInAudio_NoVideo_B.csv,,,,,,,,,0,1,1,1,0,12,12,5,,,,,,,,,-0.3763888888888889,-0.337037037037037,1,0,0,5.647163399999954,call4,-0.029166666666666667,0.04351851851851852,1,0,0,6.3120171999999,colour2,0.39861111111111114,0.0962962962962963,1,0,0,8.30791320000003,number2,True,True,True,34,4,2019_Nov_19_1204,MA_Theta_Exp,3.0.7,60.16119590834621,
video/Experiment/zh_sp01_Ad_Ge_1_NoThetaInAudio_NoVideo.avi,noTheta,noVideo,sp01,Ad,Ge,1,1,4,flow/blocks/NoThetaInAudio_NoVideo_B.csv,,,,,,,,,0,1,1,1,0,13,13,16,,,,,,,,,-0.4152777777777778,0.29074074074074074,1,0,0,6.3127331000000595,call1,0.05555555555555555,-0.2675925925925926,1,0,0,7.537870000000112,colour4,0.41388888888888886,0.29768518518518516,1,0,0,8.158561200000122,number1,True,False,True,34,4,2019_Nov_19_1204,MA_Theta_Exp,3.0.7,60.16119590834621,
video/Experiment/zh_sp07_Un_Gr_3_NoThetaInAudio_NoVideo.avi,noTheta,noVideo,sp07,Un,Gr,3,1,4,flow/blocks/NoThetaInAudio_NoVideo_B.csv,,,,,,,,,0,1,1,1,0,14,14,6,,,,,,,,,-0.33611111111111114,-0.3175925925925926,1,0,0,5.01672520000011,call4,-0.022222222222222223,0.16157407407407406,1,0,0,5.691135999999915,colour2,0.425,-0.1037037037037037,1,0,0,6.3990941999998086,number3,True,True,True,34,4,2019_Nov_19_1204,MA_Theta_Exp,3.0.7,60.16119590834621,
video/Experiment/zh_sp01_Dr_Ro_1_NoThetaInAudio_NoVideo.avi,noTheta,noVideo,sp01,Dr,Ro,1,1,4,flow/blocks/NoThetaInAudio_NoVideo_B.csv,,,,,,,,,0,1,1,1,0,15,15,24,,,,,,,,,-0.40694444444444444,-0.12037037037037036,1,0,0,5.090255300000081,call3,-0.06388888888888888,-0.13564814814814816,1,0,0,5.765463999999838,colour3,0.39305555555555555,0.31712962962962965,1,0,0,9.147175700000162,number1,False,True,True,34,4,2019_Nov_19_1204,MA_Theta_Exp,3.0.7,60.16119590834621,
video/Experiment/zh_sp07_Ti_We_2_NoThetaInAudio_NoVideo.avi,noTheta,noVideo,sp07,Ti,We,2,1,4,flow/blocks/NoThetaInAudio_NoVideo_B.csv,,,,,,,,,0,1,1,1,0,16,16,29,,,,,,,,,-0.325,-0.11203703703703703,1,0,0,4.635569399999895,call3,-0.03194444444444444,-0.11203703703703703,1,0,0,5.04365759999996,colour3,0.38055555555555554,0.1587962962962963,1,0,0,5.562688799999933,number2,True,False,True,34,4,2019_Nov_19_1204,MA_Theta_Exp,3.0.7,60.16119590834621,
video/Experiment/zh_sp01_Dr_Ge_3_NoThetaInAudio_NoVideo.avi,noTheta,noVideo,sp01,Dr,Ge,3,1,4,flow/blocks/NoThetaInAudio_NoVideo_B.csv,,,,,,,,,0,1,1,1,0,17,17,2,,,,,,,,,-0.37083333333333335,-0.30092592592592593,1,0,0,5.1859178000001975,call4,-0.015277777777777777,0.29768518518518516,1,0,0,5.905298899999934,colour1,0.4041666666666667,-0.1300925925925926,1,0,0,6.717861500000026,number3,False,True,True,34,4,2019_Nov_19_1204,MA_Theta_Exp,3.0.7,60.16119590834621,
video/Experiment/zh_sp01_Un_Ge_4_NoThetaInAudio_NoVideo.avi,noTheta,noVideo,sp01,Un,Ge,4,1,4,flow/blocks/NoThetaInAudio_NoVideo_B.csv,,,,,,,,,0,1,1,1,0,18,18,19,,,,,,,,,-0.4111111111111111,-0.30787037037037035,1,0,0,4.853627099999812,call4,0.07361111111111111,0.30185185185185187,1,0,0,5.989173800000117,colour1,0.3375,-0.2884259259259259,1,0,0,6.618581499999891,number4,True,True,True,34,4,2019_Nov_19_1204,MA_Theta_Exp,3.0.7,60.16119590834621,
video/Experiment/zh_sp07_Ti_We_3_NoThetaInAudio_NoVideo.avi,noTheta,noVideo,sp07,Ti,We,3,1,4,flow/blocks/NoThetaInAudio_NoVideo_B.csv,,,,,,,,,0,1,1,1,0,19,19,30,,,,,,,,,-0.39166666666666666,-0.09814814814814815,1,0,0,4.6836293999999725,call3,0.018055555555555554,-0.29814814814814816,1,0,0,5.371486000000004,colour4,0.4236111111111111,-0.1037037037037037,1,0,0,5.8731032999999115,number3,True,True,True,34,4,2019_Nov_19_1204,MA_Theta_Exp,3.0.7,60.16119590834621,
video/Experiment/zh_sp07_Ad_Gr_4_NoThetaInAudio_NoVideo.avi,noTheta,noVideo,sp07,Ad,Gr,4,1,4,flow/blocks/NoThetaInAudio_NoVideo_B.csv,,,,,,,,,0,1,1,1,0,20,20,7,,,,,,,,,-0.4388888888888889,-0.337037037037037,1,0,0,4.518320700000004,call4,0.004166666666666667,0.11157407407407408,1,0,0,5.0790476000001945,colour2,0.39861111111111114,-0.3314814814814815,1,0,0,5.748489800000016,number4,False,True,True,34,4,2019_Nov_19_1204,MA_Theta_Exp,3.0.7,60.16119590834621,
video/Experiment/zh_sp07_Ti_Ro_4_NoThetaInAudio_NoVideo.avi,noTheta,noVideo,sp07,Ti,Ro,4,1,4,flow/blocks/NoThetaInAudio_NoVideo_B.csv,,,,,,,,,0,1,1,1,0,21,21,11,,,,,,,,,-0.4,-0.12314814814814815,1,0,0,4.540265599999884,call3,0.020833333333333332,-0.3023148148148148,1,0,0,6.194394600000123,colour4,0.4125,-0.2953703703703704,1,0,0,6.750909299999876,number4,True,False,True,34,4,2019_Nov_19_1204,MA_Theta_Exp,3.0.7,60.16119590834621,
video/Experiment/zh_sp07_Ad_Ge_4_NoThetaInAudio_NoVideo.avi,noTheta,noVideo,sp07,Ad,Ge,4,1,4,flow/blocks/NoThetaInAudio_NoVideo_B.csv,,,,,,,,,0,1,1,1,0,22,22,3,,,,,,,,,-0.4222222222222222,0.35462962962962963,1,0,0,4.474644300000136,call1,-0.0125,0.35185185185185186,1,0,0,5.387351699999954,colour1,0.4305555555555556,-0.2814814814814815,1,0,0,6.086077200000091,number4,True,True,True,34,4,2019_Nov_19_1204,MA_Theta_Exp,3.0.7,60.16119590834621,
video/Experiment/zh_sp01_Ad_We_4_NoThetaInAudio_NoVideo.avi,noTheta,noVideo,sp01,Ad,We,4,1,4,flow/blocks/NoThetaInAudio_NoVideo_B.csv,,,,,,,,,0,1,1,1,0,23,23,31,,,,,,,,,-0.40694444444444444,0.300462962962963,1,0,0,5.0819218999999975,call1,0.0,-0.29259259259259257,1,0,0,5.757643099999996,colour4,0.44166666666666665,-0.3148148148148148,1,0,0,6.24875320000001,number4,True,True,True,34,4,2019_Nov_19_1204,MA_Theta_Exp,3.0.7,60.16119590834621,
video/Experiment/zh_sp07_Dr_We_4_NoThetaInAudio_NoVideo.avi,noTheta,noVideo,sp07,Dr,We,4,1,4,flow/blocks/NoThetaInAudio_NoVideo_B.csv,,,,,,,,,0,1,1,1,0,24,24,15,,,,,,,,,-0.35833333333333334,0.06296296296296296,1,0,0,4.643799400000034,call2,0.059722222222222225,-0.337037037037037,1,0,0,5.428031099999998,colour4,0.3861111111111111,-0.30787037037037035,1,0,0,5.875770099999954,number4,True,True,True,34,4,2019_Nov_19_1204,MA_Theta_Exp,3.0.7,60.16119590834621,
video/Experiment/zh_sp01_Ad_Ge_2_NoThetaInAudio_NoVideo.avi,noTheta,noVideo,sp01,Ad,Ge,2,1,4,flow/blocks/NoThetaInAudio_NoVideo_B.csv,,,,,,,,,0,1,1,1,0,25,25,1,,,,,,,,,-0.3680555555555556,0.28379629629629627,1,0,0,5.04573809999988,call1,0.001388888888888889,0.33101851851851855,1,0,0,5.467839600000161,colour1,0.49166666666666664,0.11296296296296296,1,0,0,5.9761343000000124,number2,True,True,True,34,4,2019_Nov_19_1204,MA_Theta_Exp,3.0.7,60.16119590834621,
video/Experiment/zh_sp01_Dr_Ge_2_NoThetaInAudio_NoVideo.avi,noTheta,noVideo,sp01,Dr,Ge,2,1,4,flow/blocks/NoThetaInAudio_NoVideo_B.csv,,,,,,,,,0,1,1,1,0,26,26,17,,,,,,,,,-0.42916666666666664,0.07407407407407407,1,0,0,5.09378229999993,call2,-0.025,0.3074074074074074,1,0,0,5.639362000000119,colour1,0.39444444444444443,0.12407407407407407,1,0,0,6.191102000000001,number2,True,True,True,34,4,2019_Nov_19_1204,MA_Theta_Exp,3.0.7,60.16119590834621,
video/Experiment/zh_sp01_Un_We_2_NoThetaInAudio_NoVideo.avi,noTheta,noVideo,sp01,Un,We,2,1,4,flow/blocks/NoThetaInAudio_NoVideo_B.csv,,,,,,,,,0,1,1,1,0,27,27,13,,,,,,,,,-0.4152777777777778,-0.324537037037037,1,0,0,5.546541699999807,call4,0.03888888888888889,-0.2828703703703704,1,0,0,6.879696299999978,colour4,0.45694444444444443,0.11157407407407408,1,0,0,7.762105600000041,number2,True,True,True,34,4,2019_Nov_19_1204,MA_Theta_Exp,3.0.7,60.16119590834621,
video/Experiment/zh_sp07_Ad_Ro_3_NoThetaInAudio_NoVideo.avi,noTheta,noVideo,sp07,Ad,Ro,3,1,4,flow/blocks/NoThetaInAudio_NoVideo_B.csv,,,,,,,,,0,1,1,1,0,28,28,10,,,,,,,,,-0.4388888888888889,-0.11342592592592593,1,0,0,5.841260499999862,call3,-0.3861111111111111,0.07268518518518519,1,0,0,6.548290199999883,colour1,0.4236111111111111,-0.1287037037037037,1,0,0,8.863160600000128,number3,False,False,True,34,4,2019_Nov_19_1204,MA_Theta_Exp,3.0.7,60.16119590834621,
video/Experiment/zh_sp01_Ti_Gr_3_NoThetaInAudio_NoVideo.avi,noTheta,noVideo,sp01,Ti,Gr,3,1,4,flow/blocks/NoThetaInAudio_NoVideo_B.csv,,,,,,,,,0,1,1,1,0,29,29,22,,,,,,,,,-0.425,-0.09953703703703703,1,0,0,5.355153900000005,call3,0.008333333333333333,0.12268518518518519,1,0,0,5.9109269000000495,colour2,0.3736111111111111,-0.1300925925925926,1,0,0,6.466035099999999,number3,True,True,True,34,4,2019_Nov_19_1204,MA_Theta_Exp,3.0.7,60.16119590834621,
video/Experiment/zh_sp07_Ad_Ro_2_NoThetaInAudio_NoVideo.avi,noTheta,noVideo,sp07,Ad,Ro,2,1,4,flow/blocks/NoThetaInAudio_NoVideo_B.csv,,,,,,,,,0,1,1,1,0,30,30,25,,,,,,,,,-0.4166666666666667,0.36712962962962964,1,0,0,4.732672099999945,call1,-0.03611111111111111,0.2935185185185185,1,0,0,5.327402500000062,colour1,0.43333333333333335,0.12129629629629629,1,0,0,5.966051600000128,number2,True,False,True,34,4,2019_Nov_19_1204,MA_Theta_Exp,3.0.7,60.16119590834621,
video/Experiment/zh_sp01_Dr_We_1_NoThetaInAudio_NoVideo.avi,noTheta,noVideo,sp01,Dr,We,1,1,4,flow/blocks/NoThetaInAudio_NoVideo_B.csv,,,,,,,,,0,1,1,1,0,31,31,28,,,,,,,,,-0.42777777777777776,-0.3162037037037037,1,0,0,5.35210230000007,call4,-0.059722222222222225,-0.3523148148148148,1,0,0,5.829570400000193,colour4,0.4152777777777778,0.31157407407407406,1,0,0,6.520978100000093,number1,False,True,True,34,4,2019_Nov_19_1204,MA_Theta_Exp,3.0.7,60.16119590834621,
video/Experiment/zh_sp07_Dr_Ro_4_NVocInAudio_NoVideo.avi,vocoded,noVideo,sp07,Dr,Ro,4,2,2,flow/blocks/NVocInAudio_NoVideo_A.csv,,,,,,,,,0,2,2,2,0,0,0,27,,,,,,,,,-0.3861111111111111,0.16435185185185186,1,0,0,5.266249300000027,call2,0.016666666666666666,-0.12175925925925926,1,0,0,5.847441500000059,colour3,0.43333333333333335,-0.34675925925925927,1,0,0,6.4999987999999576,number4,True,True,True,34,4,2019_Nov_19_1204,MA_Theta_Exp,3.0.7,60.16119590834621,
video/Experiment/zh_sp07_Un_Ro_1_NVocInAudio_NoVideo.avi,vocoded,noVideo,sp07,Un,Ro,1,2,2,flow/blocks/NVocInAudio_NoVideo_A.csv,,,,,,,,,0,2,2,2,0,1,1,24,,,,,,,,,-0.39861111111111114,-0.32175925925925924,1,0,0,5.109012399999983,call4,0.020833333333333332,-0.17037037037037037,1,0,0,5.931198399999857,colour3,0.4125,0.29074074074074074,1,0,0,6.497603799999979,number1,True,True,True,34,4,2019_Nov_19_1204,MA_Theta_Exp,3.0.7,60.16119590834621,
video/Experiment/zh_sp07_Ti_Ro_2_NVocInAudio_NoVideo.avi,vocoded,noVideo,sp07,Ti,Ro,2,2,2,flow/blocks/NVocInAudio_NoVideo_A.csv,,,,,,,,,0,2,2,2,0,2,2,25,,,,,,,,,-0.4444444444444444,-0.1162037037037037,1,0,0,4.663598099999945,call3,-0.05416666666666667,-0.14537037037037037,1,0,0,5.075812300000052,colour3,0.41944444444444445,0.09212962962962963,1,0,0,5.585144599999921,number2,True,True,True,34,4,2019_Nov_19_1204,MA_Theta_Exp,3.0.7,60.16119590834621,
video/Experiment/zh_sp07_Un_Ge_3_NVocInAudio_NoVideo.avi,vocoded,noVideo,sp07,Un,Ge,3,2,2,flow/blocks/NVocInAudio_NoVideo_A.csv,,,,,,,,,0,2,2,2,0,3,3,2,,,,,,,,,-0.39444444444444443,-0.3148148148148148,1,0,0,5.01214949999985,call4,0.030555555555555555,0.30324074074074076,1,0,0,5.778455399999984,colour1,0.35555555555555557,-0.09537037037037037,1,0,0,6.3022218999999495,number3,True,True,True,34,4,2019_Nov_19_1204,MA_Theta_Exp,3.0.7,60.16119590834621,
video/Experiment/zh_sp01_Dr_Ge_4_NVocInAudio_NoVideo.avi,vocoded,noVideo,sp01,Dr,Ge,4,2,2,flow/blocks/NVocInAudio_NoVideo_A.csv,,,,,,,,,0,2,2,2,0,4,4,19,,,,,,,,,-0.3763888888888889,0.08796296296296297,1,0,0,6.090694600000006,call2,0.022222222222222223,0.29074074074074074,1,0,0,6.996797599999809,colour1,0.36527777777777776,-0.27870370370370373,1,0,0,7.703001399999948,number4,True,True,True,34,4,2019_Nov_19_1204,MA_Theta_Exp,3.0.7,60.16119590834621,
video/Experiment/zh_sp01_Ad_Gr_2_NVocInAudio_NoVideo.avi,vocoded,noVideo,sp01,Ad,Gr,2,2,2,flow/blocks/NVocInAudio_NoVideo_A.csv,,,,,,,,,0,2,2,2,0,5,5,21,,,,,,,,,-0.3736111111111111,0.35324074074074074,1,0,0,5.137666599999875,call1,0.0125,0.08935185185185185,1,0,0,5.601497899999913,colour2,0.43472222222222223,0.09907407407407408,1,0,0,6.383804600000076,number2,True,True,True,34,4,2019_Nov_19_1204,MA_Theta_Exp,3.0.7,60.16119590834621,
video/Experiment/zh_sp07_Dr_We_2_NVocInAudio_NoVideo.avi,vocoded,noVideo,sp07,Dr,We,2,2,2,flow/blocks/NVocInAudio_NoVideo_A.csv,,,,,,,,,0,2,2,2,0,6,6,13,,,,,,,,,-0.4388888888888889,0.0824074074074074,1,0,0,5.143386499999906,call2,0.011111111111111112,-0.3175925925925926,0,0,1,5.996867000000066,colour4,0.0125,-0.32731481481481484,1,0,1,6.075961700000107,number2,True,True,True,34,4,2019_Nov_19_1204,MA_Theta_Exp,3.0.7,60.16119590834621,
video/Experiment/zh_sp01_Un_Ge_2_NVocInAudio_NoVideo.avi,vocoded,noVideo,sp01,Un,Ge,2,2,2,flow/blocks/NVocInAudio_NoVideo_A.csv,,,,,,,,,0,2,2,2,0,7,7,17,,,,,,,,,-0.3472222222222222,-0.30092592592592593,1,0,0,5.241069500000094,call4,0.03888888888888889,0.30462962962962964,1,0,0,6.03537039999992,colour1,0.4041666666666667,0.07685185185185185,1,0,0,6.511219100000062,number2,True,True,True,34,4,2019_Nov_19_1204,MA_Theta_Exp,3.0.7,60.16119590834621,
video/Experiment/zh_sp01_Ad_Gr_1_NVocInAudio_NoVideo.avi,vocoded,noVideo,sp01,Ad,Gr,1,2,2,flow/blocks/NVocInAudio_NoVideo_A.csv,,,,,,,,,0,2,2,2,0,8,8,4,,,,,,,,,-0.41944444444444445,0.27685185185185185,1,0,0,5.305730199999971,call1,0.03194444444444444,0.047685185185185185,1,0,0,5.872546300000067,colour2,0.4111111111111111,0.25462962962962965,1,0,0,6.3754003999999895,number1,True,True,True,34,4,2019_Nov_19_1204,MA_Theta_Exp,3.0.7,60.16119590834621,
video/Experiment/zh_sp07_Un_Gr_1_NVocInAudio_NoVideo.avi,vocoded,noVideo,sp07,Un,Gr,1,2,2,flow/blocks/NVocInAudio_NoVideo_A.csv,,,,,,,,,0,2,2,2,0,9,9,20,,,,,,,,,-0.37777777777777777,-0.32731481481481484,1,0,0,4.906897800000024,call4,0.016666666666666666,0.1337962962962963,1,0,0,5.454037400000061,colour2,0.44027777777777777,0.29212962962962963,1,0,0,5.937668000000031,number1,True,True,True,34,4,2019_Nov_19_1204,MA_Theta_Exp,3.0.7,60.16119590834621,
video/Experiment/zh_sp01_Dr_Gr_2_NVocInAudio_NoVideo.avi,vocoded,noVideo,sp01,Dr,Gr,2,2,2,flow/blocks/NVocInAudio_NoVideo_A.csv,,,,,,,,,0,2,2,2,0,10,10,5,,,,,,,,,-0.3972222222222222,0.11851851851851852,1,0,0,6.048067299999957,call2,-0.03333333333333333,0.1337962962962963,1,0,0,6.506995699999834,colour2,0.38472222222222224,0.12407407407407407,1,0,0,7.03678849999983,number2,True,True,True,34,4,2019_Nov_19_1204,MA_Theta_Exp,3.0.7,60.16119590834621,
video/Experiment/zh_sp07_Ad_Ro_1_NVocInAudio_NoVideo.avi,vocoded,noVideo,sp07,Ad,Ro,1,2,2,flow/blocks/NVocInAudio_NoVideo_A.csv,,,,,,,,,0,2,2,2,0,11,11,8,,,,,,,,,-0.40555555555555556,0.31851851851851853,1,0,0,4.480358399999886,call1,-0.025,-0.09537037037037037,1,0,0,5.050117900000032,colour3,0.4152777777777778,0.29212962962962963,1,0,0,5.609368399999994,number1,True,True,True,34,4,2019_Nov_19_1204,MA_Theta_Exp,3.0.7,60.16119590834621,
video/Experiment/zh_sp01_Dr_Ro_2_NVocInAudio_NoVideo.avi,vocoded,noVideo,sp01,Dr,Ro,2,2,2,flow/blocks/NVocInAudio_NoVideo_A.csv,,,,,,,,,0,2,2,2,0,12,12,9,,,,,,,,,-0.42777777777777776,0.11435185185185186,1,0,0,5.442712000000029,call2,0.030555555555555555,-0.1259259259259259,1,0,0,5.962748699999793,colour3,0.4152777777777778,0.07546296296296297,1,0,0,6.459779499999968,number2,True,True,True,34,4,2019_Nov_19_1204,MA_Theta_Exp,3.0.7,60.16119590834621,
video/Experiment/zh_sp01_Ti_We_4_NVocInAudio_NoVideo.avi,vocoded,noVideo,sp01,Ti,We,4,2,2,flow/blocks/NVocInAudio_NoVideo_A.csv,,,,,,,,,0,2,2,2,0,13,13,31,,,,,,,,,-0.44027777777777777,0.08935185185185185,1,0,0,5.441536100000121,call2,-0.013888888888888888,-0.34953703703703703,1,0,0,6.09666900000002,colour4,0.4375,-0.30648148148148147,1,0,0,7.346839299999829,number4,False,True,True,34,4,2019_Nov_19_1204,MA_Theta_Exp,3.0.7,60.16119590834621,
video/Experiment/zh_sp01_Ti_Ro_3_NVocInAudio_NoVideo.avi,vocoded,noVideo,sp01,Ti,Ro,3,2,2,flow/blocks/NVocInAudio_NoVideo_A.csv,,,,,,,,,0,2,2,2,0,14,14,10,,,,,,,,,-0.3861111111111111,-0.13703703703703704,1,0,0,4.977856200000133,call3,-0.018055555555555554,-0.13425925925925927,1,0,0,5.424941600000011,colour3,0.41944444444444445,-0.13425925925925927,1,0,0,6.300504099999898,number3,True,True,True,34,4,2019_Nov_19_1204,MA_Theta_Exp,3.0.7,60.16119590834621,
video/Experiment/zh_sp01_Dr_Gr_3_NVocInAudio_NoVideo.avi,vocoded,noVideo,sp01,Dr,Gr,3,2,2,flow/blocks/NVocInAudio_NoVideo_A.csv,,,,,,,,,0,2,2,2,0,15,15,6,,,,,,,,,-0.36944444444444446,0.09074074074074075,1,0,0,4.942625099999987,call2,0.02361111111111111,0.10046296296296296,1,0,0,5.526489000000083,colour2,0.4,-0.12314814814814815,1,0,0,6.013103299999784,number3,True,True,True,34,4,2019_Nov_19_1204,MA_Theta_Exp,3.0.7,60.16119590834621,
video/Experiment/zh_sp07_Un_We_4_NVocInAudio_NoVideo.avi,vocoded,noVideo,sp07,Un,We,4,2,2,flow/blocks/NVocInAudio_NoVideo_A.csv,,,,,,,,,0,2,2,2,0,16,16,15,,,,,,,,,-0.3819444444444444,-0.32037037037037036,1,0,0,4.896711800000048,call4,0.020833333333333332,-0.337037037037037,1,0,0,7.006877499999973,colour4,0.39861111111111114,-0.33287037037037037,1,0,0,7.495189500000151,number4,True,True,True,34,4,2019_Nov_19_1204,MA_Theta_Exp,3.0.7,60.16119590834621,
video/Experiment/zh_sp07_Ti_Ge_4_NVocInAudio_NoVideo.avi,vocoded,noVideo,sp07,Ti,Ge,4,2,2,flow/blocks/NVocInAudio_NoVideo_A.csv,,,,,,,,,0,2,2,2,0,17,17,3,,,,,,,,,-0.3541666666666667,-0.07175925925925926,1,0,0,6.701581100000112,call3,0.011111111111111112,0.30462962962962964,1,0,0,7.229522000000088,colour1,0.5,-0.3384259259259259,1,0,0,7.993389399999842,number4,True,True,True,34,4,2019_Nov_19_1204,MA_Theta_Exp,3.0.7,60.16119590834621,
video/Experiment/zh_sp01_Dr_Ge_1_NVocInAudio_NoVideo.avi,vocoded,noVideo,sp01,Dr,Ge,1,2,2,flow/blocks/NVocInAudio_NoVideo_A.csv,,,,,,,,,0,2,2,2,0,18,18,0,,,,,,,,,-0.4388888888888889,0.06018518518518518,1,0,0,5.213677100000041,call2,-0.029166666666666667,0.2212962962962963,1,0,0,5.693219900000031,colour1,0.4125,0.31712962962962965,1,0,0,6.50952099999995,number1,True,True,True,34,4,2019_Nov_19_1204,MA_Theta_Exp,3.0.7,60.16119590834621,
video/Experiment/zh_sp01_Ti_Gr_4_NVocInAudio_NoVideo.avi,vocoded,noVideo,sp01,Ti,Gr,4,2,2,flow/blocks/NVocInAudio_NoVideo_A.csv,,,,,,,,,0,2,2,2,0,19,19,7,,,,,,,,,-0.3888888888888889,-0.11342592592592593,1,0,0,5.197577300000148,call3,-0.03888888888888889,0.0837962962962963,1,0,0,5.7540034000001015,colour2,0.44583333333333336,-0.28425925925925927,1,0,0,6.410964500000091,number4,True,True,True,34,4,2019_Nov_19_1204,MA_Theta_Exp,3.0.7,60.16119590834621,
video/Experiment/zh_sp07_Dr_Gr_4_NVocInAudio_NoVideo.avi,vocoded,noVideo,sp07,Dr,Gr,4,2,2,flow/blocks/NVocInAudio_NoVideo_A.csv,,,,,,,,,0,2,2,2,0,20,20,23,,,,,,,,,-0.3736111111111111,0.10185185185185185,1,0,0,4.366746400000011,call2,-0.008333333333333333,0.07268518518518519,1,0,0,4.762919600000032,colour2,0.37222222222222223,-0.29953703703703705,1,0,0,5.315411100000119,number4,True,True,True,34,4,2019_Nov_19_1204,MA_Theta_Exp,3.0.7,60.16119590834621,
video/Experiment/zh_sp07_Ad_Gr_3_NVocInAudio_NoVideo.avi,vocoded,noVideo,sp07,Ad,Gr,3,2,2,flow/blocks/NVocInAudio_NoVideo_A.csv,,,,,,,,,0,2,2,2,0,21,21,22,,,,,,,,,-0.3763888888888889,0.11574074074074074,1,0,0,6.997035399999959,call2,0.02638888888888889,0.09351851851851851,1,0,0,8.255897899999809,colour2,0.4361111111111111,-0.16620370370370371,1,0,0,8.823543699999846,number3,False,True,True,34,4,2019_Nov_19_1204,MA_Theta_Exp,3.0.7,60.16119590834621,
video/Experiment/zh_sp01_Ti_Ge_3_NVocInAudio_NoVideo.avi,vocoded,noVideo,sp01,Ti,Ge,3,2,2,flow/blocks/NVocInAudio_NoVideo_A.csv,,,,,,,,,0,2,2,2,0,22,22,18,,,,,,,,,-0.44305555555555554,-0.13564814814814816,1,0,0,5.448833800000102,call3,0.022222222222222223,0.29212962962962963,1,0,0,6.335960600000135,colour1,0.4222222222222222,-0.13842592592592592,1,0,0,6.8816523999998935,number3,True,True,True,34,4,2019_Nov_19_1204,MA_Theta_Exp,3.0.7,60.16119590834621,
video/Experiment/zh_sp01_Ad_We_1_NVocInAudio_NoVideo.avi,vocoded,noVideo,sp01,Ad,We,1,2,2,flow/blocks/NVocInAudio_NoVideo_A.csv,,,,,,,,,0,2,2,2,0,23,23,12,,,,,,,,,-0.3861111111111111,0.29907407407407405,1,0,0,5.036539599999969,call1,0.04583333333333333,-0.3106481481481482,1,0,0,5.786904199999981,colour4,0.39861111111111114,0.27824074074074073,1,0,0,6.500780500000019,number1,True,True,True,34,4,2019_Nov_19_1204,MA_Theta_Exp,3.0.7,60.16119590834621,
video/Experiment/zh_sp07_Ti_Ge_2_NVocInAudio_NoVideo.avi,vocoded,noVideo,sp07,Ti,Ge,2,2,2,flow/blocks/NVocInAudio_NoVideo_A.csv,,,,,,,,,0,2,2,2,0,24,24,1,,,,,,,,,-0.4305555555555556,-0.13425925925925927,1,0,0,4.786324400000012,call3,0.019444444444444445,0.28935185185185186,1,0,0,6.276769699999932,colour1,0.3486111111111111,0.08101851851851852,1,0,0,6.798423200000116,number2,True,True,True,34,4,2019_Nov_19_1204,MA_Theta_Exp,3.0.7,60.16119590834621,
video/Experiment/zh_sp07_Un_We_1_NVocInAudio_NoVideo.avi,vocoded,noVideo,sp07,Un,We,1,2,2,flow/blocks/NVocInAudio_NoVideo_A.csv,,,,,,,,,0,2,2,2,0,25,25,28,,,,,,,,,-0.42916666666666664,-0.3300925925925926,1,0,0,4.44561160000012,call4,-0.0125,-0.3037037037037037,1,0,0,4.988229000000047,colour4,0.3819444444444444,0.2962962962962963,1,0,0,5.664671799999951,number1,True,True,True,34,4,2019_Nov_19_1204,MA_Theta_Exp,3.0.7,60.16119590834621,
video/Experiment/zh_sp07_Un_We_3_NVocInAudio_NoVideo.avi,vocoded,noVideo,sp07,Un,We,3,2,2,flow/blocks/NVocInAudio_NoVideo_A.csv,,,,,,,,,0,2,2,2,0,26,26,14,,,,,,,,,-0.41805555555555557,-0.2828703703703704,1,0,0,4.181428200000028,call4,-0.05138888888888889,-0.3162037037037037,1,0,0,4.636180499999909,colour4,0.4097222222222222,-0.11342592592592593,1,0,0,5.163616999999931,number3,True,True,True,34,4,2019_Nov_19_1204,MA_Theta_Exp,3.0.7,60.16119590834621,
video/Experiment/zh_sp01_Un_Ro_3_NVocInAudio_NoVideo.avi,vocoded,noVideo,sp01,Un,Ro,3,2,2,flow/blocks/NVocInAudio_NoVideo_A.csv,,,,,,,,,0,2,2,2,0,27,27,26,,,,,,,,,-0.3902777777777778,-0.337037037037037,1,0,0,5.0196750000000065,call4,0.027777777777777776,-0.18703703703703703,1,0,0,5.540347399999973,colour3,0.3597222222222222,-0.10787037037037037,1,0,0,6.083443700000089,number3,True,True,True,34,4,2019_Nov_19_1204,MA_Theta_Exp,3.0.7,60.16119590834621,
video/Experiment/zh_sp07_Ad_We_2_NVocInAudio_NoVideo.avi,vocoded,noVideo,sp07,Ad,We,2,2,2,flow/blocks/NVocInAudio_NoVideo_A.csv,,,,,,,,,0,2,2,2,0,28,28,29,,,,,,,,,-0.3680555555555556,0.3101851851851852,1,0,0,4.574761999999964,call1,0.05277777777777778,-0.3578703703703704,1,0,0,5.2860087999999905,colour4,0.4,0.09074074074074075,1,0,0,5.969262999999955,number2,True,True,True,34,4,2019_Nov_19_1204,MA_Theta_Exp,3.0.7,60.16119590834621,
video/Experiment/zh_sp01_Ti_Ge_1_NVocInAudio_NoVideo.avi,vocoded,noVideo,sp01,Ti,Ge,1,2,2,flow/blocks/NVocInAudio_NoVideo_A.csv,,,,,,,,,0,2,2,2,0,29,29,16,,,,,,,,,-0.3958333333333333,-0.09675925925925925,1,0,0,5.35714999999982,call3,0.044444444444444446,0.32546296296296295,1,0,0,6.6733458000001065,colour1,0.41388888888888886,0.25046296296296294,1,0,0,7.238907899999958,number1,True,True,True,34,4,2019_Nov_19_1204,MA_Theta_Exp,3.0.7,60.16119590834621,
video/Experiment/zh_sp07_Ad_We_3_NVocInAudio_NoVideo.avi,vocoded,noVideo,sp07,Ad,We,3,2,2,flow/blocks/NVocInAudio_NoVideo_A.csv,,,,,,,,,0,2,2,2,0,30,30,30,,,,,,,,,-0.43472222222222223,0.31574074074074077,1,0,0,5.337693500000114,call1,-0.059722222222222225,-0.29398148148148145,1,0,0,6.041065600000138,colour4,0.4583333333333333,-0.13287037037037036,1,0,0,6.5554597000000285,number3,True,True,True,34,4,2019_Nov_19_1204,MA_Theta_Exp,3.0.7,60.16119590834621,
video/Experiment/zh_sp01_Ad_Ro_4_NVocInAudio_NoVideo.avi,vocoded,noVideo,sp01,Ad,Ro,4,2,2,flow/blocks/NVocInAudio_NoVideo_A.csv,,,,,,,,,0,2,2,2,0,31,31,11,,,,,,,,,-0.35833333333333334,0.3212962962962963,1,0,0,5.250960899999882,call1,-0.018055555555555554,-0.12037037037037036,1,0,0,6.541685800000096,colour3,0.4638888888888889,-0.41064814814814815,1,0,0,7.106820700000071,number4,True,True,True,34,4,2019_Nov_19_1204,MA_Theta_Exp,3.0.7,60.16119590834621,
video/Experiment/zh_sp01_Dr_Ge_2_NoThetaInAudio_GlobalThetaInVideo.avi,noTheta,plusVideo,sp01,Dr,Ge,2,3,3,flow/blocks/NoThetaInAudio_GlobalThetaInVideo_B.csv,,,,,,,,,0,3,3,3,0,0,0,17,,,,,,,,,-0.44722222222222224,0.07962962962962963,1,0,0,5.459844299999986,call2,0.013888888888888888,0.31851851851851853,1,0,0,6.040046600000096,colour1,0.4125,0.09351851851851851,1,0,0,6.504078499999878,number2,True,True,True,34,4,2019_Nov_19_1204,MA_Theta_Exp,3.0.7,60.16119590834621,
video/Experiment/zh_sp01_Un_Gr_2_NoThetaInAudio_GlobalThetaInVideo.avi,noTheta,plusVideo,sp01,Un,Gr,2,3,3,flow/blocks/NoThetaInAudio_GlobalThetaInVideo_B.csv,,,,,,,,,0,3,3,3,0,1,1,5,,,,,,,,,-0.4583333333333333,-0.32731481481481484,1,0,0,5.566464300000007,call4,-0.06388888888888888,0.09490740740740741,1,0,0,6.075679900000068,colour2,0.43333333333333335,0.13657407407407407,1,0,0,6.601907499999925,number2,True,True,True,34,4,2019_Nov_19_1204,MA_Theta_Exp,3.0.7,60.16119590834621,
video/Experiment/zh_sp01_Ti_Ro_1_NoThetaInAudio_GlobalThetaInVideo.avi,noTheta,plusVideo,sp01,Ti,Ro,1,3,3,flow/blocks/NoThetaInAudio_GlobalThetaInVideo_B.csv,,,,,,,,,0,3,3,3,0,2,2,8,,,,,,,,,-0.43194444444444446,-0.16898148148148148,1,0,0,5.6065692000001945,call3,-0.03888888888888889,-0.10787037037037037,1,0,0,6.750064399999928,colour3,0.4222222222222222,0.27546296296296297,1,0,0,7.725955200000044,number1,True,True,True,34,4,2019_Nov_19_1204,MA_Theta_Exp,3.0.7,60.16119590834621,
video/Experiment/zh_sp07_Ad_Ro_3_NoThetaInAudio_GlobalThetaInVideo.avi,noTheta,plusVideo,sp07,Ad,Ro,3,3,3,flow/blocks/NoThetaInAudio_GlobalThetaInVideo_B.csv,,,,,,,,,0,3,3,3,0,3,3,10,,,,,,,,,-0.3958333333333333,0.350462962962963,1,0,0,4.556079499999896,call1,-0.030555555555555555,0.2851851851851852,1,0,0,5.185718400000042,colour1,0.3333333333333333,-0.06759259259259259,1,0,0,5.787943900000073,number3,True,False,True,34,4,2019_Nov_19_1204,MA_Theta_Exp,3.0.7,60.16119590834621,
video/Experiment/zh_sp07_Ti_Gr_2_NoThetaInAudio_GlobalThetaInVideo.avi,noTheta,plusVideo,sp07,Ti,Gr,2,3,3,flow/blocks/NoThetaInAudio_GlobalThetaInVideo_B.csv,,,,,,,,,0,3,3,3,0,4,4,21,,,,,,,,,-0.43194444444444446,-0.1050925925925926,1,0,0,4.810602899999822,call3,0.04722222222222222,0.11435185185185186,1,0,0,5.319834399999991,colour2,0.42777777777777776,0.09074074074074075,1,0,0,5.8138213000002,number2,True,True,True,34,4,2019_Nov_19_1204,MA_Theta_Exp,3.0.7,60.16119590834621,
video/Experiment/zh_sp01_Ti_We_3_NoThetaInAudio_GlobalThetaInVideo.avi,noTheta,plusVideo,sp01,Ti,We,3,3,3,flow/blocks/NoThetaInAudio_GlobalThetaInVideo_B.csv,,,,,,,,,0,3,3,3,0,5,5,30,,,,,,,,,-0.3972222222222222,-0.1675925925925926,1,0,0,5.1465283,call3,-0.09166666666666666,-0.3148148148148148,1,0,0,5.613047199999983,colour4,0.3111111111111111,-0.15925925925925927,1,0,0,6.433456399999841,number3,True,True,True,34,4,2019_Nov_19_1204,MA_Theta_Exp,3.0.7,60.16119590834621,
video/Experiment/zh_sp01_Ti_We_1_NoThetaInAudio_GlobalThetaInVideo.avi,noTheta,plusVideo,sp01,Ti,We,1,3,3,flow/blocks/NoThetaInAudio_GlobalThetaInVideo_B.csv,,,,,,,,,0,3,3,3,0,6,6,12,,,,,,,,,-0.43472222222222223,-0.1175925925925926,1,0,0,4.904756100000213,call3,-0.04027777777777778,-0.3384259259259259,1,0,0,5.43346130000009,colour4,0.3972222222222222,0.31296296296296294,1,0,0,5.984029499999906,number1,True,True,True,34,4,2019_Nov_19_1204,MA_Theta_Exp,3.0.7,60.16119590834621,
video/Experiment/zh_sp07_Ti_We_2_NoThetaInAudio_GlobalThetaInVideo.avi,noTheta,plusVideo,sp07,Ti,We,2,3,3,flow/blocks/NoThetaInAudio_GlobalThetaInVideo_B.csv,,,,,,,,,0,3,3,3,0,7,7,29,,,,,,,,,-0.44305555555555554,-0.07314814814814814,1,0,0,4.764394100000118,call3,-0.02638888888888889,-0.3425925925925926,1,0,0,5.381873000000041,colour4,0.4013888888888889,0.12546296296296297,1,0,0,5.980831399999943,number2,True,True,True,34,4,2019_Nov_19_1204,MA_Theta_Exp,3.0.7,60.16119590834621,
video/Experiment/zh_sp01_Dr_Ro_3_NoThetaInAudio_GlobalThetaInVideo.avi,noTheta,plusVideo,sp01,Dr,Ro,3,3,3,flow/blocks/NoThetaInAudio_GlobalThetaInVideo_B.csv,,,,,,,,,0,3,3,3,0,8,8,26,,,,,,,,,-0.4027777777777778,0.07407407407407407,1,0,0,7.968079100000068,call2,-0.041666666666666664,-0.3175925925925926,1,0,0,9.253012300000137,colour4,0.4736111111111111,-0.12037037037037036,1,0,0,9.746307900000147,number3,True,False,True,34,4,2019_Nov_19_1204,MA_Theta_Exp,3.0.7,60.16119590834621,
video/Experiment/zh_sp01_Ad_Ge_4_NoThetaInAudio_GlobalThetaInVideo.avi,noTheta,plusVideo,sp01,Ad,Ge,4,3,3,flow/blocks/NoThetaInAudio_GlobalThetaInVideo_B.csv,,,,,,,,,0,3,3,3,0,9,9,3,,,,,,,,,-0.39444444444444443,0.3476851851851852,1,0,0,5.130979500000194,call1,0.05555555555555555,0.2810185185185185,1,0,0,5.581716700000015,colour1,0.35,-0.27175925925925926,1,0,0,6.329749699999866,number4,True,True,True,34,4,2019_Nov_19_1204,MA_Theta_Exp,3.0.7,60.16119590834621,
video/Experiment/zh_sp07_Ti_Gr_3_NoThetaInAudio_GlobalThetaInVideo.avi,noTheta,plusVideo,sp07,Ti,Gr,3,3,3,flow/blocks/NoThetaInAudio_GlobalThetaInVideo_B.csv,,,,,,,,,0,3,3,3,0,10,10,22,,,,,,,,,-0.35694444444444445,-0.0912037037037037,1,0,0,6.339826799999855,call3,0.03888888888888889,0.10185185185185185,1,0,0,6.774986800000079,colour2,0.39444444444444443,-0.13703703703703704,1,0,0,7.298313800000187,number3,True,True,True,34,4,2019_Nov_19_1204,MA_Theta_Exp,3.0.7,60.16119590834621,
video/Experiment/zh_sp07_Ad_Gr_4_NoThetaInAudio_GlobalThetaInVideo.avi,noTheta,plusVideo,sp07,Ad,Gr,4,3,3,flow/blocks/NoThetaInAudio_GlobalThetaInVideo_B.csv,,,,,,,,,0,3,3,3,0,11,11,7,,,,,,,,,-0.5,0.3337962962962963,1,0,0,4.513482199999999,call1,0.05,0.07962962962962963,1,0,0,5.586724900000036,colour2,0.38055555555555554,-0.29259259259259257,1,0,0,6.125833800000009,number4,True,True,True,34,4,2019_Nov_19_1204,MA_Theta_Exp,3.0.7,60.16119590834621,
video/Experiment/zh_sp01_Dr_Ge_3_NoThetaInAudio_GlobalThetaInVideo.avi,noTheta,plusVideo,sp01,Dr,Ge,3,3,3,flow/blocks/NoThetaInAudio_GlobalThetaInVideo_B.csv,,,,,,,,,0,3,3,3,0,12,12,2,,,,,,,,,-0.3458333333333333,-0.3175925925925926,1,0,0,5.662725599999931,call4,0.041666666666666664,0.37546296296296294,1,0,0,6.392505799999981,colour1,0.4152777777777778,-0.13564814814814816,1,0,0,7.016958799999884,number3,False,True,True,34,4,2019_Nov_19_1204,MA_Theta_Exp,3.0.7,60.16119590834621,
video/Experiment/zh_sp07_Dr_We_4_NoThetaInAudio_GlobalThetaInVideo.avi,noTheta,plusVideo,sp07,Dr,We,4,3,3,flow/blocks/NoThetaInAudio_GlobalThetaInVideo_B.csv,,,,,,,,,0,3,3,3,0,13,13,15,,,,,,,,,-0.3888888888888889,0.0824074074074074,1,0,0,5.929731599999968,call2,-0.06111111111111111,0.32407407407407407,1,0,0,7.6919046999998955,colour1,0.4027777777777778,-0.34814814814814815,1,0,0,8.45714350000003,number4,True,False,True,34,4,2019_Nov_19_1204,MA_Theta_Exp,3.0.7,60.16119590834621,
video/Experiment/zh_sp07_Dr_Ro_1_NoThetaInAudio_GlobalThetaInVideo.avi,noTheta,plusVideo,sp07,Dr,Ro,1,3,3,flow/blocks/NoThetaInAudio_GlobalThetaInVideo_B.csv,,,,,,,,,0,3,3,3,0,14,14,24,,,,,,,,,-0.3875,0.24074074074074073,1,0,0,4.884542499999952,call1,-0.008333333333333333,-0.14675925925925926,1,0,0,5.596791799999892,colour3,0.39305555555555555,0.2949074074074074,1,0,0,6.190957600000047,number1,False,True,True,34,4,2019_Nov_19_1204,MA_Theta_Exp,3.0.7,60.16119590834621,
video/Experiment/zh_sp07_Un_Ro_2_NoThetaInAudio_GlobalThetaInVideo.avi,noTheta,plusVideo,sp07,Un,Ro,2,3,3,flow/blocks/NoThetaInAudio_GlobalThetaInVideo_B.csv,,,,,,,,,0,3,3,3,0,15,15,9,,,,,,,,,-0.3958333333333333,-0.32592592592592595,1,0,0,4.8183954000000995,call4,-0.022222222222222223,-0.11898148148148148,1,0,0,5.240384499999891,colour3,0.3013888888888889,0.11851851851851852,1,0,0,5.709081999999853,number2,True,True,True,34,4,2019_Nov_19_1204,MA_Theta_Exp,3.0.7,60.16119590834621,
video/Experiment/zh_sp01_Ti_Ro_4_NoThetaInAudio_GlobalThetaInVideo.avi,noTheta,plusVideo,sp01,Ti,Ro,4,3,3,flow/blocks/NoThetaInAudio_GlobalThetaInVideo_B.csv,,,,,,,,,0,3,3,3,0,16,16,11,,,,,,,,,-0.4152777777777778,-0.1162037037037037,1,0,0,5.029731599999877,call3,-0.025,-0.11203703703703703,1,0,0,5.489951900000051,colour3,0.41805555555555557,-0.3523148148148148,1,0,0,6.004356499999858,number4,True,True,True,34,4,2019_Nov_19_1204,MA_Theta_Exp,3.0.7,60.16119590834621,
video/Experiment/zh_sp01_Un_Gr_4_NoThetaInAudio_GlobalThetaInVideo.avi,noTheta,plusVideo,sp01,Un,Gr,4,3,3,flow/blocks/NoThetaInAudio_GlobalThetaInVideo_B.csv,,,,,,,,,0,3,3,3,0,17,17,23,,,,,,,,,-0.4388888888888889,-0.28564814814814815,1,0,0,4.852936200000158,call4,-0.06388888888888888,0.05462962962962963,1,0,0,5.4346382000001086,colour2,0.41388888888888886,-0.34120370370370373,1,0,0,6.006942699999854,number4,True,True,True,34,4,2019_Nov_19_1204,MA_Theta_Exp,3.0.7,60.16119590834621,
video/Experiment/zh_sp07_Ad_Ro_2_NoThetaInAudio_GlobalThetaInVideo.avi,noTheta,plusVideo,sp07,Ad,Ro,2,3,3,flow/blocks/NoThetaInAudio_GlobalThetaInVideo_B.csv,,,,,,,,,0,3,3,3,0,18,18,25,,,,,,,,,-0.4,0.28379629629629627,1,0,0,5.8287562000000435,call1,0.06111111111111111,-0.1287037037037037,1,0,0,7.490190700000085,colour3,0.4041666666666667,0.09490740740740741,1,0,0,8.033280900000136,number2,True,True,True,34,4,2019_Nov_19_1204,MA_Theta_Exp,3.0.7,60.16119590834621,
video/Experiment/zh_sp07_Ti_Gr_1_NoThetaInAudio_GlobalThetaInVideo.avi,noTheta,plusVideo,sp07,Ti,Gr,1,3,3,flow/blocks/NoThetaInAudio_GlobalThetaInVideo_B.csv,,,,,,,,,0,3,3,3,0,19,19,4,,,,,,,,,-0.4,-0.12314814814814815,1,0,0,4.267377099999976,call3,0.025,0.15462962962962962,1,0,0,4.736734600000091,colour2,0.42083333333333334,0.3282407407407407,1,0,0,5.23361060000002,number1,True,True,True,34,4,2019_Nov_19_1204,MA_Theta_Exp,3.0.7,60.16119590834621,
video/Experiment/zh_sp01_Un_Ge_1_NoThetaInAudio_GlobalThetaInVideo.avi,noTheta,plusVideo,sp01,Un,Ge,1,3,3,flow/blocks/NoThetaInAudio_GlobalThetaInVideo_B.csv,,,,,,,,,0,3,3,3,0,20,20,0,,,,,,,,,-0.3680555555555556,-0.29814814814814816,1,0,0,5.565912199999957,call4,-0.04861111111111111,0.29907407407407405,1,0,0,6.198484000000008,colour1,0.4152777777777778,0.3060185185185185,1,0,0,6.695300999999972,number1,True,True,True,34,4,2019_Nov_19_1204,MA_Theta_Exp,3.0.7,60.16119590834621,
video/Experiment/zh_sp01_Ad_Ge_3_NoThetaInAudio_GlobalThetaInVideo.avi,noTheta,plusVideo,sp01,Ad,Ge,3,3,3,flow/blocks/NoThetaInAudio_GlobalThetaInVideo_B.csv,,,,,,,,,0,3,3,3,0,21,21,18,,,,,,,,,-0.375,-0.337037037037037,1,0,0,6.453694799999994,call4,-0.022222222222222223,0.26851851851851855,1,0,0,7.566652799999929,colour1,0.4,-0.1648148148148148,1,0,0,8.608122300000105,number3,False,True,True,34,4,2019_Nov_19_1204,MA_Theta_Exp,3.0.7,60.16119590834621,
video/Experiment/zh_sp07_Ad_We_4_NoThetaInAudio_GlobalThetaInVideo.avi,noTheta,plusVideo,sp07,Ad,We,4,3,3,flow/blocks/NoThetaInAudio_GlobalThetaInVideo_B.csv,,,,,,,,,0,3,3,3,0,22,22,31,,,,,,,,,-0.34305555555555556,0.30462962962962964,1,0,0,4.493767100000014,call1,0.019444444444444445,-0.3287037037037037,1,0,0,5.182388899999978,colour4,0.37083333333333335,-0.3106481481481482,1,0,0,5.709933200000023,number4,True,True,True,34,4,2019_Nov_19_1204,MA_Theta_Exp,3.0.7,60.16119590834621,
video/Experiment/zh_sp07_Un_Gr_3_NoThetaInAudio_GlobalThetaInVideo.avi,noTheta,plusVideo,sp07,Un,Gr,3,3,3,flow/blocks/NoThetaInAudio_GlobalThetaInVideo_B.csv,,,,,,,,,0,3,3,3,0,23,23,6,,,,,,,,,-0.3597222222222222,-0.3425925925925926,1,0,0,4.3363049000001865,call4,0.019444444444444445,0.0962962962962963,1,0,0,5.085086300000057,colour2,0.4125,-0.14953703703703702,1,0,0,5.672931399999925,number3,True,True,True,34,4,2019_Nov_19_1204,MA_Theta_Exp,3.0.7,60.16119590834621,
video/Experiment/zh_sp01_Dr_We_1_NoThetaInAudio_GlobalThetaInVideo.avi,noTheta,plusVideo,sp01,Dr,We,1,3,3,flow/blocks/NoThetaInAudio_GlobalThetaInVideo_B.csv,,,,,,,,,0,3,3,3,0,24,24,28,,,,,,,,,-0.42083333333333334,-0.25092592592592594,1,0,0,5.409129600000142,call4,-0.022222222222222223,-0.3439814814814815,1,0,0,5.923165100000006,colour4,0.44305555555555554,0.29907407407407405,1,0,0,6.589929499999926,number1,False,True,True,34,4,2019_Nov_19_1204,MA_Theta_Exp,3.0.7,60.16119590834621,
video/Experiment/zh_sp07_Dr_Gr_1_NoThetaInAudio_GlobalThetaInVideo.avi,noTheta,plusVideo,sp07,Dr,Gr,1,3,3,flow/blocks/NoThetaInAudio_GlobalThetaInVideo_B.csv,,,,,,,,,0,3,3,3,0,25,25,20,,,,,,,,,-0.36944444444444446,0.3101851851851852,1,0,0,4.629846000000043,call1,0.06805555555555555,0.10185185185185185,1,0,0,5.946434299999964,colour2,0.4166666666666667,0.3101851851851852,1,0,0,6.556791699999849,number1,False,True,True,34,4,2019_Nov_19_1204,MA_Theta_Exp,3.0.7,60.16119590834621,
video/Experiment/zh_sp07_Dr_We_3_NoThetaInAudio_GlobalThetaInVideo.avi,noTheta,plusVideo,sp07,Dr,We,3,3,3,flow/blocks/NoThetaInAudio_GlobalThetaInVideo_B.csv,,,,,,,,,0,3,3,3,0,26,26,14,,,,,,,,,-0.39861111111111114,0.3074074074074074,1,0,0,4.450381399999969,call1,0.013888888888888888,-0.34120370370370373,1,0,0,5.106364499999927,colour4,0.3541666666666667,-0.14675925925925926,1,0,0,5.831147999999985,number3,False,True,True,34,4,2019_Nov_19_1204,MA_Theta_Exp,3.0.7,60.16119590834621,
video/Experiment/zh_sp07_Ad_Ge_1_NoThetaInAudio_GlobalThetaInVideo.avi,noTheta,plusVideo,sp07,Ad,Ge,1,3,3,flow/blocks/NoThetaInAudio_GlobalThetaInVideo_B.csv,,,,,,,,,0,3,3,3,0,27,27,16,,,,,,,,,-0.4444444444444444,0.3365740740740741,1,0,0,4.385971400000017,call1,0.04027777777777778,0.2712962962962963,1,0,0,4.886716700000079,colour1,0.38055555555555554,0.3282407407407407,1,0,0,5.307839699999931,number1,True,True,True,34,4,2019_Nov_19_1204,MA_Theta_Exp,3.0.7,60.16119590834621,
video/Experiment/zh_sp01_Un_Ro_4_NoThetaInAudio_GlobalThetaInVideo.avi,noTheta,plusVideo,sp01,Un,Ro,4,3,3,flow/blocks/NoThetaInAudio_GlobalThetaInVideo_B.csv,,,,,,,,,0,3,3,3,0,28,28,27,,,,,,,,,-0.4305555555555556,-0.3398148148148148,1,0,0,5.042824699999983,call4,0.0125,-0.0412037037037037,1,0,0,6.174333299999944,colour3,0.3763888888888889,-0.3731481481481482,1,0,0,7.048475400000143,number4,True,True,True,34,4,2019_Nov_19_1204,MA_Theta_Exp,3.0.7,60.16119590834621,
video/Experiment/zh_sp01_Ad_Ge_2_NoThetaInAudio_GlobalThetaInVideo.avi,noTheta,plusVideo,sp01,Ad,Ge,2,3,3,flow/blocks/NoThetaInAudio_GlobalThetaInVideo_B.csv,,,,,,,,,0,3,3,3,0,29,29,1,,,,,,,,,-0.3263888888888889,0.26851851851851855,1,0,0,6.256657200000063,call1,0.075,0.30324074074074076,1,0,0,7.069553600000063,colour1,0.4930555555555556,0.12962962962962962,1,0,0,7.670798800000057,number2,True,True,True,34,4,2019_Nov_19_1204,MA_Theta_Exp,3.0.7,60.16119590834621,
video/Experiment/zh_sp07_Un_Ge_4_NoThetaInAudio_GlobalThetaInVideo.avi,noTheta,plusVideo,sp07,Un,Ge,4,3,3,flow/blocks/NoThetaInAudio_GlobalThetaInVideo_B.csv,,,,,,,,,0,3,3,3,0,30,30,19,,,,,,,,,-0.44722222222222224,-0.34814814814814815,1,0,0,4.498166500000025,call4,-0.034722222222222224,0.3087962962962963,1,0,0,5.213146699999925,colour1,0.3402777777777778,-0.3175925925925926,1,0,0,5.902607099999841,number4,True,True,True,34,4,2019_Nov_19_1204,MA_Theta_Exp,3.0.7,60.16119590834621,
video/Experiment/zh_sp01_Un_We_2_NoThetaInAudio_GlobalThetaInVideo.avi,noTheta,plusVideo,sp01,Un,We,2,3,3,flow/blocks/NoThetaInAudio_GlobalThetaInVideo_B.csv,,,,,,,,,0,3,3,3,0,31,31,13,,,,,,,,,-0.3597222222222222,-0.33287037037037037,1,0,0,5.30921330000001,call4,-0.03333333333333333,-0.2967592592592593,1,0,0,5.8341387000000395,colour4,0.3486111111111111,0.13240740740740742,1,0,0,6.392987700000049,number2,True,True,True,34,4,2019_Nov_19_1204,MA_Theta_Exp,3.0.7,60.16119590834621,
video/Experiment/zh_sp07_Ad_Gr_3_GlobalTheta_NoVideo.avi,globalTheta,noVideo,sp07,Ad,Gr,3,4,5,flow/blocks/GlobalTheta_NoVideo_A.csv,,,,,,,,,0,4,4,4,0,0,0,22,,,,,,,,,-0.4125,-0.32314814814814813,1,0,0,6.140801900000042,call4,-0.0375,0.10462962962962963,1,0,0,7.265575800000079,colour2,0.4,-0.10231481481481482,1,0,0,7.982446699999855,number3,False,True,True,34,4,2019_Nov_19_1204,MA_Theta_Exp,3.0.7,60.16119590834621,
video/Experiment/zh_sp07_Dr_Ge_1_GlobalTheta_NoVideo.avi,globalTheta,noVideo,sp07,Dr,Ge,1,4,5,flow/blocks/GlobalTheta_NoVideo_A.csv,,,,,,,,,0,4,4,4,0,1,1,0,,,,,,,,,-0.4041666666666667,-0.2967592592592593,1,0,0,4.50288230000001,call4,0.018055555555555554,0.11157407407407408,1,0,0,6.019172199999957,colour2,0.4013888888888889,0.2935185185185185,1,0,0,6.483772600000066,number1,False,False,True,34,4,2019_Nov_19_1204,MA_Theta_Exp,3.0.7,60.16119590834621,
video/Experiment/zh_sp07_Un_Ge_3_GlobalTheta_NoVideo.avi,globalTheta,noVideo,sp07,Un,Ge,3,4,5,flow/blocks/GlobalTheta_NoVideo_A.csv,,,,,,,,,0,4,4,4,0,2,2,2,,,,,,,,,-0.41388888888888886,-0.3050925925925926,1,0,0,4.588043700000071,call4,-0.001388888888888889,0.31851851851851853,1,0,0,5.2019686000001,colour1,0.39444444444444443,-0.14814814814814814,1,0,0,5.868708799999922,number3,True,True,True,34,4,2019_Nov_19_1204,MA_Theta_Exp,3.0.7,60.16119590834621,
video/Experiment/zh_sp07_Ti_Ge_2_GlobalTheta_NoVideo.avi,globalTheta,noVideo,sp07,Ti,Ge,2,4,5,flow/blocks/GlobalTheta_NoVideo_A.csv,,,,,,,,,0,4,4,4,0,3,3,1,,,,,,,,,-0.3736111111111111,-0.12453703703703704,1,0,0,4.565461700000014,call3,0.013888888888888888,0.300462962962963,1,0,0,5.106929300000047,colour1,0.32916666666666666,0.29212962962962963,1,0,0,5.603053599999839,number1,True,True,False,34,4,2019_Nov_19_1204,MA_Theta_Exp,3.0.7,60.16119590834621,
video/Experiment/zh_sp07_Un_Ro_1_GlobalTheta_NoVideo.avi,globalTheta,noVideo,sp07,Un,Ro,1,4,5,flow/blocks/GlobalTheta_NoVideo_A.csv,,,,,,,,,0,4,4,4,0,4,4,24,,,,,,,,,-0.41944444444444445,-0.3300925925925926,1,0,0,4.540509799999882,call4,-0.03333333333333333,-0.40370370370370373,1,0,0,5.712080499999956,colour4,0.43194444444444446,0.3490740740740741,1,0,0,6.59360700000002,number1,True,False,True,34,4,2019_Nov_19_1204,MA_Theta_Exp,3.0.7,60.16119590834621,
video/Experiment/zh_sp01_Ti_Ge_3_GlobalTheta_NoVideo.avi,globalTheta,noVideo,sp01,Ti,Ge,3,4,5,flow/blocks/GlobalTheta_NoVideo_A.csv,,,,,,,,,0,4,4,4,0,5,5,18,,,,,,,,,-0.3736111111111111,-0.32731481481481484,1,0,0,6.484613099999933,call4,0.07916666666666666,0.33935185185185185,1,0,0,7.199765899999875,colour1,0.4236111111111111,-0.15092592592592594,1,0,0,7.799332400000139,number3,False,True,True,34,4,2019_Nov_19_1204,MA_Theta_Exp,3.0.7,60.16119590834621,
video/Experiment/zh_sp01_Dr_Gr_2_GlobalTheta_NoVideo.avi,globalTheta,noVideo,sp01,Dr,Gr,2,4,5,flow/blocks/GlobalTheta_NoVideo_A.csv,,,,,,,,,0,4,4,4,0,6,6,5,,,,,,,,,-0.38333333333333336,-0.10787037037037037,1,0,0,5.006615300000021,call3,-0.004166666666666667,0.05740740740740741,1,0,0,5.432018099999823,colour2,0.4583333333333333,0.10740740740740741,1,0,0,5.918004099999962,number2,False,True,True,34,4,2019_Nov_19_1204,MA_Theta_Exp,3.0.7,60.16119590834621,
video/Experiment/zh_sp07_Ad_Ro_1_GlobalTheta_NoVideo.avi,globalTheta,noVideo,sp07,Ad,Ro,1,4,5,flow/blocks/GlobalTheta_NoVideo_A.csv,,,,,,,,,0,4,4,4,0,7,7,8,,,,,,,,,-0.4236111111111111,0.11851851851851852,1,0,0,6.676305199999888,call2,0.044444444444444446,0.07407407407407407,1,0,0,7.72932209999999,colour2,0.35833333333333334,0.2601851851851852,1,0,0,8.27649919999999,number1,False,False,True,34,4,2019_Nov_19_1204,MA_Theta_Exp,3.0.7,60.16119590834621,
video/Experiment/zh_sp07_Ad_Gr_1_GlobalTheta_NoVideo.avi,globalTheta,noVideo,sp07,Ad,Gr,1,4,5,flow/blocks/GlobalTheta_NoVideo_A.csv,,,,,,,,,0,4,4,4,0,8,8,4,,,,,,,,,-0.3680555555555556,0.34074074074074073,1,0,0,4.325166899999886,call1,0.05,0.12685185185185185,1,0,0,5.314866799999891,colour2,0.4125,0.26990740740740743,1,0,0,5.778303099999903,number1,True,True,True,34,4,2019_Nov_19_1204,MA_Theta_Exp,3.0.7,60.16119590834621,
video/Experiment/zh_sp07_Dr_Ro_2_GlobalTheta_NoVideo.avi,globalTheta,noVideo,sp07,Dr,Ro,2,4,5,flow/blocks/GlobalTheta_NoVideo_A.csv,,,,,,,,,0,4,4,4,0,9,9,9,,,,,,,,,-0.3541666666666667,0.287962962962963,1,0,0,5.422989099999995,call1,0.019444444444444445,-0.12037037037037036,1,0,0,6.3129109000001336,colour3,0.3541666666666667,0.2101851851851852,1,0,0,6.877026800000067,number1,False,True,False,34,4,2019_Nov_19_1204,MA_Theta_Exp,3.0.7,60.16119590834621,
video/Experiment/zh_sp01_Ad_We_1_GlobalTheta_NoVideo.avi,globalTheta,noVideo,sp01,Ad,We,1,4,5,flow/blocks/GlobalTheta_NoVideo_A.csv,,,,,,,,,0,4,4,4,0,10,10,12,,,,,,,,,-0.3972222222222222,0.2962962962962963,1,0,0,4.9088914999999815,call1,-0.029166666666666667,-0.33287037037037037,1,0,0,5.610686800000167,colour4,0.4083333333333333,0.2824074074074074,1,0,0,6.334535699999833,number1,True,True,True,34,4,2019_Nov_19_1204,MA_Theta_Exp,3.0.7,60.16119590834621,
video/Experiment/zh_sp07_Ti_Ge_4_GlobalTheta_NoVideo.avi,globalTheta,noVideo,sp07,Ti,Ge,4,4,5,flow/blocks/GlobalTheta_NoVideo_A.csv,,,,,,,,,0,4,4,4,0,11,11,3,,,,,,,,,-0.43472222222222223,-0.34814814814814815,1,0,0,7.210912600000029,call4,0.04861111111111111,0.29907407407407405,1,0,0,8.195544700000028,colour1,0.3638888888888889,-0.37175925925925923,1,0,0,8.91867030000003,number4,False,True,True,34,4,2019_Nov_19_1204,MA_Theta_Exp,3.0.7,60.16119590834621,
video/Experiment/zh_sp07_Dr_Gr_4_GlobalTheta_NoVideo.avi,globalTheta,noVideo,sp07,Dr,Gr,4,4,5,flow/blocks/GlobalTheta_NoVideo_A.csv,,,,,,,,,0,4,4,4,0,12,12,23,,,,,,,,,-0.3861111111111111,0.33796296296296297,1,0,0,4.645646700000043,call1,0.011111111111111112,0.3101851851851852,1,0,0,5.158745700000054,colour1,0.40555555555555556,-0.33425925925925926,1,0,0,8.768067900000005,number4,False,False,True,34,4,2019_Nov_19_1204,MA_Theta_Exp,3.0.7,60.16119590834621,
video/Experiment/zh_sp01_Un_Ro_3_GlobalTheta_NoVideo.avi,globalTheta,noVideo,sp01,Un,Ro,3,4,5,flow/blocks/GlobalTheta_NoVideo_A.csv,,,,,,,,,0,4,4,4,0,13,13,26,,,,,,,,,-0.3763888888888889,-0.07592592592592592,1,0,0,6.086996399999862,call3,0.03333333333333333,0.3143518518518518,1,0,0,7.174890900000037,colour1,0.4375,-0.06620370370370371,1,0,0,7.889160800000127,number3,False,False,True,34,4,2019_Nov_19_1204,MA_Theta_Exp,3.0.7,60.16119590834621,
video/Experiment/zh_sp01_Dr_Gr_3_GlobalTheta_NoVideo.avi,globalTheta,noVideo,sp01,Dr,Gr,3,4,5,flow/blocks/GlobalTheta_NoVideo_A.csv,,,,,,,,,0,4,4,4,0,14,14,6,,,,,,,,,-0.3875,-0.2912037037037037,1,0,0,5.114925500000027,call4,0.02361111111111111,0.10740740740740741,1,0,0,5.713779899999963,colour2,0.37916666666666665,-0.08564814814814815,1,0,0,6.280502100000149,number3,False,True,True,34,4,2019_Nov_19_1204,MA_Theta_Exp,3.0.7,60.16119590834621,
video/Experiment/zh_sp01_Un_We_1_GlobalTheta_NoVideo.avi,globalTheta,noVideo,sp01,Un,We,1,4,5,flow/blocks/GlobalTheta_NoVideo_A.csv,,,,,,,,,0,4,4,4,0,15,15,28,,,,,,,,,-0.3486111111111111,-0.29953703703703705,1,0,0,5.084056099999998,call4,0.04722222222222222,-0.32592592592592595,1,0,0,5.689570799999956,colour4,0.4236111111111111,0.3282407407407407,1,0,0,6.443748600000163,number1,True,True,True,34,4,2019_Nov_19_1204,MA_Theta_Exp,3.0.7,60.16119590834621,
video/Experiment/zh_sp01_Dr_We_2_GlobalTheta_NoVideo.avi,globalTheta,noVideo,sp01,Dr,We,2,4,5,flow/blocks/GlobalTheta_NoVideo_A.csv,,,,,,,,,0,4,4,4,0,16,16,13,,,,,,,,,-0.38055555555555554,0.3101851851851852,1,0,0,5.599924200000032,call1,-0.025,-0.3050925925925926,1,0,0,6.21891370000003,colour4,0.39861111111111114,0.09212962962962963,1,0,0,6.81501030000004,number2,False,True,True,34,4,2019_Nov_19_1204,MA_Theta_Exp,3.0.7,60.16119590834621,
video/Experiment/zh_sp01_Dr_Ge_4_GlobalTheta_NoVideo.avi,globalTheta,noVideo,sp01,Dr,Ge,4,4,5,flow/blocks/GlobalTheta_NoVideo_A.csv,,,,,,,,,0,4,4,4,0,17,17,19,,,,,,,,,-0.42083333333333334,-0.2800925925925926,1,0,0,4.760860299999877,call4,0.0125,0.350462962962963,1,0,0,5.695314300000064,colour1,0.3972222222222222,-0.32731481481481484,1,0,0,6.383325799999966,number4,False,True,True,34,4,2019_Nov_19_1204,MA_Theta_Exp,3.0.7,60.16119590834621,
video/Experiment/zh_sp01_Ti_Ge_1_GlobalTheta_NoVideo.avi,globalTheta,noVideo,sp01,Ti,Ge,1,4,5,flow/blocks/GlobalTheta_NoVideo_A.csv,,,,,,,,,0,4,4,4,0,18,18,16,,,,,,,,,-0.3888888888888889,-0.12453703703703704,1,0,0,5.829333599999927,call3,0.019444444444444445,0.3726851851851852,1,0,0,6.543970300000183,colour1,0.4361111111111111,0.28379629629629627,1,0,0,7.04286019999995,number1,True,True,True,34,4,2019_Nov_19_1204,MA_Theta_Exp,3.0.7,60.16119590834621,
video/Experiment/zh_sp07_Ti_Gr_4_GlobalTheta_NoVideo.avi,globalTheta,noVideo,sp07,Ti,Gr,4,4,5,flow/blocks/GlobalTheta_NoVideo_A.csv,,,,,,,,,0,4,4,4,0,19,19,7,,,,,,,,,-0.44583333333333336,-0.11203703703703703,1,0,0,5.6639864999999645,call3,0.008333333333333333,0.13796296296296295,1,0,0,6.122737400000005,colour2,0.36666666666666664,-0.32037037037037036,1,0,0,6.66438879999987,number4,True,True,True,34,4,2019_Nov_19_1204,MA_Theta_Exp,3.0.7,60.16119590834621,
video/Experiment/zh_sp01_Ad_We_2_GlobalTheta_NoVideo.avi,globalTheta,noVideo,sp01,Ad,We,2,4,5,flow/blocks/GlobalTheta_NoVideo_A.csv,,,,,,,,,0,4,4,4,0,20,20,29,,,,,,,,,-0.3611111111111111,0.28935185185185186,1,0,0,6.739227300000039,call1,0.016666666666666666,0.09074074074074075,1,0,0,7.20599500000003,colour2,0.4486111111111111,0.2824074074074074,1,0,0,7.635521599999947,number1,True,False,False,34,4,2019_Nov_19_1204,MA_Theta_Exp,3.0.7,60.16119590834621,
video/Experiment/zh_sp01_Dr_Ro_4_GlobalTheta_NoVideo.avi,globalTheta,noVideo,sp01,Dr,Ro,4,4,5,flow/blocks/GlobalTheta_NoVideo_A.csv,,,,,,,,,0,4,4,4,0,21,21,27,,,,,,,,,-0.4222222222222222,-0.08425925925925926,1,0,0,7.804938700000093,call3,0.016666666666666666,0.3296296296296296,1,0,0,8.73972660000004,colour1,0.43472222222222223,-0.37175925925925923,1,0,0,9.351356500000065,number4,False,False,True,34,4,2019_Nov_19_1204,MA_Theta_Exp,3.0.7,60.16119590834621,
video/Experiment/zh_sp01_Un_We_3_GlobalTheta_NoVideo.avi,globalTheta,noVideo,sp01,Un,We,3,4,5,flow/blocks/GlobalTheta_NoVideo_A.csv,,,,,,,,,0,4,4,4,0,22,22,14,,,,,,,,,-0.42083333333333334,-0.3162037037037037,1,0,0,4.790565099999867,call4,-0.02638888888888889,-0.3023148148148148,1,0,0,5.359271099999887,colour4,0.4111111111111111,-0.09814814814814815,1,0,0,5.845555999999988,number3,True,True,True,34,4,2019_Nov_19_1204,MA_Theta_Exp,3.0.7,60.16119590834621,
video/Experiment/zh_sp07_Ad_Gr_2_GlobalTheta_NoVideo.avi,globalTheta,noVideo,sp07,Ad,Gr,2,4,5,flow/blocks/GlobalTheta_NoVideo_A.csv,,,,,,,,,0,4,4,4,0,23,23,21,,,,,,,,,-0.4375,-0.31342592592592594,1,0,0,4.555584199999885,call4,-0.006944444444444444,0.1712962962962963,1,0,0,5.124058899999909,colour2,0.39861111111111114,0.12962962962962962,1,0,0,5.542290000000094,number2,False,True,True,34,4,2019_Nov_19_1204,MA_Theta_Exp,3.0.7,60.16119590834621,
video/Experiment/zh_sp07_Ti_We_4_GlobalTheta_NoVideo.avi,globalTheta,noVideo,sp07,Ti,We,4,4,5,flow/blocks/GlobalTheta_NoVideo_A.csv,,,,,,,,,0,4,4,4,0,24,24,31,,,,,,,,,-0.37777777777777777,0.1087962962962963,1,0,0,6.078755800000181,call2,0.03194444444444444,-0.36342592592592593,1,0,0,6.865788299999849,colour4,0.4375,-0.32592592592592595,1,0,0,7.741158700000142,number4,False,True,True,34,4,2019_Nov_19_1204,MA_Theta_Exp,3.0.7,60.16119590834621,
video/Experiment/zh_sp01_Un_Ge_2_GlobalTheta_NoVideo.avi,globalTheta,noVideo,sp01,Un,Ge,2,4,5,flow/blocks/GlobalTheta_NoVideo_A.csv,,,,,,,,,0,4,4,4,0,25,25,17,,,,,,,,,-0.375,-0.33287037037037037,1,0,0,5.229033400000162,call4,-0.05694444444444444,0.300462962962963,1,0,0,5.7930337999998756,colour1,0.45416666666666666,0.07407407407407407,1,0,0,6.253137299999935,number2,True,True,True,34,4,2019_Nov_19_1204,MA_Theta_Exp,3.0.7,60.16119590834621,
video/Experiment/zh_sp01_Ad_Ro_4_GlobalTheta_NoVideo.avi,globalTheta,noVideo,sp01,Ad,Ro,4,4,5,flow/blocks/GlobalTheta_NoVideo_A.csv,,,,,,,,,0,4,4,4,0,26,26,11,,,,,,,,,-0.3402777777777778,0.2671296296296296,1,0,0,5.309607299999925,call1,0.018055555555555554,-0.29814814814814816,1,0,0,6.411539100000027,colour4,0.44305555555555554,-0.3384259259259259,1,0,0,7.243297399999847,number4,True,False,True,34,4,2019_Nov_19_1204,MA_Theta_Exp,3.0.7,60.16119590834621,
video/Experiment/zh_sp01_Ti_Ro_3_GlobalTheta_NoVideo.avi,globalTheta,noVideo,sp01,Ti,Ro,3,4,5,flow/blocks/GlobalTheta_NoVideo_A.csv,,,,,,,,,0,4,4,4,0,27,27,10,,,,,,,,,-0.5166666666666667,-0.3189814814814815,1,0,0,4.884847600000057,call4,-0.016666666666666666,0.34629629629629627,1,0,0,5.775253700000121,colour1,0.35694444444444445,-0.1300925925925926,1,0,0,6.279100700000072,number3,False,False,True,34,4,2019_Nov_19_1204,MA_Theta_Exp,3.0.7,60.16119590834621,
video/Experiment/zh_sp01_Ad_We_3_GlobalTheta_NoVideo.avi,globalTheta,noVideo,sp01,Ad,We,3,4,5,flow/blocks/GlobalTheta_NoVideo_A.csv,,,,,,,,,0,4,4,4,0,28,28,30,,,,,,,,,-0.3958333333333333,0.3337962962962963,1,0,0,4.7207387999999355,call1,-0.011111111111111112,-0.3023148148148148,1,0,0,5.855766399999993,colour4,0.3638888888888889,-0.1050925925925926,1,0,0,6.266308600000002,number3,True,True,True,34,4,2019_Nov_19_1204,MA_Theta_Exp,3.0.7,60.16119590834621,
video/Experiment/zh_sp07_Un_Gr_1_GlobalTheta_NoVideo.avi,globalTheta,noVideo,sp07,Un,Gr,1,4,5,flow/blocks/GlobalTheta_NoVideo_A.csv,,,,,,,,,0,4,4,4,0,29,29,20,,,,,,,,,-0.4027777777777778,-0.3398148148148148,1,0,0,5.144890699999905,call4,-0.030555555555555555,0.049074074074074076,1,0,0,5.529890000000023,colour2,0.4263888888888889,0.30324074074074076,1,0,0,5.972921199999973,number1,True,True,True,34,4,2019_Nov_19_1204,MA_Theta_Exp,3.0.7,60.16119590834621,
video/Experiment/zh_sp07_Ti_Ro_2_GlobalTheta_NoVideo.avi,globalTheta,noVideo,sp07,Ti,Ro,2,4,5,flow/blocks/GlobalTheta_NoVideo_A.csv,,,,,,,,,0,4,4,4,0,30,30,25,,,,,,,,,-0.40555555555555556,0.300462962962963,1,0,0,6.254089700000122,call1,0.075,0.05185185185185185,1,0,0,8.004808400000002,colour2,0.45,0.2712962962962963,1,0,0,9.558637999999974,number1,False,False,False,34,4,2019_Nov_19_1204,MA_Theta_Exp,3.0.7,60.16119590834621,
video/Experiment/zh_sp07_Un_We_4_GlobalTheta_NoVideo.avi,globalTheta,noVideo,sp07,Un,We,4,4,5,flow/blocks/GlobalTheta_NoVideo_A.csv,,,,,,,,,0,4,4,4,0,31,31,15,,,,,,,,,-0.3388888888888889,0.300462962962963,1,0,0,7.541464299999916,call1,0.030555555555555555,-0.24259259259259258,1,0,0,8.171561900000142,colour4,0.45694444444444443,-0.05092592592592592,1,0,0,8.86239589999991,number3,False,True,False,34,4,2019_Nov_19_1204,MA_Theta_Exp,3.0.7,60.16119590834621,
video/Experiment/zh_sp01_Dr_Gr_1_NVocInAudio_NoVideo.avi,vocoded,noVideo,sp01,Dr,Gr,1,0,2,flow/blocks/NVocInAudio_NoVideo_B.csv,,,,,,,,,,,,,,,,,0,0,0,0,0,0,0,20,-0.4097222222222222,0.07546296296296297,1,0,0,5.635792500000207,call2,-0.022222222222222223,0.050462962962962966,1,0,0,6.135322299999643,colour2,0.41805555555555557,0.3060185185185185,1,0,0,6.913911200000257,number1,True,True,True,34,4,2019_Nov_19_1204,MA_Theta_Exp,3.0.7,60.16119590834621,
video/Experiment/zh_sp01_Un_Ge_4_NVocInAudio_NoVideo.avi,vocoded,noVideo,sp01,Un,Ge,4,0,2,flow/blocks/NVocInAudio_NoVideo_B.csv,,,,,,,,,,,,,,,,,0,0,0,0,0,1,1,19,-0.38333333333333336,-0.31342592592592594,1,0,0,5.686825499999941,call4,-0.03194444444444444,0.33101851851851855,1,0,0,6.355562499999905,colour1,0.4166666666666667,-0.3300925925925926,1,0,0,7.053667199999836,number4,True,True,True,34,4,2019_Nov_19_1204,MA_Theta_Exp,3.0.7,60.16119590834621,
video/Experiment/zh_sp01_Un_Gr_2_NVocInAudio_NoVideo.avi,vocoded,noVideo,sp01,Un,Gr,2,0,2,flow/blocks/NVocInAudio_NoVideo_B.csv,,,,,,,,,,,,,,,,,0,0,0,0,0,2,2,5,-0.39166666666666666,-0.29953703703703705,1,0,0,5.192789200000334,call4,-0.06111111111111111,0.1449074074074074,1,0,0,5.848434199999701,colour2,0.35555555555555557,0.11574074074074074,1,0,0,6.353502800000115,number2,True,True,True,34,4,2019_Nov_19_1204,MA_Theta_Exp,3.0.7,60.16119590834621,
video/Experiment/zh_sp07_Dr_Ro_1_NVocInAudio_NoVideo.avi,vocoded,noVideo,sp07,Dr,Ro,1,0,2,flow/blocks/NVocInAudio_NoVideo_B.csv,,,,,,,,,,,,,,,,,0,0,0,0,0,3,3,24,-0.38055555555555554,0.11435185185185186,1,0,0,7.363454600000296,call2,-0.019444444444444445,0.28935185185185186,1,0,0,8.10651310000003,colour1,0.45,0.287962962962963,1,0,0,8.629307500000323,number1,True,False,True,34,4,2019_Nov_19_1204,MA_Theta_Exp,3.0.7,60.16119590834621,
video/Experiment/zh_sp07_Ad_Ro_2_NVocInAudio_NoVideo.avi,vocoded,noVideo,sp07,Ad,Ro,2,0,2,flow/blocks/NVocInAudio_NoVideo_B.csv,,,,,,,,,,,,,,,,,0,0,0,0,0,4,4,25,-0.38333333333333336,0.33240740740740743,1,0,0,4.508988400000362,call1,0.016666666666666666,-0.12314814814814815,1,0,0,5.07662879999998,colour3,0.4111111111111111,0.1087962962962963,1,0,0,5.543357499999729,number2,True,True,True,34,4,2019_Nov_19_1204,MA_Theta_Exp,3.0.7,60.16119590834621,
video/Experiment/zh_sp01_Un_We_2_NVocInAudio_NoVideo.avi,vocoded,noVideo,sp01,Un,We,2,0,2,flow/blocks/NVocInAudio_NoVideo_B.csv,,,,,,,,,,,,,,,,,0,0,0,0,0,5,5,13,-0.3819444444444444,-0.32314814814814813,1,0,0,5.7759062000000085,call4,-0.04583333333333333,-0.3592592592592593,1,0,0,6.16924489999974,colour4,0.36666666666666664,0.0837962962962963,1,0,0,6.825820100000328,number2,True,True,True,34,4,2019_Nov_19_1204,MA_Theta_Exp,3.0.7,60.16119590834621,
video/Experiment/zh_sp07_Ti_Gr_2_NVocInAudio_NoVideo.avi,vocoded,noVideo,sp07,Ti,Gr,2,0,2,flow/blocks/NVocInAudio_NoVideo_B.csv,,,,,,,,,,,,,,,,,0,0,0,0,0,6,6,21,-0.35833333333333334,-0.16203703703703703,1,0,0,4.66297110000005,call3,-0.009722222222222222,0.08657407407407407,1,0,0,5.182913399999961,colour2,0.4166666666666667,0.0837962962962963,1,0,0,5.73087600000008,number2,True,True,True,34,4,2019_Nov_19_1204,MA_Theta_Exp,3.0.7,60.16119590834621,
video/Experiment/zh_sp01_Ad_Ge_2_NVocInAudio_NoVideo.avi,vocoded,noVideo,sp01,Ad,Ge,2,0,2,flow/blocks/NVocInAudio_NoVideo_B.csv,,,,,,,,,,,,,,,,,0,0,0,0,0,7,7,1,-0.3875,0.33935185185185185,1,0,0,5.761791999999787,call1,0.022222222222222223,0.2726851851851852,1,0,0,7.10461179999993,colour1,0.4652777777777778,0.05462962962962963,1,0,0,7.637111600000026,number2,True,True,True,34,4,2019_Nov_19_1204,MA_Theta_Exp,3.0.7,60.16119590834621,
video/Experiment/zh_sp01_Ad_Ge_1_NVocInAudio_NoVideo.avi,vocoded,noVideo,sp01,Ad,Ge,1,0,2,flow/blocks/NVocInAudio_NoVideo_B.csv,,,,,,,,,,,,,,,,,0,0,0,0,0,8,8,16,-0.4152777777777778,0.37824074074074077,1,0,0,5.09469080000008,call1,0.043055555555555555,0.3060185185185185,1,0,0,5.8945410999999694,colour1,0.3347222222222222,0.29768518518518516,1,0,0,6.3906364999998,number1,True,True,True,34,4,2019_Nov_19_1204,MA_Theta_Exp,3.0.7,60.16119590834621,
video/Experiment/zh_sp01_Ti_Gr_3_NVocInAudio_NoVideo.avi,vocoded,noVideo,sp01,Ti,Gr,3,0,2,flow/blocks/NVocInAudio_NoVideo_B.csv,,,,,,,,,,,,,,,,,0,0,0,0,0,9,9,22,-0.34305555555555556,-0.16064814814814815,1,0,0,6.684049100000266,call3,0.004166666666666667,0.0824074074074074,1,0,0,7.168640800000048,colour2,0.3958333333333333,-0.1648148148148148,1,0,0,7.745661299999938,number3,True,True,True,34,4,2019_Nov_19_1204,MA_Theta_Exp,3.0.7,60.16119590834621,
video/Experiment/zh_sp01_Ad_Ge_4_NVocInAudio_NoVideo.avi,vocoded,noVideo,sp01,Ad,Ge,4,0,2,flow/blocks/NVocInAudio_NoVideo_B.csv,,,,,,,,,,,,,,,,,0,0,0,0,0,10,10,3,-0.31527777777777777,0.3087962962962963,1,0,0,5.532584399999905,call1,0.09305555555555556,0.27685185185185185,1,0,0,6.042666700000154,colour1,0.4222222222222222,-0.2912037037037037,1,0,0,7.2398441000000275,number4,True,True,True,34,4,2019_Nov_19_1204,MA_Theta_Exp,3.0.7,60.16119590834621,
video/Experiment/zh_sp07_Dr_We_1_NVocInAudio_NoVideo.avi,vocoded,noVideo,sp07,Dr,We,1,0,2,flow/blocks/NVocInAudio_NoVideo_B.csv,,,,,,,,,,,,,,,,,0,0,0,0,0,11,11,28,-0.3597222222222222,0.11851851851851852,1,0,0,5.236279400000058,call2,-0.02361111111111111,-0.3175925925925926,1,0,0,5.72251069999993,colour4,0.36944444444444446,0.30185185185185187,1,0,0,6.369358599999941,number1,True,True,True,34,4,2019_Nov_19_1204,MA_Theta_Exp,3.0.7,60.16119590834621,
video/Experiment/zh_sp01_Ti_Ro_4_NVocInAudio_NoVideo.avi,vocoded,noVideo,sp01,Ti,Ro,4,0,2,flow/blocks/NVocInAudio_NoVideo_B.csv,,,,,,,,,,,,,,,,,0,0,0,0,0,12,12,11,-0.3638888888888889,-0.15925925925925927,1,0,0,5.665177299999868,call3,0.0,-0.08009259259259259,1,0,0,6.064557600000171,colour3,0.3486111111111111,-0.2953703703703704,1,0,0,6.586549600000126,number4,True,True,True,34,4,2019_Nov_19_1204,MA_Theta_Exp,3.0.7,60.16119590834621,
video/Experiment/zh_sp01_Ti_We_1_NVocInAudio_NoVideo.avi,vocoded,noVideo,sp01,Ti,We,1,0,2,flow/blocks/NVocInAudio_NoVideo_B.csv,,,,,,,,,,,,,,,,,0,0,0,0,0,13,13,12,-0.4875,-0.07314814814814814,1,0,0,5.583034999999654,call3,-0.05138888888888889,-0.28564814814814815,1,0,0,6.204261899999892,colour4,0.3611111111111111,0.28379629629629627,1,0,0,6.838782700000138,number1,True,True,True,34,4,2019_Nov_19_1204,MA_Theta_Exp,3.0.7,60.16119590834621,
video/Experiment/zh_sp07_Un_Ge_1_NVocInAudio_NoVideo.avi,vocoded,noVideo,sp07,Un,Ge,1,0,2,flow/blocks/NVocInAudio_NoVideo_B.csv,,,,,,,,,,,,,,,,,0,0,0,0,0,14,14,0,-0.4041666666666667,-0.3439814814814815,1,0,0,4.930123000000094,call4,-0.04583333333333333,0.2726851851851852,1,0,0,5.60710569999992,colour1,0.44722222222222224,0.30324074074074076,1,0,0,6.185356500000125,number1,True,True,True,34,4,2019_Nov_19_1204,MA_Theta_Exp,3.0.7,60.16119590834621,
video/Experiment/zh_sp07_Un_Ro_2_NVocInAudio_NoVideo.avi,vocoded,noVideo,sp07,Un,Ro,2,0,2,flow/blocks/NVocInAudio_NoVideo_B.csv,,,,,,,,,,,,,,,,,0,0,0,0,0,15,15,9,-0.36944444444444446,-0.28425925925925927,1,0,0,4.900482000000011,call4,-0.011111111111111112,-0.08425925925925926,1,0,0,5.786190599999827,colour3,0.2986111111111111,0.12129629629629629,1,0,0,6.491982200000166,number2,True,True,True,34,4,2019_Nov_19_1204,MA_Theta_Exp,3.0.7,60.16119590834621,
video/Experiment/zh_sp01_Dr_We_3_NVocInAudio_NoVideo.avi,vocoded,noVideo,sp01,Dr,We,3,0,2,flow/blocks/NVocInAudio_NoVideo_B.csv,,,,,,,,,,,,,,,,,0,0,0,0,0,16,16,14,-0.41944444444444445,0.08657407407407407,1,0,0,6.3818354,call2,-0.0125,-0.2828703703703704,1,0,0,6.984115799999927,colour4,0.4097222222222222,-0.15231481481481482,1,0,0,7.5065027000000555,number3,True,True,True,34,4,2019_Nov_19_1204,MA_Theta_Exp,3.0.7,60.16119590834621,
video/Experiment/zh_sp07_Dr_We_4_NVocInAudio_NoVideo.avi,vocoded,noVideo,sp07,Dr,We,4,0,2,flow/blocks/NVocInAudio_NoVideo_B.csv,,,,,,,,,,,,,,,,,0,0,0,0,0,17,17,15,-0.4263888888888889,0.08518518518518518,1,0,0,5.3586967999999615,call2,-0.03194444444444444,-0.30092592592592593,1,0,0,5.972846199999822,colour4,0.425,-0.2953703703703704,1,0,0,6.45889679999982,number4,True,True,True,34,4,2019_Nov_19_1204,MA_Theta_Exp,3.0.7,60.16119590834621,
video/Experiment/zh_sp01_Un_Gr_4_NVocInAudio_NoVideo.avi,vocoded,noVideo,sp01,Un,Gr,4,0,2,flow/blocks/NVocInAudio_NoVideo_B.csv,,,,,,,,,,,,,,,,,0,0,0,0,0,18,18,23,-0.4083333333333333,-0.3189814814814815,1,0,0,5.034762199999932,call4,-0.005555555555555556,0.07824074074074074,1,0,0,5.5838904999995975,colour2,0.4527777777777778,-0.29953703703703705,1,0,0,6.1292247999999745,number4,True,True,True,34,4,2019_Nov_19_1204,MA_Theta_Exp,3.0.7,60.16119590834621,
video/Experiment/zh_sp07_Ad_We_4_NVocInAudio_NoVideo.avi,vocoded,noVideo,sp07,Ad,We,4,0,2,flow/blocks/NVocInAudio_NoVideo_B.csv,,,,,,,,,,,,,,,,,0,0,0,0,0,19,19,31,-0.4097222222222222,0.31157407407407406,1,0,0,4.707508100000268,call1,-0.001388888888888889,-0.32037037037037036,1,0,0,5.3570088999999825,colour4,0.4041666666666667,-0.3162037037037037,1,0,0,5.838732100000016,number4,True,True,True,34,4,2019_Nov_19_1204,MA_Theta_Exp,3.0.7,60.16119590834621,
video/Experiment/zh_sp07_Dr_Ge_3_NVocInAudio_NoVideo.avi,vocoded,noVideo,sp07,Dr,Ge,3,0,2,flow/blocks/NVocInAudio_NoVideo_B.csv,,,,,,,,,,,,,,,,,0,0,0,0,0,20,20,2,-0.4152777777777778,0.11296296296296296,1,0,0,5.875082100000327,call2,-0.041666666666666664,0.3199074074074074,1,0,0,7.0964647999999215,colour1,0.49166666666666664,-0.1398148148148148,1,0,0,7.656634599999961,number3,True,True,True,34,4,2019_Nov_19_1204,MA_Theta_Exp,3.0.7,60.16119590834621,
video/Experiment/zh_sp01_Ti_Gr_1_NVocInAudio_NoVideo.avi,vocoded,noVideo,sp01,Ti,Gr,1,0,2,flow/blocks/NVocInAudio_NoVideo_B.csv,,,,,,,,,,,,,,,,,0,0,0,0,0,21,21,4,-0.4444444444444444,-0.08148148148148149,1,0,0,5.302497100000437,call3,0.0125,0.0699074074074074,1,0,0,6.101679299999887,colour2,0.41944444444444445,0.3282407407407407,1,0,0,6.592544999999973,number1,True,True,True,34,4,2019_Nov_19_1204,MA_Theta_Exp,3.0.7,60.16119590834621,
video/Experiment/zh_sp07_Ti_We_2_NVocInAudio_NoVideo.avi,vocoded,noVideo,sp07,Ti,We,2,0,2,flow/blocks/NVocInAudio_NoVideo_B.csv,,,,,,,,,,,,,,,,,0,0,0,0,0,22,22,29,-0.43333333333333335,-0.1287037037037037,1,0,0,5.1598901000002115,call3,-0.016666666666666666,-0.337037037037037,1,0,0,5.792942500000208,colour4,0.4166666666666667,0.18796296296296297,1,0,0,6.499638199999936,number2,True,True,True,34,4,2019_Nov_19_1204,MA_Theta_Exp,3.0.7,60.16119590834621,
video/Experiment/zh_sp07_Ad_Ge_3_NVocInAudio_NoVideo.avi,vocoded,noVideo,sp07,Ad,Ge,3,0,2,flow/blocks/NVocInAudio_NoVideo_B.csv,,,,,,,,,,,,,,,,,0,0,0,0,0,23,23,18,-0.3472222222222222,0.3921296296296296,1,0,0,4.991081699999995,call1,0.04027777777777778,0.3435185185185185,1,0,0,5.732728599999973,colour1,0.44722222222222224,-0.1787037037037037,1,0,0,6.319413300000178,number3,True,True,True,34,4,2019_Nov_19_1204,MA_Theta_Exp,3.0.7,60.16119590834621,
video/Experiment/zh_sp07_Dr_Ge_2_NVocInAudio_NoVideo.avi,vocoded,noVideo,sp07,Dr,Ge,2,0,2,flow/blocks/NVocInAudio_NoVideo_B.csv,,,,,,,,,,,,,,,,,0,0,0,0,0,24,24,17,-0.4166666666666667,0.05462962962962963,1,0,0,4.569674700000178,call2,-0.006944444444444444,0.31296296296296294,1,0,0,5.1420202999997855,colour1,0.4166666666666667,0.11018518518518519,1,0,0,5.6311273999999685,number2,True,True,True,34,4,2019_Nov_19_1204,MA_Theta_Exp,3.0.7,60.16119590834621,
video/Experiment/zh_sp07_Dr_Ro_3_NVocInAudio_NoVideo.avi,vocoded,noVideo,sp07,Dr,Ro,3,0,2,flow/blocks/NVocInAudio_NoVideo_B.csv,,,,,,,,,,,,,,,,,0,0,0,0,0,25,25,26,-0.38472222222222224,0.13935185185185187,1,0,0,5.470762300000388,call2,-0.008333333333333333,-0.08287037037037037,1,0,0,5.959239199999956,colour3,0.33194444444444443,-0.12175925925925926,1,0,0,6.452979700000014,number3,True,True,True,34,4,2019_Nov_19_1204,MA_Theta_Exp,3.0.7,60.16119590834621,
video/Experiment/zh_sp01_Ad_Ro_3_NVocInAudio_NoVideo.avi,vocoded,noVideo,sp01,Ad,Ro,3,0,2,flow/blocks/NVocInAudio_NoVideo_B.csv,,,,,,,,,,,,,,,,,0,0,0,0,0,26,26,10,-0.39305555555555555,0.2712962962962963,1,0,0,5.617243600000165,call1,-0.029166666666666667,-0.10092592592592593,1,0,0,6.254928599999857,colour3,0.37916666666666665,-0.11481481481481481,1,0,0,6.713800999999876,number3,True,True,True,34,4,2019_Nov_19_1204,MA_Theta_Exp,3.0.7,60.16119590834621,
video/Experiment/zh_sp07_Ti_We_3_NVocInAudio_NoVideo.avi,vocoded,noVideo,sp07,Ti,We,3,0,2,flow/blocks/NVocInAudio_NoVideo_B.csv,,,,,,,,,,,,,,,,,0,0,0,0,0,27,27,30,-0.32083333333333336,-0.06759259259259259,1,0,0,5.466986100000213,call3,-0.04027777777777778,-0.31203703703703706,1,0,0,5.939881199999945,colour4,0.3819444444444444,-0.12314814814814815,1,0,0,6.4258623999999145,number3,True,True,True,34,4,2019_Nov_19_1204,MA_Theta_Exp,3.0.7,60.16119590834621,
video/Experiment/zh_sp07_Ti_Ro_1_NVocInAudio_NoVideo.avi,vocoded,noVideo,sp07,Ti,Ro,1,0,2,flow/blocks/NVocInAudio_NoVideo_B.csv,,,,,,,,,,,,,,,,,0,0,0,0,0,28,28,8,-0.42083333333333334,-0.10787037037037037,1,0,0,4.704920299999685,call3,-0.05694444444444444,-0.09259259259259259,1,0,0,5.258359500000097,colour3,0.3597222222222222,0.2740740740740741,1,0,0,5.956934999999703,number1,True,True,True,34,4,2019_Nov_19_1204,MA_Theta_Exp,3.0.7,60.16119590834621,
video/Experiment/zh_sp01_Un_Gr_3_NVocInAudio_NoVideo.avi,vocoded,noVideo,sp01,Un,Gr,3,0,2,flow/blocks/NVocInAudio_NoVideo_B.csv,,,,,,,,,,,,,,,,,0,0,0,0,0,29,29,6,-0.37083333333333335,-0.3314814814814815,1,0,0,5.320866500000193,call4,0.019444444444444445,0.07546296296296297,1,0,0,5.932829800000036,colour2,0.4,-0.11481481481481481,1,0,0,6.664615199999844,number3,True,True,True,34,4,2019_Nov_19_1204,MA_Theta_Exp,3.0.7,60.16119590834621,
video/Experiment/zh_sp01_Un_Ro_4_NVocInAudio_NoVideo.avi,vocoded,noVideo,sp01,Un,Ro,4,0,2,flow/blocks/NVocInAudio_NoVideo_B.csv,,,,,,,,,,,,,,,,,0,0,0,0,0,30,30,27,-0.3472222222222222,-0.3648148148148148,1,0,0,5.613080000000082,call4,0.03888888888888889,-0.13564814814814816,1,0,0,6.9554817999996885,colour3,0.40694444444444444,-0.3037037037037037,1,0,0,7.91157370000019,number4,True,True,True,34,4,2019_Nov_19_1204,MA_Theta_Exp,3.0.7,60.16119590834621,
video/Experiment/zh_sp07_Ad_Gr_4_NVocInAudio_NoVideo.avi,vocoded,noVideo,sp07,Ad,Gr,4,0,2,flow/blocks/NVocInAudio_NoVideo_B.csv,,,,,,,,,,,,,,,,,0,0,0,0,0,31,31,7,-0.37777777777777777,0.29074074074074074,1,0,0,4.942994400000316,call1,0.022222222222222223,0.06018518518518518,1,0,0,5.454739199999949,colour2,0.39861111111111114,-0.16342592592592592,1,0,0,5.978060300000379,number3,True,True,False,34,4,2019_Nov_19_1204,MA_Theta_Exp,3.0.7,60.16119590834621,
video/Experiment/zh_sp01_Ad_Gr_2_NVocInAudio_GlobalThetaInVideo.avi,vocoded,plusVideo,sp01,Ad,Gr,2,1,1,flow/blocks/NVocInAudio_GlobalThetaInVideo_A.csv,,,,,,,,,,,,,,,,,0,1,1,1,0,0,0,21,-0.44305555555555554,0.35185185185185186,1,0,0,5.758869700000105,call1,0.044444444444444446,0.13796296296296295,1,0,0,6.404392800000096,colour2,0.45,0.10046296296296296,1,0,0,6.868276599999717,number2,True,True,True,34,4,2019_Nov_19_1204,MA_Theta_Exp,3.0.7,60.16119590834621,
video/Experiment/zh_sp07_Dr_Gr_4_NVocInAudio_GlobalThetaInVideo.avi,vocoded,plusVideo,sp07,Dr,Gr,4,1,1,flow/blocks/NVocInAudio_GlobalThetaInVideo_A.csv,,,,,,,,,,,,,,,,,0,1,1,1,0,1,1,23,-0.3527777777777778,0.11851851851851852,1,0,0,4.579140900000311,call2,0.03888888888888889,0.09074074074074075,1,0,0,5.158581700000013,colour2,0.4027777777777778,-0.30787037037037035,1,0,0,5.8001366000003145,number4,True,True,True,34,4,2019_Nov_19_1204,MA_Theta_Exp,3.0.7,60.16119590834621,
video/Experiment/zh_sp01_Ti_Ro_3_NVocInAudio_GlobalThetaInVideo.avi,vocoded,plusVideo,sp01,Ti,Ro,3,1,1,flow/blocks/NVocInAudio_GlobalThetaInVideo_A.csv,,,,,,,,,,,,,,,,,0,1,1,1,0,2,2,10,-0.42916666666666664,-0.16620370370370371,1,0,0,6.086857799999962,call3,0.025,-0.05925925925925926,1,0,0,7.4672324000002845,colour3,0.4027777777777778,-0.11064814814814815,1,0,0,7.891063199999735,number3,True,True,True,34,4,2019_Nov_19_1204,MA_Theta_Exp,3.0.7,60.16119590834621,
video/Experiment/zh_sp07_Un_Ge_3_NVocInAudio_GlobalThetaInVideo.avi,vocoded,plusVideo,sp07,Un,Ge,3,1,1,flow/blocks/NVocInAudio_GlobalThetaInVideo_A.csv,,,,,,,,,,,,,,,,,0,1,1,1,0,3,3,2,-0.425,-0.28425925925925927,1,0,0,5.382729799999652,call4,-0.05,0.2324074074074074,1,0,0,6.197782300000199,colour1,0.46805555555555556,-0.11898148148148148,1,0,0,7.094563499999822,number3,True,True,True,34,4,2019_Nov_19_1204,MA_Theta_Exp,3.0.7,60.16119590834621,
video/Experiment/zh_sp07_Dr_Ro_4_NVocInAudio_GlobalThetaInVideo.avi,vocoded,plusVideo,sp07,Dr,Ro,4,1,1,flow/blocks/NVocInAudio_GlobalThetaInVideo_A.csv,,,,,,,,,,,,,,,,,0,1,1,1,0,4,4,27,-0.42916666666666664,0.06435185185185185,1,0,0,5.540567199999714,call2,0.058333333333333334,-0.13287037037037036,1,0,0,6.171044599999732,colour3,0.3972222222222222,-0.3175925925925926,1,0,0,6.691699599999993,number4,True,True,True,34,4,2019_Nov_19_1204,MA_Theta_Exp,3.0.7,60.16119590834621,
video/Experiment/zh_sp07_Dr_Gr_2_NVocInAudio_GlobalThetaInVideo.avi,vocoded,plusVideo,sp07,Dr,Gr,2,1,1,flow/blocks/NVocInAudio_GlobalThetaInVideo_A.csv,,,,,,,,,,,,,,,,,0,1,1,1,0,5,5,5,-0.4222222222222222,0.1087962962962963,1,0,0,5.0839381000000685,call2,-0.04027777777777778,0.08101851851851852,1,0,0,5.550435199999811,colour2,0.3416666666666667,0.12685185185185185,1,0,0,5.994761599999947,number2,True,True,True,34,4,2019_Nov_19_1204,MA_Theta_Exp,3.0.7,60.16119590834621,
video/Experiment/zh_sp07_Un_We_1_NVocInAudio_GlobalThetaInVideo.avi,vocoded,plusVideo,sp07,Un,We,1,1,1,flow/blocks/NVocInAudio_GlobalThetaInVideo_A.csv,,,,,,,,,,,,,,,,,0,1,1,1,0,6,6,28,-0.4013888888888889,-0.3162037037037037,1,0,0,4.3736275000001115,call4,0.025,-0.28703703703703703,1,0,0,5.956399000000147,colour4,0.39305555555555555,0.29907407407407405,1,0,0,6.5534592999997585,number1,True,True,True,34,4,2019_Nov_19_1204,MA_Theta_Exp,3.0.7,60.16119590834621,
video/Experiment/zh_sp07_Dr_Gr_3_NVocInAudio_GlobalThetaInVideo.avi,vocoded,plusVideo,sp07,Dr,Gr,3,1,1,flow/blocks/NVocInAudio_GlobalThetaInVideo_A.csv,,,,,,,,,,,,,,,,,0,1,1,1,0,7,7,6,-0.3902777777777778,0.16944444444444445,1,0,0,5.491368800000146,call2,0.03333333333333333,0.05555555555555555,1,0,0,6.050072900000032,colour2,0.39166666666666666,-0.1736111111111111,1,0,0,6.639156600000206,number3,True,True,True,34,4,2019_Nov_19_1204,MA_Theta_Exp,3.0.7,60.16119590834621,
video/Experiment/zh_sp07_Ad_We_2_NVocInAudio_GlobalThetaInVideo.avi,vocoded,plusVideo,sp07,Ad,We,2,1,1,flow/blocks/NVocInAudio_GlobalThetaInVideo_A.csv,,,,,,,,,,,,,,,,,0,1,1,1,0,8,8,29,-0.4111111111111111,0.32916666666666666,1,0,0,4.622689199999968,call1,-0.07083333333333333,-0.3375,1,0,0,5.2241776000000755,colour4,0.4236111111111111,0.09583333333333334,1,0,0,5.942600500000026,number2,True,True,True,34,4,2019_Nov_19_1204,MA_Theta_Exp,3.0.7,60.16119590834621,
video/Experiment/zh_sp01_Ad_We_1_NVocInAudio_GlobalThetaInVideo.avi,vocoded,plusVideo,sp01,Ad,We,1,1,1,flow/blocks/NVocInAudio_GlobalThetaInVideo_A.csv,,,,,,,,,,,,,,,,,0,1,1,1,0,9,9,12,-0.3875,0.3486111111111111,1,0,0,5.693704300000263,call1,-0.04861111111111111,-0.2916666666666667,1,0,0,6.871448999999757,colour4,0.46111111111111114,0.3263888888888889,1,0,0,7.670972100000199,number1,True,True,True,34,4,2019_Nov_19_1204,MA_Theta_Exp,3.0.7,60.16119590834621,
video/Experiment/zh_sp07_Dr_Ge_1_NVocInAudio_GlobalThetaInVideo.avi,vocoded,plusVideo,sp07,Dr,Ge,1,1,1,flow/blocks/NVocInAudio_GlobalThetaInVideo_A.csv,,,,,,,,,,,,,,,,,0,1,1,1,0,10,10,0,-0.3888888888888889,0.075,1,0,0,7.923768999999993,call2,0.05416666666666667,0.3194444444444444,1,0,0,8.75761280000006,colour1,0.3875,0.2152777777777778,1,0,0,9.223671000000195,number1,True,True,True,34,4,2019_Nov_19_1204,MA_Theta_Exp,3.0.7,60.16119590834621,
video/Experiment/zh_sp07_Un_Ge_2_NVocInAudio_GlobalThetaInVideo.avi,vocoded,plusVideo,sp07,Un,Ge,2,1,1,flow/blocks/NVocInAudio_GlobalThetaInVideo_A.csv,,,,,,,,,,,,,,,,,0,1,1,1,0,11,11,17,-0.4375,-0.24444444444444444,1,0,0,4.869683200000054,call4,0.044444444444444446,0.3111111111111111,1,0,0,6.197249899999861,colour1,0.40694444444444444,0.029166666666666667,1,0,0,6.737238299999717,number2,True,True,True,34,4,2019_Nov_19_1204,MA_Theta_Exp,3.0.7,60.16119590834621,
video/Experiment/zh_sp07_Ti_Ge_4_NVocInAudio_GlobalThetaInVideo.avi,vocoded,plusVideo,sp07,Ti,Ge,4,1,1,flow/blocks/NVocInAudio_GlobalThetaInVideo_A.csv,,,,,,,,,,,,,,,,,0,1,1,1,0,12,12,3,-0.35555555555555557,-0.1111111111111111,1,0,0,4.785051399999702,call3,0.013888888888888888,0.29583333333333334,1,0,0,5.474183299999822,colour1,0.37083333333333335,-0.31666666666666665,1,0,0,6.399730299999646,number4,True,True,True,34,4,2019_Nov_19_1204,MA_Theta_Exp,3.0.7,60.16119590834621,
video/Experiment/zh_sp01_Un_Ro_1_NVocInAudio_GlobalThetaInVideo.avi,vocoded,plusVideo,sp01,Un,Ro,1,1,1,flow/blocks/NVocInAudio_GlobalThetaInVideo_A.csv,,,,,,,,,,,,,,,,,0,1,1,1,0,13,13,24,-0.44166666666666665,-0.29583333333333334,1,0,0,5.094826399999874,call4,-0.0763888888888889,-0.09583333333333334,1,0,0,5.832458700000188,colour3,0.375,0.33194444444444443,1,0,0,6.466038900000058,number1,True,True,True,34,4,2019_Nov_19_1204,MA_Theta_Exp,3.0.7,60.16119590834621,
