videoFile,condition,video,speaker,callSign,colour,number,seq,id,block,exp.thisRepN,exp.thisTrialN,exp.thisN,exp.thisIndex,training.thisRepN,training.thisTrialN,training.thisN,training.thisIndex,firstHalf.thisRepN,firstHalf.thisTrialN,firstHalf.thisN,firstHalf.thisIndex,blocksA.thisRepN,blocksA.thisTrialN,blocksA.thisN,blocksA.thisIndex,mouseClickOnCall.x,mouseClickOnCall.y,mouseClickOnCall.leftButton,mouseClickOnCall.midButton,mouseClickOnCall.rightButton,mouseClickOnCall.time,mouseClickOnCall.clicked_name,mouseClickOnColour.x,mouseClickOnColour.y,mouseClickOnColour.leftButton,mouseClickOnColour.midButton,mouseClickOnColour.rightButton,mouseClickOnColour.time,mouseClickOnColour.clicked_name,mouseClickOnNumber.x,mouseClickOnNumber.y,mouseClickOnNumber.leftButton,mouseClickOnNumber.midButton,mouseClickOnNumber.rightButton,mouseClickOnNumber.time,mouseClickOnNumber.clicked_name,callSignCorrect,colourCorrect,numberCorrect,participant,order,date,expName,psychopyVersion,frameRate,
video/Training/zh_sp01_Ad_We_4_NVocInAudio_NoVideo.avi,vocoded,noVideo,sp01,Ad,We,4,,,,,,,,0,0,0,0,,,,,,,,,-0.4236111111111111,0.300462962962963,1,0,0,7.004093399999988,call1,-0.02361111111111111,-0.3523148148148148,1,0,0,8.14986799999997,colour4,0.4388888888888889,-0.29398148148148145,1,0,0,8.949724199999991,number4,True,True,True,34,4,2019_Nov_19_1204,MA_Theta_Exp,3.0.7,60.16119590834621,
video/Training/zh_sp07_Ad_Ge_3_NVocInAudio_NoVideo.avi,vocoded,noVideo,sp07,Ad,Ge,3,,,,,,,,0,1,1,1,,,,,,,,,-0.425,0.34074074074074073,1,0,0,5.157907000000023,call1,0.034722222222222224,0.287962962962963,1,0,0,6.171933999999965,colour1,0.4222222222222222,-0.08009259259259259,1,0,0,7.142539899999974,number3,True,True,True,34,4,2019_Nov_19_1204,MA_Theta_Exp,3.0.7,60.16119590834621,
video/Training/zh_sp01_Dr_Ro_3_NVocInAudio_GlobalThetaInVideo.avi,vocoded,plusVideo,sp01,Dr,Ro,3,,,,,,,,0,2,2,2,,,,,,,,,-0.3888888888888889,0.13796296296296295,1,0,0,5.8023582000000715,call2,0.008333333333333333,-0.08425925925925926,1,0,0,7.20316600000001,colour3,0.4,-0.14675925925925926,1,0,0,7.975482700000043,number3,True,True,True,34,4,2019_Nov_19_1204,MA_Theta_Exp,3.0.7,60.16119590834621,
video/Training/zh_sp07_Dr_Gr_4_NVocInAudio_GlobalThetaInVideo.avi,vocoded,plusVideo,sp07,Dr,Gr,4,,,,,,,,0,3,3,3,,,,,,,,,-0.45,0.14629629629629629,1,0,0,5.007240900000056,call2,-0.05138888888888889,0.06851851851851852,1,0,0,5.609972200000016,colour2,0.3402777777777778,-0.31203703703703706,1,0,0,6.366735000000062,number4,True,True,True,34,4,2019_Nov_19_1204,MA_Theta_Exp,3.0.7,60.16119590834621,
video/Training/zh_sp01_Ti_Gr_2_NoThetaInAudio_NoVideo.avi,noTheta,noVideo,sp01,Ti,Gr,2,,,,,,,,0,4,4,4,,,,,,,,,-0.39166666666666666,0.07546296296296297,1,0,0,8.616941499999939,call2,0.013888888888888888,-0.1550925925925926,1,0,0,13.117801199999917,colour3,,,,,,,,False,False,NO_ANSW,34,4,2019_Nov_19_1204,MA_Theta_Exp,3.0.7,60.16119590834621,
video/Training/zh_sp07_Ti_Ro_1_NoThetaInAudio_NoVideo.avi,noTheta,noVideo,sp07,Ti,Ro,1,,,,,,,,0,5,5,5,,,,,,,,,0.3680555555555556,0.31851851851851853,1,0,0,4.867540200000008,call1,0.0,-0.1162037037037037,1,0,0,7.751041299999997,colour3,0.3875,0.33935185185185185,1,0,0,8.368624899999986,number1,False,True,True,34,4,2019_Nov_19_1204,MA_Theta_Exp,3.0.7,60.16119590834621,
video/Training/zh_sp01_Un_Ge_1_NoThetaInAudio_GlobalThetaInVideo.avi,noTheta,plusVideo,sp01,Un,Ge,1,,,,,,,,0,6,6,6,,,,,,,,,-0.36944444444444446,0.33935185185185185,1,0,0,6.331881899999985,call1,0.05555555555555555,0.021296296296296296,1,0,0,7.512110900000039,colour2,0.3972222222222222,0.28935185185185186,1,0,0,8.18151290000003,number1,False,False,True,34,4,2019_Nov_19_1204,MA_Theta_Exp,3.0.7,60.16119590834621,
video/Training/zh_sp07_Un_We_2_NoThetaInAudio_GlobalThetaInVideo.avi,noTheta,plusVideo,sp07,Un,We,2,,,,,,,,0,7,7,7,,,,,,,,,-0.37222222222222223,-0.3162037037037037,1,0,0,6.118393099999935,call4,0.05277777777777778,0.31574074074074077,1,0,0,7.597262099999966,colour1,0.4083333333333333,-0.04953703703703704,1,0,0,9.591902699999991,number3,True,False,False,34,4,2019_Nov_19_1204,MA_Theta_Exp,3.0.7,60.16119590834621,
video/Training/zh_sp01_Ad_Ge_1_GlobalTheta_NoVideo.avi,globalTheta,noVideo,sp01,Ad,Ge,1,,,,,,,,0,8,8,8,,,,,,,,,-0.3875,-0.08842592592592592,1,0,0,5.4593241000000035,call3,0.0375,0.13518518518518519,1,0,0,6.324392799999941,colour2,0.42083333333333334,0.3296296296296296,1,0,0,6.84921339999994,number1,False,False,True,34,4,2019_Nov_19_1204,MA_Theta_Exp,3.0.7,60.16119590834621,
video/Training/zh_sp07_Ad_Ro_3_GlobalTheta_NoVideo.avi,globalTheta,noVideo,sp07,Ad,Ro,3,,,,,,,,0,9,9,9,,,,,,,,,-0.3611111111111111,0.33240740740740743,1,0,0,4.663987499999962,call1,-0.022222222222222223,-0.11898148148148148,1,0,0,6.937447399999996,colour3,0.4,-0.13148148148148148,1,0,0,7.45686610000007,number3,True,True,True,34,4,2019_Nov_19_1204,MA_Theta_Exp,3.0.7,60.16119590834621,
video/Experiment/zh_sp01_Ad_We_1_NVocInAudio_GlobalThetaInVideo.avi,vocoded,plusVideo,sp01,Ad,We,1,0,1,flow/blocks/NVocInAudio_GlobalThetaInVideo_A.csv,,,,,,,,,0,0,0,0,0,0,0,12,-0.4513888888888889,0.33240740740740743,1,0,0,5.40550989999997,call1,0.03333333333333333,-0.3453703703703704,1,0,0,6.35216790000004,colour4,0.37222222222222223,0.3365740740740741,1,0,0,7.095065100000056,number1,True,True,True,34,4,2019_Nov_19_1204,MA_Theta_Exp,3.0.7,60.16119590834621,
video/Experiment/zh_sp07_Un_Ge_2_NVocInAudio_GlobalThetaInVideo.avi,vocoded,plusVideo,sp07,Un,Ge,2,0,1,flow/blocks/NVocInAudio_GlobalThetaInVideo_A.csv,,,,,,,,,0,0,0,0,0,1,1,17,-0.3861111111111111,-0.3300925925925926,1,0,0,6.244934199999989,call4,0.018055555555555554,0.31851851851851853,1,0,0,8.420929900000033,colour1,0.4125,0.10740740740740741,1,0,0,8.976354700000002,number2,True,True,True,34,4,2019_Nov_19_1204,MA_Theta_Exp,3.0.7,60.16119590834621,
video/Experiment/zh_sp01_Ad_Gr_2_NVocInAudio_GlobalThetaInVideo.avi,vocoded,plusVideo,sp01,Ad,Gr,2,0,1,flow/blocks/NVocInAudio_GlobalThetaInVideo_A.csv,,,,,,,,,0,0,0,0,0,2,2,21,-0.425,0.3087962962962963,1,0,0,5.468217200000026,call1,-0.001388888888888889,0.09351851851851851,1,0,0,6.103658100000075,colour2,0.4388888888888889,0.12962962962962962,1,0,0,7.210388200000011,number2,True,True,True,34,4,2019_Nov_19_1204,MA_Theta_Exp,3.0.7,60.16119590834621,
video/Experiment/zh_sp01_Ti_Ro_2_NVocInAudio_GlobalThetaInVideo.avi,vocoded,plusVideo,sp01,Ti,Ro,2,0,1,flow/blocks/NVocInAudio_GlobalThetaInVideo_A.csv,,,,,,,,,0,0,0,0,0,3,3,25,-0.44583333333333336,-0.08703703703703704,1,0,0,5.6958773000000065,call3,0.011111111111111112,-0.07037037037037037,1,0,0,6.261615300000017,colour3,0.3875,0.09212962962962963,1,0,0,7.331711799999994,number2,True,True,True,34,4,2019_Nov_19_1204,MA_Theta_Exp,3.0.7,60.16119590834621,
video/Experiment/zh_sp07_Ti_Ge_4_NVocInAudio_GlobalThetaInVideo.avi,vocoded,plusVideo,sp07,Ti,Ge,4,0,1,flow/blocks/NVocInAudio_GlobalThetaInVideo_A.csv,,,,,,,,,0,0,0,0,0,4,4,3,-0.4,-0.12453703703703704,1,0,0,4.878122400000052,call3,-0.03194444444444444,0.31157407407407406,1,0,0,5.468319999999949,colour1,0.3861111111111111,-0.32731481481481484,1,0,0,6.195700299999999,number4,True,True,True,34,4,2019_Nov_19_1204,MA_Theta_Exp,3.0.7,60.16119590834621,
video/Experiment/zh_sp07_Un_We_1_NVocInAudio_GlobalThetaInVideo.avi,vocoded,plusVideo,sp07,Un,We,1,0,1,flow/blocks/NVocInAudio_GlobalThetaInVideo_A.csv,,,,,,,,,0,0,0,0,0,5,5,28,-0.4222222222222222,-0.33425925925925926,1,0,0,4.633208099999933,call4,0.015277777777777777,-0.25092592592592594,1,0,0,5.796932599999991,colour4,0.38055555555555554,0.3574074074074074,1,0,0,6.652786100000071,number1,True,True,True,34,4,2019_Nov_19_1204,MA_Theta_Exp,3.0.7,60.16119590834621,
video/Experiment/zh_sp07_Un_Ge_3_NVocInAudio_GlobalThetaInVideo.avi,vocoded,plusVideo,sp07,Un,Ge,3,0,1,flow/blocks/NVocInAudio_GlobalThetaInVideo_A.csv,,,,,,,,,0,0,0,0,0,6,6,2,-0.4388888888888889,-0.2828703703703704,1,0,0,5.142316499999993,call4,-0.05416666666666667,0.31851851851851853,1,0,0,5.7923852000000124,colour1,0.40694444444444444,-0.11342592592592593,1,0,0,6.458161300000029,number3,True,True,True,34,4,2019_Nov_19_1204,MA_Theta_Exp,3.0.7,60.16119590834621,
video/Experiment/zh_sp01_Un_Gr_1_NVocInAudio_GlobalThetaInVideo.avi,vocoded,plusVideo,sp01,Un,Gr,1,0,1,flow/blocks/NVocInAudio_GlobalThetaInVideo_A.csv,,,,,,,,,0,0,0,0,0,7,7,20,-0.3902777777777778,-0.30925925925925923,1,0,0,5.846137900000031,call4,-0.07361111111111111,0.12268518518518519,1,0,0,6.668392900000072,colour2,0.44166666666666665,0.3351851851851852,1,0,0,7.510129299999903,number1,True,True,True,34,4,2019_Nov_19_1204,MA_Theta_Exp,3.0.7,60.16119590834621,
video/Experiment/zh_sp07_Dr_Gr_3_NVocInAudio_GlobalThetaInVideo.avi,vocoded,plusVideo,sp07,Dr,Gr,3,0,1,flow/blocks/NVocInAudio_GlobalThetaInVideo_A.csv,,,,,,,,,0,0,0,0,0,8,8,6,-0.42916666666666664,0.09490740740740741,1,0,0,4.933829699999933,call2,0.06527777777777778,0.13935185185185187,1,0,0,5.638401700000031,colour2,0.39861111111111114,-0.11481481481481481,1,0,0,6.251215100000081,number3,True,True,True,34,4,2019_Nov_19_1204,MA_Theta_Exp,3.0.7,60.16119590834621,
video/Experiment/zh_sp01_Dr_Ro_2_NVocInAudio_GlobalThetaInVideo.avi,vocoded,plusVideo,sp01,Dr,Ro,2,0,1,flow/blocks/NVocInAudio_GlobalThetaInVideo_A.csv,,,,,,,,,0,0,0,0,0,9,9,9,-0.375,0.10601851851851851,1,0,0,5.164298400000007,call2,-0.034722222222222224,-0.07037037037037037,1,0,0,5.775417000000061,colour3,0.39305555555555555,0.11435185185185186,1,0,0,6.3817573999999695,number2,True,True,True,34,4,2019_Nov_19_1204,MA_Theta_Exp,3.0.7,60.16119590834621,
video/Experiment/zh_sp01_Ti_Ge_2_NVocInAudio_GlobalThetaInVideo.avi,vocoded,plusVideo,sp01,Ti,Ge,2,0,1,flow/blocks/NVocInAudio_GlobalThetaInVideo_A.csv,,,,,,,,,0,0,0,0,0,10,10,1,-0.41388888888888886,-0.08842592592592592,1,0,0,5.65864339999996,call3,-0.008333333333333333,0.3101851851851852,1,0,0,6.257856400000037,colour1,0.44166666666666665,0.09351851851851851,1,0,0,6.9697386999999935,number2,True,True,True,34,4,2019_Nov_19_1204,MA_Theta_Exp,3.0.7,60.16119590834621,
video/Experiment/zh_sp07_Ad_We_2_NVocInAudio_GlobalThetaInVideo.avi,vocoded,plusVideo,sp07,Ad,We,2,0,1,flow/blocks/NVocInAudio_GlobalThetaInVideo_A.csv,,,,,,,,,0,0,0,0,0,11,11,29,-0.3625,-0.3175925925925926,1,0,0,6.377291599999921,call4,0.011111111111111112,0.30185185185185187,1,0,0,7.551496200000088,colour1,0.4638888888888889,0.06712962962962964,1,0,0,8.137324700000022,number2,False,False,True,34,4,2019_Nov_19_1204,MA_Theta_Exp,3.0.7,60.16119590834621,
video/Experiment/zh_sp07_Dr_Ge_4_NVocInAudio_GlobalThetaInVideo.avi,vocoded,plusVideo,sp07,Dr,Ge,4,0,1,flow/blocks/NVocInAudio_GlobalThetaInVideo_A.csv,,,,,,,,,0,0,0,0,0,12,12,19,-0.4013888888888889,0.050462962962962966,1,0,0,4.964513399999987,call2,-0.013888888888888888,0.28935185185185186,1,0,0,5.607223499999918,colour1,0.3902777777777778,-0.3425925925925926,1,0,0,6.3904357999999775,number4,True,True,True,34,4,2019_Nov_19_1204,MA_Theta_Exp,3.0.7,60.16119590834621,
video/Experiment/zh_sp01_Un_We_4_NVocInAudio_GlobalThetaInVideo.avi,vocoded,plusVideo,sp01,Un,We,4,0,1,flow/blocks/NVocInAudio_GlobalThetaInVideo_A.csv,,,,,,,,,0,0,0,0,0,13,13,15,-0.4305555555555556,-0.3023148148148148,1,0,0,5.981811999999991,call4,-0.004166666666666667,-0.3148148148148148,1,0,0,7.022563800000057,colour4,0.45,-0.3287037037037037,1,0,0,7.565661999999975,number4,True,True,True,34,4,2019_Nov_19_1204,MA_Theta_Exp,3.0.7,60.16119590834621,
video/Experiment/zh_sp01_Ti_Gr_4_NVocInAudio_GlobalThetaInVideo.avi,vocoded,plusVideo,sp01,Ti,Gr,4,0,1,flow/blocks/NVocInAudio_GlobalThetaInVideo_A.csv,,,,,,,,,0,0,0,0,0,14,14,7,-0.39166666666666666,-0.12731481481481483,1,0,0,5.258989499999984,call3,-0.025,0.09768518518518518,1,0,0,5.860959500000035,colour2,0.37916666666666665,-0.3050925925925926,1,0,0,6.4311298999999735,number4,True,True,True,34,4,2019_Nov_19_1204,MA_Theta_Exp,3.0.7,60.16119590834621,
video/Experiment/zh_sp07_Dr_Ro_4_NVocInAudio_GlobalThetaInVideo.avi,vocoded,plusVideo,sp07,Dr,Ro,4,0,1,flow/blocks/NVocInAudio_GlobalThetaInVideo_A.csv,,,,,,,,,0,0,0,0,0,15,15,27,-0.3638888888888889,0.10462962962962963,1,0,0,6.339691399999992,call2,0.025,-0.1425925925925926,1,0,0,7.115857900000037,colour3,0.3638888888888889,-0.3106481481481482,1,0,0,7.785954300000071,number4,True,True,True,34,4,2019_Nov_19_1204,MA_Theta_Exp,3.0.7,60.16119590834621,
video/Experiment/zh_sp01_Un_Ro_1_NVocInAudio_GlobalThetaInVideo.avi,vocoded,plusVideo,sp01,Un,Ro,1,0,1,flow/blocks/NVocInAudio_GlobalThetaInVideo_A.csv,,,,,,,,,0,0,0,0,0,16,16,24,-0.39166666666666666,-0.3300925925925926,1,0,0,5.410223099999939,call4,-0.019444444444444445,-0.11481481481481481,1,0,0,6.487321199999997,colour3,0.37222222222222223,0.31712962962962965,1,0,0,7.207521500000098,number1,True,True,True,34,4,2019_Nov_19_1204,MA_Theta_Exp,3.0.7,60.16119590834621,
video/Experiment/zh_sp01_Ti_Ro_3_NVocInAudio_GlobalThetaInVideo.avi,vocoded,plusVideo,sp01,Ti,Ro,3,0,1,flow/blocks/NVocInAudio_GlobalThetaInVideo_A.csv,,,,,,,,,0,0,0,0,0,17,17,10,-0.44305555555555554,-0.13148148148148148,1,0,0,5.249201900000003,call3,0.013888888888888888,-0.10925925925925926,1,0,0,5.804547899999989,colour3,0.43333333333333335,-0.09259259259259259,1,0,0,6.276838399999974,number3,True,True,True,34,4,2019_Nov_19_1204,MA_Theta_Exp,3.0.7,60.16119590834621,
video/Experiment/zh_sp01_Ad_Gr_3_NVocInAudio_GlobalThetaInVideo.avi,vocoded,plusVideo,sp01,Ad,Gr,3,0,1,flow/blocks/NVocInAudio_GlobalThetaInVideo_A.csv,,,,,,,,,0,0,0,0,0,18,18,22,-0.42083333333333334,0.33935185185185185,1,0,0,5.312200999999959,call1,0.02361111111111111,0.11712962962962963,1,0,0,5.81827700000008,colour2,0.4097222222222222,-0.15092592592592594,1,0,0,6.455472999999984,number3,True,True,True,34,4,2019_Nov_19_1204,MA_Theta_Exp,3.0.7,60.16119590834621,
video/Experiment/zh_sp07_Dr_Gr_4_NVocInAudio_GlobalThetaInVideo.avi,vocoded,plusVideo,sp07,Dr,Gr,4,0,1,flow/blocks/NVocInAudio_GlobalThetaInVideo_A.csv,,,,,,,,,0,0,0,0,0,19,19,23,-0.3736111111111111,0.07268518518518519,1,0,0,4.57326050000006,call2,0.041666666666666664,0.07407407407407407,1,0,0,5.057422200000019,colour2,0.425,-0.324537037037037,1,0,0,6.603166099999953,number4,True,True,True,34,4,2019_Nov_19_1204,MA_Theta_Exp,3.0.7,60.16119590834621,
video/Experiment/zh_sp01_Un_Ro_3_NVocInAudio_GlobalThetaInVideo.avi,vocoded,plusVideo,sp01,Un,Ro,3,0,1,flow/blocks/NVocInAudio_GlobalThetaInVideo_A.csv,,,,,,,,,0,0,0,0,0,20,20,26,-0.45,-0.30092592592592593,1,0,0,5.135783199999992,call4,0.030555555555555555,-0.10648148148148148,1,0,0,5.683116799999993,colour3,0.45416666666666666,-0.09398148148148149,1,0,0,6.129857899999934,number3,True,True,True,34,4,2019_Nov_19_1204,MA_Theta_Exp,3.0.7,60.16119590834621,
video/Experiment/zh_sp01_Dr_We_2_NVocInAudio_GlobalThetaInVideo.avi,vocoded,plusVideo,sp01,Dr,We,2,0,1,flow/blocks/NVocInAudio_GlobalThetaInVideo_A.csv,,,,,,,,,0,0,0,0,0,21,21,13,-0.3486111111111111,0.05324074074074074,1,0,0,5.3020808999999645,call2,0.034722222222222224,-0.2564814814814815,1,0,0,6.993955099999994,colour4,0.3736111111111111,0.06851851851851852,1,0,0,8.642485999999963,number2,True,True,True,34,4,2019_Nov_19_1204,MA_Theta_Exp,3.0.7,60.16119590834621,
video/Experiment/zh_sp07_Ad_Gr_1_NVocInAudio_GlobalThetaInVideo.avi,vocoded,plusVideo,sp07,Ad,Gr,1,0,1,flow/blocks/NVocInAudio_GlobalThetaInVideo_A.csv,,,,,,,,,0,0,0,0,0,22,22,4,-0.38472222222222224,0.2490740740740741,1,0,0,6.137112799999841,call1,-0.019444444444444445,0.06296296296296296,1,0,0,6.814418699999919,colour2,0.41805555555555557,0.30324074074074076,1,0,0,7.372686799999997,number1,True,True,True,34,4,2019_Nov_19_1204,MA_Theta_Exp,3.0.7,60.16119590834621,
video/Experiment/zh_sp07_Ti_Ge_3_NVocInAudio_GlobalThetaInVideo.avi,vocoded,plusVideo,sp07,Ti,Ge,3,0,1,flow/blocks/NVocInAudio_GlobalThetaInVideo_A.csv,,,,,,,,,0,0,0,0,0,23,23,18,-0.3736111111111111,-0.0787037037037037,1,0,0,5.372399900000119,call3,-0.05,0.3226851851851852,1,0,0,6.005622499999845,colour1,0.37083333333333335,-0.12175925925925926,1,0,0,6.590816300000142,number3,True,True,True,34,4,2019_Nov_19_1204,MA_Theta_Exp,3.0.7,60.16119590834621,
video/Experiment/zh_sp07_Dr_Ge_1_NVocInAudio_GlobalThetaInVideo.avi,vocoded,plusVideo,sp07,Dr,Ge,1,0,1,flow/blocks/NVocInAudio_GlobalThetaInVideo_A.csv,,,,,,,,,0,0,0,0,0,24,24,0,-0.4375,0.11851851851851852,1,0,0,4.582613900000069,call2,0.015277777777777777,0.2657407407407407,1,0,0,5.547252000000071,colour1,0.40555555555555556,0.33240740740740743,1,0,0,6.062135000000126,number1,True,True,True,34,4,2019_Nov_19_1204,MA_Theta_Exp,3.0.7,60.16119590834621,
video/Experiment/zh_sp01_Ad_We_3_NVocInAudio_GlobalThetaInVideo.avi,vocoded,plusVideo,sp01,Ad,We,3,0,1,flow/blocks/NVocInAudio_GlobalThetaInVideo_A.csv,,,,,,,,,0,0,0,0,0,25,25,30,-0.4125,0.3699074074074074,1,0,0,5.1615733000001,call1,0.011111111111111112,-0.3037037037037037,1,0,0,6.613310400000046,colour4,0.40694444444444444,-0.04675925925925926,1,0,0,7.456663500000104,number3,True,True,True,34,4,2019_Nov_19_1204,MA_Theta_Exp,3.0.7,60.16119590834621,
video/Experiment/zh_sp07_Ti_Ge_1_NVocInAudio_GlobalThetaInVideo.avi,vocoded,plusVideo,sp07,Ti,Ge,1,0,1,flow/blocks/NVocInAudio_GlobalThetaInVideo_A.csv,,,,,,,,,0,0,0,0,0,26,26,16,-0.44166666666666665,-0.12175925925925926,1,0,0,4.9630853000001025,call3,-0.04722222222222222,0.2671296296296296,1,0,0,5.508745699999963,colour1,0.46944444444444444,0.30185185185185187,1,0,0,6.020012299999962,number1,True,True,True,34,4,2019_Nov_19_1204,MA_Theta_Exp,3.0.7,60.16119590834621,
video/Experiment/zh_sp07_Ad_Ro_4_NVocInAudio_GlobalThetaInVideo.avi,vocoded,plusVideo,sp07,Ad,Ro,4,0,1,flow/blocks/NVocInAudio_GlobalThetaInVideo_A.csv,,,,,,,,,0,0,0,0,0,27,27,11,-0.38472222222222224,0.300462962962963,1,0,0,6.083172999999988,call1,0.07083333333333333,-0.1537037037037037,1,0,0,6.719183899999962,colour3,0.43194444444444446,-0.27870370370370373,1,0,0,7.46579870000005,number4,True,True,True,34,4,2019_Nov_19_1204,MA_Theta_Exp,3.0.7,60.16119590834621,
video/Experiment/zh_sp01_Ad_Ro_1_NVocInAudio_GlobalThetaInVideo.avi,vocoded,plusVideo,sp01,Ad,Ro,1,0,1,flow/blocks/NVocInAudio_GlobalThetaInVideo_A.csv,,,,,,,,,0,0,0,0,0,28,28,8,-0.43333333333333335,-0.09398148148148149,1,0,0,6.0655850999999075,call3,-0.04722222222222222,-0.15925925925925927,1,0,0,6.628836700000193,colour3,0.4583333333333333,0.2810185185185185,1,0,0,7.229328199999827,number1,False,True,True,34,4,2019_Nov_19_1204,MA_Theta_Exp,3.0.7,60.16119590834621,
video/Experiment/zh_sp01_Un_We_3_NVocInAudio_GlobalThetaInVideo.avi,vocoded,plusVideo,sp01,Un,We,3,0,1,flow/blocks/NVocInAudio_GlobalThetaInVideo_A.csv,,,,,,,,,0,0,0,0,0,29,29,14,-0.48194444444444445,-0.33287037037037037,1,0,0,5.276497399999926,call4,0.015277777777777777,-0.3050925925925926,1,0,0,6.139009499999929,colour4,0.3375,-0.1300925925925926,1,0,0,6.9757276000000275,number3,True,True,True,34,4,2019_Nov_19_1204,MA_Theta_Exp,3.0.7,60.16119590834621,
video/Experiment/zh_sp07_Ti_We_4_NVocInAudio_GlobalThetaInVideo.avi,vocoded,plusVideo,sp07,Ti,We,4,0,1,flow/blocks/NVocInAudio_GlobalThetaInVideo_A.csv,,,,,,,,,0,0,0,0,0,30,30,31,-0.4722222222222222,-0.08425925925925926,1,0,0,4.857256300000017,call3,-0.04583333333333333,-0.3050925925925926,1,0,0,5.384516099999928,colour4,0.42083333333333334,-0.324537037037037,1,0,0,5.8586987000001045,number4,True,True,True,34,4,2019_Nov_19_1204,MA_Theta_Exp,3.0.7,60.16119590834621,
video/Experiment/zh_sp07_Dr_Gr_2_NVocInAudio_GlobalThetaInVideo.avi,vocoded,plusVideo,sp07,Dr,Gr,2,0,1,flow/blocks/NVocInAudio_GlobalThetaInVideo_A.csv,,,,,,,,,0,0,0,0,0,31,31,5,-0.3763888888888889,0.13796296296296295,1,0,0,4.621123000000125,call2,0.0375,0.09490740740740741,1,0,0,5.093489999999974,colour2,0.4,0.11990740740740741,1,0,0,5.6313447,number2,True,True,True,34,4,2019_Nov_19_1204,MA_Theta_Exp,3.0.7,60.16119590834621,
video/Experiment/zh_sp07_Un_Ge_1_NoThetaInAudio_NoVideo.avi,noTheta,noVideo,sp07,Un,Ge,1,1,4,flow/blocks/NoThetaInAudio_NoVideo_B.csv,,,,,,,,,0,1,1,1,0,0,0,0,-0.44166666666666665,0.07268518518518519,1,0,0,4.6490349999999125,call2,-0.005555555555555556,0.3101851851851852,1,0,0,5.853765500000009,colour1,0.4236111111111111,0.28379629629629627,1,0,0,6.350329499999816,number1,False,True,True,34,4,2019_Nov_19_1204,MA_Theta_Exp,3.0.7,60.16119590834621,
video/Experiment/zh_sp07_Dr_We_3_NoThetaInAudio_NoVideo.avi,noTheta,noVideo,sp07,Dr,We,3,1,4,flow/blocks/NoThetaInAudio_NoVideo_B.csv,,,,,,,,,0,1,1,1,0,1,1,14,-0.3680555555555556,0.362962962962963,1,0,0,6.7656681000000845,call1,-0.020833333333333332,-0.3425925925925926,1,0,0,8.193267200000037,colour4,0.3972222222222222,-0.12037037037037036,1,0,0,8.681921000000102,number3,False,True,True,34,4,2019_Nov_19_1204,MA_Theta_Exp,3.0.7,60.16119590834621,
video/Experiment/zh_sp01_Ad_Ge_3_NoThetaInAudio_NoVideo.avi,noTheta,noVideo,sp01,Ad,Ge,3,1,4,flow/blocks/NoThetaInAudio_NoVideo_B.csv,,,,,,,,,0,1,1,1,0,2,2,18,-0.3597222222222222,0.2824074074074074,1,0,0,8.062954700000091,call1,-0.043055555555555555,-0.29814814814814816,1,0,0,9.444799899999907,colour4,0.4166666666666667,-0.1259259259259259,1,0,0,9.931507199999942,number3,True,False,True,34,4,2019_Nov_19_1204,MA_Theta_Exp,3.0.7,60.16119590834621,
video/Experiment/zh_sp07_Ti_Gr_2_NoThetaInAudio_NoVideo.avi,noTheta,noVideo,sp07,Ti,Gr,2,1,4,flow/blocks/NoThetaInAudio_NoVideo_B.csv,,,,,,,,,0,1,1,1,0,3,3,21,-0.4597222222222222,-0.1300925925925926,1,0,0,5.0414669000001595,call3,0.015277777777777777,0.0962962962962963,1,0,0,5.791168199999902,colour2,0.43472222222222223,0.36157407407407405,1,0,0,6.312640399999964,number1,True,True,False,34,4,2019_Nov_19_1204,MA_Theta_Exp,3.0.7,60.16119590834621,
video/Experiment/zh_sp07_Un_Ro_2_NoThetaInAudio_NoVideo.avi,noTheta,noVideo,sp07,Un,Ro,2,1,4,flow/blocks/NoThetaInAudio_NoVideo_B.csv,,,,,,,,,0,1,1,1,0,4,4,9,-0.36666666666666664,-0.3037037037037037,1,0,0,5.75558860000001,call4,-0.05138888888888889,-0.31203703703703706,1,0,0,6.815084100000149,colour4,0.4513888888888889,0.3074074074074074,1,0,0,7.527943699999923,number1,True,False,False,34,4,2019_Nov_19_1204,MA_Theta_Exp,3.0.7,60.16119590834621,
video/Experiment/zh_sp07_Un_Ro_4_NoThetaInAudio_NoVideo.avi,noTheta,noVideo,sp07,Un,Ro,4,1,4,flow/blocks/NoThetaInAudio_NoVideo_B.csv,,,,,,,,,0,1,1,1,0,5,5,27,-0.40555555555555556,-0.3050925925925926,1,0,0,5.563154299999951,call4,-0.018055555555555554,-0.3162037037037037,1,0,0,6.092949099999942,colour4,0.4486111111111111,-0.32314814814814813,1,0,0,6.594363399999793,number4,True,False,True,34,4,2019_Nov_19_1204,MA_Theta_Exp,3.0.7,60.16119590834621,
video/Experiment/zh_sp01_Ti_Ro_1_NoThetaInAudio_NoVideo.avi,noTheta,noVideo,sp01,Ti,Ro,1,1,4,flow/blocks/NoThetaInAudio_NoVideo_B.csv,,,,,,,,,0,1,1,1,0,6,6,8,-0.4097222222222222,-0.2912037037037037,1,0,0,5.738642199999958,call4,0.004166666666666667,-0.1287037037037037,1,0,0,6.816791000000194,colour3,0.39861111111111114,0.2935185185185185,1,0,0,7.566516699999966,number1,False,True,True,34,4,2019_Nov_19_1204,MA_Theta_Exp,3.0.7,60.16119590834621,
video/Experiment/zh_sp07_Dr_Ro_3_NoThetaInAudio_NoVideo.avi,noTheta,noVideo,sp07,Dr,Ro,3,1,4,flow/blocks/NoThetaInAudio_NoVideo_B.csv,,,,,,,,,0,1,1,1,0,7,7,26,-0.4041666666666667,-0.3384259259259259,1,0,0,6.034404900000027,call4,-0.043055555555555555,-0.17731481481481481,1,0,0,7.512973699999975,colour3,0.3888888888888889,-0.1425925925925926,1,0,0,7.975009200000159,number3,False,True,True,34,4,2019_Nov_19_1204,MA_Theta_Exp,3.0.7,60.16119590834621,
video/Experiment/zh_sp01_Un_Gr_4_NoThetaInAudio_NoVideo.avi,noTheta,noVideo,sp01,Un,Gr,4,1,4,flow/blocks/NoThetaInAudio_NoVideo_B.csv,,,,,,,,,0,1,1,1,0,8,8,23,-0.4263888888888889,-0.2967592592592593,1,0,0,5.272032699999954,call4,0.02361111111111111,0.07824074074074074,1,0,0,6.126452599999993,colour2,0.4263888888888889,-0.32037037037037036,1,0,0,7.007642899999837,number4,True,True,True,34,4,2019_Nov_19_1204,MA_Theta_Exp,3.0.7,60.16119590834621,
video/Experiment/zh_sp01_Ti_We_1_NoThetaInAudio_NoVideo.avi,noTheta,noVideo,sp01,Ti,We,1,1,4,flow/blocks/NoThetaInAudio_NoVideo_B.csv,,,,,,,,,0,1,1,1,0,9,9,12,-0.3972222222222222,-0.07314814814814814,1,0,0,5.2542191,call3,-0.05416666666666667,-0.28564814814814815,1,0,0,6.065149099999871,colour4,0.3819444444444444,0.31851851851851853,1,0,0,6.7993770999999015,number1,True,True,True,34,4,2019_Nov_19_1204,MA_Theta_Exp,3.0.7,60.16119590834621,
video/Experiment/zh_sp01_Dr_Gr_1_NoThetaInAudio_NoVideo.avi,noTheta,noVideo,sp01,Dr,Gr,1,1,4,flow/blocks/NoThetaInAudio_NoVideo_B.csv,,,,,,,,,0,1,1,1,0,10,10,20,-0.45555555555555555,-0.09537037037037037,1,0,0,7.029147899999998,call3,-0.08888888888888889,-0.2773148148148148,1,0,0,8.184473399999888,colour4,0.36944444444444446,0.3226851851851852,1,0,0,9.132173200000125,number1,False,False,True,34,4,2019_Nov_19_1204,MA_Theta_Exp,3.0.7,60.16119590834621,
video/Experiment/zh_sp07_Ti_Gr_1_NoThetaInAudio_NoVideo.avi,noTheta,noVideo,sp07,Ti,Gr,1,1,4,flow/blocks/NoThetaInAudio_NoVideo_B.csv,,,,,,,,,0,1,1,1,0,11,11,4,-0.39166666666666666,-0.09814814814814815,1,0,0,4.311354599999959,call3,0.0125,0.10185185185185185,1,0,0,4.786875799999962,colour2,0.4236111111111111,0.2824074074074074,1,0,0,5.294593999999961,number1,True,True,True,34,4,2019_Nov_19_1204,MA_Theta_Exp,3.0.7,60.16119590834621,
video/Experiment/zh_sp01_Un_Gr_2_NoThetaInAudio_NoVideo.avi,noTheta,noVideo,sp01,Un,Gr,2,1,4,flow/blocks/NoThetaInAudio_NoVideo_B.csv,,,,,,,,,0,1,1,1,0,12,12,5,-0.3763888888888889,-0.337037037037037,1,0,0,5.647163399999954,call4,-0.029166666666666667,0.04351851851851852,1,0,0,6.3120171999999,colour2,0.39861111111111114,0.0962962962962963,1,0,0,8.30791320000003,number2,True,True,True,34,4,2019_Nov_19_1204,MA_Theta_Exp,3.0.7,60.16119590834621,
video/Experiment/zh_sp01_Ad_Ge_1_NoThetaInAudio_NoVideo.avi,noTheta,noVideo,sp01,Ad,Ge,1,1,4,flow/blocks/NoThetaInAudio_NoVideo_B.csv,,,,,,,,,0,1,1,1,0,13,13,16,-0.4152777777777778,0.29074074074074074,1,0,0,6.3127331000000595,call1,0.05555555555555555,-0.2675925925925926,1,0,0,7.537870000000112,colour4,0.41388888888888886,0.29768518518518516,1,0,0,8.158561200000122,number1,True,False,True,34,4,2019_Nov_19_1204,MA_Theta_Exp,3.0.7,60.16119590834621,
video/Experiment/zh_sp07_Un_Gr_3_NoThetaInAudio_NoVideo.avi,noTheta,noVideo,sp07,Un,Gr,3,1,4,flow/blocks/NoThetaInAudio_NoVideo_B.csv,,,,,,,,,0,1,1,1,0,14,14,6,-0.33611111111111114,-0.3175925925925926,1,0,0,5.01672520000011,call4,-0.022222222222222223,0.16157407407407406,1,0,0,5.691135999999915,colour2,0.425,-0.1037037037037037,1,0,0,6.3990941999998086,number3,True,True,True,34,4,2019_Nov_19_1204,MA_Theta_Exp,3.0.7,60.16119590834621,
video/Experiment/zh_sp01_Dr_Ro_1_NoThetaInAudio_NoVideo.avi,noTheta,noVideo,sp01,Dr,Ro,1,1,4,flow/blocks/NoThetaInAudio_NoVideo_B.csv,,,,,,,,,0,1,1,1,0,15,15,24,-0.40694444444444444,-0.12037037037037036,1,0,0,5.090255300000081,call3,-0.06388888888888888,-0.13564814814814816,1,0,0,5.765463999999838,colour3,0.39305555555555555,0.31712962962962965,1,0,0,9.147175700000162,number1,False,True,True,34,4,2019_Nov_19_1204,MA_Theta_Exp,3.0.7,60.16119590834621,
video/Experiment/zh_sp07_Ti_We_2_NoThetaInAudio_NoVideo.avi,noTheta,noVideo,sp07,Ti,We,2,1,4,flow/blocks/NoThetaInAudio_NoVideo_B.csv,,,,,,,,,0,1,1,1,0,16,16,29,-0.325,-0.11203703703703703,1,0,0,4.635569399999895,call3,-0.03194444444444444,-0.11203703703703703,1,0,0,5.04365759999996,colour3,0.38055555555555554,0.1587962962962963,1,0,0,5.562688799999933,number2,True,False,True,34,4,2019_Nov_19_1204,MA_Theta_Exp,3.0.7,60.16119590834621,
video/Experiment/zh_sp01_Dr_Ge_3_NoThetaInAudio_NoVideo.avi,noTheta,noVideo,sp01,Dr,Ge,3,1,4,flow/blocks/NoThetaInAudio_NoVideo_B.csv,,,,,,,,,0,1,1,1,0,17,17,2,-0.37083333333333335,-0.30092592592592593,1,0,0,5.1859178000001975,call4,-0.015277777777777777,0.29768518518518516,1,0,0,5.905298899999934,colour1,0.4041666666666667,-0.1300925925925926,1,0,0,6.717861500000026,number3,False,True,True,34,4,2019_Nov_19_1204,MA_Theta_Exp,3.0.7,60.16119590834621,
video/Experiment/zh_sp01_Un_Ge_4_NoThetaInAudio_NoVideo.avi,noTheta,noVideo,sp01,Un,Ge,4,1,4,flow/blocks/NoThetaInAudio_NoVideo_B.csv,,,,,,,,,0,1,1,1,0,18,18,19,-0.4111111111111111,-0.30787037037037035,1,0,0,4.853627099999812,call4,0.07361111111111111,0.30185185185185187,1,0,0,5.989173800000117,colour1,0.3375,-0.2884259259259259,1,0,0,6.618581499999891,number4,True,True,True,34,4,2019_Nov_19_1204,MA_Theta_Exp,3.0.7,60.16119590834621,
video/Experiment/zh_sp07_Ti_We_3_NoThetaInAudio_NoVideo.avi,noTheta,noVideo,sp07,Ti,We,3,1,4,flow/blocks/NoThetaInAudio_NoVideo_B.csv,,,,,,,,,0,1,1,1,0,19,19,30,-0.39166666666666666,-0.09814814814814815,1,0,0,4.6836293999999725,call3,0.018055555555555554,-0.29814814814814816,1,0,0,5.371486000000004,colour4,0.4236111111111111,-0.1037037037037037,1,0,0,5.8731032999999115,number3,True,True,True,34,4,2019_Nov_19_1204,MA_Theta_Exp,3.0.7,60.16119590834621,
video/Experiment/zh_sp07_Ad_Gr_4_NoThetaInAudio_NoVideo.avi,noTheta,noVideo,sp07,Ad,Gr,4,1,4,flow/blocks/NoThetaInAudio_NoVideo_B.csv,,,,,,,,,0,1,1,1,0,20,20,7,-0.4388888888888889,-0.337037037037037,1,0,0,4.518320700000004,call4,0.004166666666666667,0.11157407407407408,1,0,0,5.0790476000001945,colour2,0.39861111111111114,-0.3314814814814815,1,0,0,5.748489800000016,number4,False,True,True,34,4,2019_Nov_19_1204,MA_Theta_Exp,3.0.7,60.16119590834621,
video/Experiment/zh_sp07_Ti_Ro_4_NoThetaInAudio_NoVideo.avi,noTheta,noVideo,sp07,Ti,Ro,4,1,4,flow/blocks/NoThetaInAudio_NoVideo_B.csv,,,,,,,,,0,1,1,1,0,21,21,11,-0.4,-0.12314814814814815,1,0,0,4.540265599999884,call3,0.020833333333333332,-0.3023148148148148,1,0,0,6.194394600000123,colour4,0.4125,-0.2953703703703704,1,0,0,6.750909299999876,number4,True,False,True,34,4,2019_Nov_19_1204,MA_Theta_Exp,3.0.7,60.16119590834621,
video/Experiment/zh_sp07_Ad_Ge_4_NoThetaInAudio_NoVideo.avi,noTheta,noVideo,sp07,Ad,Ge,4,1,4,flow/blocks/NoThetaInAudio_NoVideo_B.csv,,,,,,,,,0,1,1,1,0,22,22,3,-0.4222222222222222,0.35462962962962963,1,0,0,4.474644300000136,call1,-0.0125,0.35185185185185186,1,0,0,5.387351699999954,colour1,0.4305555555555556,-0.2814814814814815,1,0,0,6.086077200000091,number4,True,True,True,34,4,2019_Nov_19_1204,MA_Theta_Exp,3.0.7,60.16119590834621,
video/Experiment/zh_sp01_Ad_We_4_NoThetaInAudio_NoVideo.avi,noTheta,noVideo,sp01,Ad,We,4,1,4,flow/blocks/NoThetaInAudio_NoVideo_B.csv,,,,,,,,,0,1,1,1,0,23,23,31,-0.40694444444444444,0.300462962962963,1,0,0,5.0819218999999975,call1,0.0,-0.29259259259259257,1,0,0,5.757643099999996,colour4,0.44166666666666665,-0.3148148148148148,1,0,0,6.24875320000001,number4,True,True,True,34,4,2019_Nov_19_1204,MA_Theta_Exp,3.0.7,60.16119590834621,
video/Experiment/zh_sp07_Dr_We_4_NoThetaInAudio_NoVideo.avi,noTheta,noVideo,sp07,Dr,We,4,1,4,flow/blocks/NoThetaInAudio_NoVideo_B.csv,,,,,,,,,0,1,1,1,0,24,24,15,-0.35833333333333334,0.06296296296296296,1,0,0,4.643799400000034,call2,0.059722222222222225,-0.337037037037037,1,0,0,5.428031099999998,colour4,0.3861111111111111,-0.30787037037037035,1,0,0,5.875770099999954,number4,True,True,True,34,4,2019_Nov_19_1204,MA_Theta_Exp,3.0.7,60.16119590834621,
video/Experiment/zh_sp01_Ad_Ge_2_NoThetaInAudio_NoVideo.avi,noTheta,noVideo,sp01,Ad,Ge,2,1,4,flow/blocks/NoThetaInAudio_NoVideo_B.csv,,,,,,,,,0,1,1,1,0,25,25,1,-0.3680555555555556,0.28379629629629627,1,0,0,5.04573809999988,call1,0.001388888888888889,0.33101851851851855,1,0,0,5.467839600000161,colour1,0.49166666666666664,0.11296296296296296,1,0,0,5.9761343000000124,number2,True,True,True,34,4,2019_Nov_19_1204,MA_Theta_Exp,3.0.7,60.16119590834621,
video/Experiment/zh_sp01_Dr_Ge_2_NoThetaInAudio_NoVideo.avi,noTheta,noVideo,sp01,Dr,Ge,2,1,4,flow/blocks/NoThetaInAudio_NoVideo_B.csv,,,,,,,,,0,1,1,1,0,26,26,17,-0.42916666666666664,0.07407407407407407,1,0,0,5.09378229999993,call2,-0.025,0.3074074074074074,1,0,0,5.639362000000119,colour1,0.39444444444444443,0.12407407407407407,1,0,0,6.191102000000001,number2,True,True,True,34,4,2019_Nov_19_1204,MA_Theta_Exp,3.0.7,60.16119590834621,
video/Experiment/zh_sp01_Un_We_2_NoThetaInAudio_NoVideo.avi,noTheta,noVideo,sp01,Un,We,2,1,4,flow/blocks/NoThetaInAudio_NoVideo_B.csv,,,,,,,,,0,1,1,1,0,27,27,13,-0.4152777777777778,-0.324537037037037,1,0,0,5.546541699999807,call4,0.03888888888888889,-0.2828703703703704,1,0,0,6.879696299999978,colour4,0.45694444444444443,0.11157407407407408,1,0,0,7.762105600000041,number2,True,True,True,34,4,2019_Nov_19_1204,MA_Theta_Exp,3.0.7,60.16119590834621,
video/Experiment/zh_sp07_Ad_Ro_3_NoThetaInAudio_NoVideo.avi,noTheta,noVideo,sp07,Ad,Ro,3,1,4,flow/blocks/NoThetaInAudio_NoVideo_B.csv,,,,,,,,,0,1,1,1,0,28,28,10,-0.4388888888888889,-0.11342592592592593,1,0,0,5.841260499999862,call3,-0.3861111111111111,0.07268518518518519,1,0,0,6.548290199999883,colour1,0.4236111111111111,-0.1287037037037037,1,0,0,8.863160600000128,number3,False,False,True,34,4,2019_Nov_19_1204,MA_Theta_Exp,3.0.7,60.16119590834621,
video/Experiment/zh_sp01_Ti_Gr_3_NoThetaInAudio_NoVideo.avi,noTheta,noVideo,sp01,Ti,Gr,3,1,4,flow/blocks/NoThetaInAudio_NoVideo_B.csv,,,,,,,,,0,1,1,1,0,29,29,22,-0.425,-0.09953703703703703,1,0,0,5.355153900000005,call3,0.008333333333333333,0.12268518518518519,1,0,0,5.9109269000000495,colour2,0.3736111111111111,-0.1300925925925926,1,0,0,6.466035099999999,number3,True,True,True,34,4,2019_Nov_19_1204,MA_Theta_Exp,3.0.7,60.16119590834621,
video/Experiment/zh_sp07_Ad_Ro_2_NoThetaInAudio_NoVideo.avi,noTheta,noVideo,sp07,Ad,Ro,2,1,4,flow/blocks/NoThetaInAudio_NoVideo_B.csv,,,,,,,,,0,1,1,1,0,30,30,25,-0.4166666666666667,0.36712962962962964,1,0,0,4.732672099999945,call1,-0.03611111111111111,0.2935185185185185,1,0,0,5.327402500000062,colour1,0.43333333333333335,0.12129629629629629,1,0,0,5.966051600000128,number2,True,False,True,34,4,2019_Nov_19_1204,MA_Theta_Exp,3.0.7,60.16119590834621,
video/Experiment/zh_sp01_Dr_We_1_NoThetaInAudio_NoVideo.avi,noTheta,noVideo,sp01,Dr,We,1,1,4,flow/blocks/NoThetaInAudio_NoVideo_B.csv,,,,,,,,,0,1,1,1,0,31,31,28,-0.42777777777777776,-0.3162037037037037,1,0,0,5.35210230000007,call4,-0.059722222222222225,-0.3523148148148148,1,0,0,5.829570400000193,colour4,0.4152777777777778,0.31157407407407406,1,0,0,6.520978100000093,number1,False,True,True,34,4,2019_Nov_19_1204,MA_Theta_Exp,3.0.7,60.16119590834621,
