videoFile,condition,video,speaker,callSign,colour,number,seq,id,block,exp.thisRepN,exp.thisTrialN,exp.thisN,exp.thisIndex,training.thisRepN,training.thisTrialN,training.thisN,training.thisIndex,firstHalf.thisRepN,firstHalf.thisTrialN,firstHalf.thisN,firstHalf.thisIndex,blocksA.thisRepN,blocksA.thisTrialN,blocksA.thisN,blocksA.thisIndex,secondHalf.thisRepN,secondHalf.thisTrialN,secondHalf.thisN,secondHalf.thisIndex,blocksB.thisRepN,blocksB.thisTrialN,blocksB.thisN,blocksB.thisIndex,mouseClickOnCall.x,mouseClickOnCall.y,mouseClickOnCall.leftButton,mouseClickOnCall.midButton,mouseClickOnCall.rightButton,mouseClickOnCall.time,mouseClickOnCall.clicked_name,mouseClickOnColour.x,mouseClickOnColour.y,mouseClickOnColour.leftButton,mouseClickOnColour.midButton,mouseClickOnColour.rightButton,mouseClickOnColour.time,mouseClickOnColour.clicked_name,mouseClickOnNumber.x,mouseClickOnNumber.y,mouseClickOnNumber.leftButton,mouseClickOnNumber.midButton,mouseClickOnNumber.rightButton,mouseClickOnNumber.time,mouseClickOnNumber.clicked_name,callSignCorrect,colourCorrect,numberCorrect,participant,order,date,expName,psychopyVersion,frameRate,
video/Training/zh_sp01_Ad_We_4_NVocInAudio_NoVideo.avi,vocoded,noVideo,sp01,Ad,We,4,,,,,,,,0,0,0,0,,,,,,,,,,,,,,,,,-0.40694444444444444,0.27546296296296297,1,0,0,6.0536848000001555,call1,-0.011111111111111112,-0.27870370370370373,1,0,0,7.142957199999728,colour4,0.3541666666666667,-0.2953703703703704,1,0,0,7.7245853999993415,number4,True,True,True,35,5,2019_Nov_19_1305,MA_Theta_Exp,3.0.7,60.174156042357076,
video/Training/zh_sp07_Ad_Ge_3_NVocInAudio_NoVideo.avi,vocoded,noVideo,sp07,Ad,Ge,3,,,,,,,,0,1,1,1,,,,,,,,,,,,,,,,,-0.43333333333333335,0.3416666666666667,1,0,0,5.105395500000668,call1,-0.030555555555555555,0.2638888888888889,1,0,0,6.47544999999991,colour1,0.3375,-0.05555555555555555,1,0,0,7.257472000000234,number3,True,True,True,35,5,2019_Nov_19_1305,MA_Theta_Exp,3.0.7,60.174156042357076,
video/Training/zh_sp01_Dr_Ro_3_NVocInAudio_GlobalThetaInVideo.avi,vocoded,plusVideo,sp01,Dr,Ro,3,,,,,,,,0,2,2,2,,,,,,,,,,,,,,,,,-0.4083333333333333,0.1,1,0,0,5.433401899999808,call2,-0.02361111111111111,-0.09027777777777778,1,0,0,6.203179099999943,colour3,0.39861111111111114,-0.1486111111111111,1,0,0,6.917062000000442,number3,True,True,True,35,5,2019_Nov_19_1305,MA_Theta_Exp,3.0.7,60.174156042357076,
video/Training/zh_sp07_Dr_Gr_4_NVocInAudio_GlobalThetaInVideo.avi,vocoded,plusVideo,sp07,Dr,Gr,4,,,,,,,,0,3,3,3,,,,,,,,,,,,,,,,,-0.4013888888888889,0.13333333333333333,1,0,0,4.656336300000476,call2,-0.07222222222222222,0.11527777777777778,1,0,0,5.328580899999906,colour2,0.40694444444444444,-0.29305555555555557,1,0,0,5.994500400000106,number4,True,True,True,35,5,2019_Nov_19_1305,MA_Theta_Exp,3.0.7,60.174156042357076,
video/Training/zh_sp01_Ti_Gr_2_NoThetaInAudio_NoVideo.avi,noTheta,noVideo,sp01,Ti,Gr,2,,,,,,,,0,4,4,4,,,,,,,,,,,,,,,,,0.3472222222222222,0.12222222222222222,1,0,0,6.698787799999991,,,,,,,,,,,,,,,,NO_ANSW,NO_ANSW,NO_ANSW,35,5,2019_Nov_19_1305,MA_Theta_Exp,3.0.7,60.174156042357076,
video/Training/zh_sp07_Ti_Ro_1_NoThetaInAudio_NoVideo.avi,noTheta,noVideo,sp07,Ti,Ro,1,,,,,,,,0,5,5,5,,,,,,,,,,,,,,,,,-0.41388888888888886,-0.325,1,0,0,7.792239000000336,call4,0.04583333333333333,-0.10555555555555556,1,0,0,10.204079999999522,colour3,0.42083333333333334,0.3194444444444444,1,0,0,10.704325800000333,number1,False,True,True,35,5,2019_Nov_19_1305,MA_Theta_Exp,3.0.7,60.174156042357076,
video/Training/zh_sp01_Un_Ge_1_NoThetaInAudio_GlobalThetaInVideo.avi,noTheta,plusVideo,sp01,Un,Ge,1,,,,,,,,0,6,6,6,,,,,,,,,,,,,,,,,-0.39166666666666666,0.13472222222222222,1,0,0,7.596236800000042,call2,0.02361111111111111,0.3143518518518518,1,0,0,10.138923200000136,colour1,0.4152777777777778,0.4074074074074074,1,0,0,10.560624800000369,number1,False,True,True,35,5,2019_Nov_19_1305,MA_Theta_Exp,3.0.7,60.174156042357076,
video/Training/zh_sp07_Un_We_2_NoThetaInAudio_GlobalThetaInVideo.avi,noTheta,plusVideo,sp07,Un,We,2,,,,,,,,0,7,7,7,,,,,,,,,,,,,,,,,-0.38472222222222224,0.3212962962962963,1,0,0,9.095781299999544,call1,-0.029166666666666667,-0.26342592592592595,1,0,0,11.225613600000543,colour4,0.4111111111111111,0.06851851851851852,1,0,0,12.011243699999795,number2,False,True,True,35,5,2019_Nov_19_1305,MA_Theta_Exp,3.0.7,60.174156042357076,
video/Training/zh_sp01_Ad_Ge_1_GlobalTheta_NoVideo.avi,globalTheta,noVideo,sp01,Ad,Ge,1,,,,,,,,0,8,8,8,,,,,,,,,,,,,,,,,-0.37777777777777777,0.29907407407407405,1,0,0,9.880968000000394,call1,-0.002777777777777778,-0.11203703703703703,1,0,0,12.512655900000027,colour3,0.4375,0.2824074074074074,1,0,0,13.146113000000696,number1,True,False,True,35,5,2019_Nov_19_1305,MA_Theta_Exp,3.0.7,60.174156042357076,
video/Training/zh_sp07_Ad_Ro_3_GlobalTheta_NoVideo.avi,globalTheta,noVideo,sp07,Ad,Ro,3,,,,,,,,0,9,9,9,,,,,,,,,,,,,,,,,0.41388888888888886,-0.03148148148148148,1,0,0,5.7165672999999515,call3,0.020833333333333332,0.056018518518518516,1,0,0,9.819066899999598,colour2,0.39861111111111114,-0.0787037037037037,1,0,0,10.384573799999998,number3,False,False,True,35,5,2019_Nov_19_1305,MA_Theta_Exp,3.0.7,60.174156042357076,
video/Experiment/zh_sp01_Ad_We_1_NoThetaInAudio_NoVideo.avi,noTheta,noVideo,sp01,Ad,We,1,0,4,flow/blocks/NoThetaInAudio_NoVideo_A.csv,,,,,,,,,0,0,0,0,0,0,0,12,,,,,,,,,-0.37777777777777777,-0.30092592592592593,1,0,0,7.103038299999753,call4,-0.019444444444444445,-0.09398148148148149,1,0,0,8.61993799999982,colour3,0.37222222222222223,0.2824074074074074,1,0,0,9.25180569999975,number1,False,False,True,35,5,2019_Nov_19_1305,MA_Theta_Exp,3.0.7,60.174156042357076,
video/Experiment/zh_sp07_Ad_Ro_4_NoThetaInAudio_NoVideo.avi,noTheta,noVideo,sp07,Ad,Ro,4,0,4,flow/blocks/NoThetaInAudio_NoVideo_A.csv,,,,,,,,,0,0,0,0,0,1,1,11,,,,,,,,,-0.3819444444444444,0.032407407407407406,1,0,0,8.3812097,call2,-0.37916666666666665,0.07962962962962963,1,0,0,8.7705588000008,colour3,0.36527777777777776,-0.28564814814814815,1,0,0,11.887307699999837,number4,False,True,True,35,5,2019_Nov_19_1305,MA_Theta_Exp,3.0.7,60.174156042357076,
video/Experiment/zh_sp07_Ti_Ro_2_NoThetaInAudio_NoVideo.avi,noTheta,noVideo,sp07,Ti,Ro,2,0,4,flow/blocks/NoThetaInAudio_NoVideo_A.csv,,,,,,,,,0,0,0,0,0,2,2,25,,,,,,,,,-0.3597222222222222,-0.09537037037037037,1,0,0,7.4371971999999005,call3,0.004166666666666667,0.049074074074074076,1,0,0,8.922730799999954,colour2,0.375,0.10601851851851851,1,0,0,9.60704160000023,number2,True,False,True,35,5,2019_Nov_19_1305,MA_Theta_Exp,3.0.7,60.174156042357076,
video/Experiment/zh_sp07_Ti_Ge_2_NoThetaInAudio_NoVideo.avi,noTheta,noVideo,sp07,Ti,Ge,2,0,4,flow/blocks/NoThetaInAudio_NoVideo_A.csv,,,,,,,,,0,0,0,0,0,3,3,1,,,,,,,,,-0.39305555555555555,0.11851851851851852,1,0,0,6.187066899999991,call2,-0.06805555555555555,-0.0912037037037037,1,0,0,7.505831099999341,colour3,0.39166666666666666,0.10185185185185185,1,0,0,8.270371699999487,number2,False,False,True,35,5,2019_Nov_19_1305,MA_Theta_Exp,3.0.7,60.174156042357076,
video/Experiment/zh_sp07_Ti_Ro_3_NoThetaInAudio_NoVideo.avi,noTheta,noVideo,sp07,Ti,Ro,3,0,4,flow/blocks/NoThetaInAudio_NoVideo_A.csv,,,,,,,,,0,0,0,0,0,4,4,10,,,,,,,,,-0.35694444444444445,0.31296296296296294,1,0,0,5.250867700000526,call1,-0.005555555555555556,-0.04537037037037037,1,0,0,5.968469099999311,colour3,0.43194444444444446,-0.10648148148148148,1,0,0,6.553957899999659,number3,False,True,True,35,5,2019_Nov_19_1305,MA_Theta_Exp,3.0.7,60.174156042357076,
video/Experiment/zh_sp01_Ti_We_4_NoThetaInAudio_NoVideo.avi,noTheta,noVideo,sp01,Ti,We,4,0,4,flow/blocks/NoThetaInAudio_NoVideo_A.csv,,,,,,,,,0,0,0,0,0,5,5,31,,,,,,,,,-0.3819444444444444,-0.32037037037037036,1,0,0,6.820839599999999,call4,0.03194444444444444,-0.29814814814814816,1,0,0,7.638535299999603,colour4,0.41944444444444445,-0.3592592592592593,1,0,0,8.27049199999965,number4,False,True,True,35,5,2019_Nov_19_1305,MA_Theta_Exp,3.0.7,60.174156042357076,
video/Experiment/zh_sp01_Ad_Gr_1_NoThetaInAudio_NoVideo.avi,noTheta,noVideo,sp01,Ad,Gr,1,0,4,flow/blocks/NoThetaInAudio_NoVideo_A.csv,,,,,,,,,0,0,0,0,0,6,6,4,,,,,,,,,-0.39305555555555555,0.30324074074074076,1,0,0,5.807515399999829,call1,0.019444444444444445,0.09768518518518518,1,0,0,6.602956499999891,colour2,0.42083333333333334,0.2935185185185185,1,0,0,7.186851499999648,number1,True,True,True,35,5,2019_Nov_19_1305,MA_Theta_Exp,3.0.7,60.174156042357076,
video/Experiment/zh_sp01_Un_We_3_NoThetaInAudio_NoVideo.avi,noTheta,noVideo,sp01,Un,We,3,0,4,flow/blocks/NoThetaInAudio_NoVideo_A.csv,,,,,,,,,0,0,0,0,0,7,7,14,,,,,,,,,-0.3638888888888889,0.3074074074074074,1,0,0,7.579091399999925,call1,0.0125,-0.33564814814814814,1,0,0,8.575354799999332,colour4,0.4,-0.13703703703703704,1,0,0,9.176340500000151,number3,False,True,True,35,5,2019_Nov_19_1305,MA_Theta_Exp,3.0.7,60.174156042357076,
video/Experiment/zh_sp01_Dr_Ro_2_NoThetaInAudio_NoVideo.avi,noTheta,noVideo,sp01,Dr,Ro,2,0,4,flow/blocks/NoThetaInAudio_NoVideo_A.csv,,,,,,,,,0,0,0,0,0,8,8,9,,,,,,,,,-0.3486111111111111,0.11018518518518519,1,0,0,5.625606899999184,call2,-0.013888888888888888,-0.11203703703703703,1,0,0,6.2278409000000465,colour3,0.3888888888888889,0.11296296296296296,1,0,0,6.927874400000292,number2,True,True,True,35,5,2019_Nov_19_1305,MA_Theta_Exp,3.0.7,60.174156042357076,
video/Experiment/zh_sp07_Ti_Ge_4_NoThetaInAudio_NoVideo.avi,noTheta,noVideo,sp07,Ti,Ge,4,0,4,flow/blocks/NoThetaInAudio_NoVideo_A.csv,,,,,,,,,0,0,0,0,0,9,9,3,,,,,,,,,-0.4083333333333333,-0.12314814814814815,1,0,0,7.4993705999995655,call3,-0.025,-0.30925925925925923,1,0,0,8.150249199999962,colour4,0.43194444444444446,-0.13703703703703704,1,0,0,8.905323299999509,number3,True,False,False,35,5,2019_Nov_19_1305,MA_Theta_Exp,3.0.7,60.174156042357076,
video/Experiment/zh_sp01_Dr_We_2_NoThetaInAudio_NoVideo.avi,noTheta,noVideo,sp01,Dr,We,2,0,4,flow/blocks/NoThetaInAudio_NoVideo_A.csv,,,,,,,,,0,0,0,0,0,10,10,13,,,,,,,,,-0.38472222222222224,0.050462962962962966,1,0,0,7.148148200000833,call2,0.011111111111111112,-0.2967592592592593,1,0,0,8.086760299999696,colour4,0.4083333333333333,0.056018518518518516,1,0,0,8.863720100000137,number2,True,True,True,35,5,2019_Nov_19_1305,MA_Theta_Exp,3.0.7,60.174156042357076,
video/Experiment/zh_sp01_Dr_Gr_3_NoThetaInAudio_NoVideo.avi,noTheta,noVideo,sp01,Dr,Gr,3,0,4,flow/blocks/NoThetaInAudio_NoVideo_A.csv,,,,,,,,,0,0,0,0,0,11,11,6,,,,,,,,,-0.4125,0.06111111111111111,1,0,0,5.636819599999399,call2,-0.011111111111111112,-0.08888888888888889,1,0,0,6.693556100000023,colour3,0.4013888888888889,-0.12916666666666668,1,0,0,7.367780399999901,number3,True,False,True,35,5,2019_Nov_19_1305,MA_Theta_Exp,3.0.7,60.174156042357076,
video/Experiment/zh_sp01_Ad_We_3_NoThetaInAudio_NoVideo.avi,noTheta,noVideo,sp01,Ad,We,3,0,4,flow/blocks/NoThetaInAudio_NoVideo_A.csv,,,,,,,,,0,0,0,0,0,12,12,30,,,,,,,,,-0.44305555555555554,0.29583333333333334,1,0,0,6.036473699999988,call1,-0.05277777777777778,-0.31666666666666665,1,0,0,6.867705800000294,colour4,0.4125,-0.14305555555555555,1,0,0,7.517132300000412,number3,True,True,True,35,5,2019_Nov_19_1305,MA_Theta_Exp,3.0.7,60.174156042357076,
video/Experiment/zh_sp07_Ti_Gr_4_NoThetaInAudio_NoVideo.avi,noTheta,noVideo,sp07,Ti,Gr,4,0,4,flow/blocks/NoThetaInAudio_NoVideo_A.csv,,,,,,,,,0,0,0,0,0,13,13,7,,,,,,,,,-0.35138888888888886,-0.2763888888888889,1,0,0,5.372766700000284,call4,0.041666666666666664,0.1,1,0,0,6.306062599999677,colour2,0.3541666666666667,-0.2777777777777778,1,0,0,7.309455599999637,number4,False,True,True,35,5,2019_Nov_19_1305,MA_Theta_Exp,3.0.7,60.174156042357076,
video/Experiment/zh_sp07_Un_We_1_NoThetaInAudio_NoVideo.avi,noTheta,noVideo,sp07,Un,We,1,0,4,flow/blocks/NoThetaInAudio_NoVideo_A.csv,,,,,,,,,0,0,0,0,0,14,14,28,,,,,,,,,-0.3375,-0.3125,1,0,0,5.321816800000306,call4,0.02361111111111111,0.08333333333333333,1,0,0,5.916065399999752,colour2,0.45,0.31805555555555554,1,0,0,6.669250299999476,number1,True,False,True,35,5,2019_Nov_19_1305,MA_Theta_Exp,3.0.7,60.174156042357076,
video/Experiment/zh_sp07_Dr_Ge_4_NoThetaInAudio_NoVideo.avi,noTheta,noVideo,sp07,Dr,Ge,4,0,4,flow/blocks/NoThetaInAudio_NoVideo_A.csv,,,,,,,,,0,0,0,0,0,15,15,19,,,,,,,,,-0.4013888888888889,0.2986111111111111,1,0,0,5.504929799999445,call1,-0.0125,-0.059722222222222225,1,0,0,6.189070299999912,colour3,0.44722222222222224,-0.35138888888888886,1,0,0,6.857912399999805,number4,False,False,True,35,5,2019_Nov_19_1305,MA_Theta_Exp,3.0.7,60.174156042357076,
video/Experiment/zh_sp01_Ti_Ge_1_NoThetaInAudio_NoVideo.avi,noTheta,noVideo,sp01,Ti,Ge,1,0,4,flow/blocks/NoThetaInAudio_NoVideo_A.csv,,,,,,,,,0,0,0,0,0,16,16,16,,,,,,,,,-0.3972222222222222,-0.28055555555555556,1,0,0,10.582484500000646,call4,0.018055555555555554,-0.1125,1,0,0,12.863276500000211,colour3,0.41388888888888886,0.31527777777777777,1,0,0,13.497133500000018,number1,False,False,True,35,5,2019_Nov_19_1305,MA_Theta_Exp,3.0.7,60.174156042357076,
video/Experiment/zh_sp01_Un_We_4_NoThetaInAudio_NoVideo.avi,noTheta,noVideo,sp01,Un,We,4,0,4,flow/blocks/NoThetaInAudio_NoVideo_A.csv,,,,,,,,,0,0,0,0,0,17,17,15,,,,,,,,,-0.36527777777777776,-0.29259259259259257,1,0,0,5.285713599999326,call4,-0.030555555555555555,-0.2967592592592593,1,0,0,5.853586700000051,colour4,0.42916666666666664,-0.34953703703703703,1,0,0,6.83541360000072,number4,True,True,True,35,5,2019_Nov_19_1305,MA_Theta_Exp,3.0.7,60.174156042357076,
video/Experiment/zh_sp01_Un_Gr_1_NoThetaInAudio_NoVideo.avi,noTheta,noVideo,sp01,Un,Gr,1,0,4,flow/blocks/NoThetaInAudio_NoVideo_A.csv,,,,,,,,,0,0,0,0,0,18,18,20,,,,,,,,,-0.3888888888888889,-0.09814814814814815,1,0,0,5.1655940999999075,call3,-0.06666666666666667,0.0699074074074074,1,0,0,5.681277900000168,colour2,0.4166666666666667,0.31712962962962965,1,0,0,6.507528500000262,number1,False,True,True,35,5,2019_Nov_19_1305,MA_Theta_Exp,3.0.7,60.174156042357076,
video/Experiment/zh_sp01_Un_Ro_1_NoThetaInAudio_NoVideo.avi,noTheta,noVideo,sp01,Un,Ro,1,0,4,flow/blocks/NoThetaInAudio_NoVideo_A.csv,,,,,,,,,0,0,0,0,0,19,19,24,,,,,,,,,-0.4111111111111111,-0.33564814814814814,1,0,0,5.815268299999843,call4,-0.041666666666666664,-0.1162037037037037,1,0,0,6.532074799999464,colour3,0.43333333333333335,0.300462962962963,1,0,0,7.1489956000004895,number1,True,True,True,35,5,2019_Nov_19_1305,MA_Theta_Exp,3.0.7,60.174156042357076,
video/Experiment/zh_sp01_Ad_Gr_3_NoThetaInAudio_NoVideo.avi,noTheta,noVideo,sp01,Ad,Gr,3,0,4,flow/blocks/NoThetaInAudio_NoVideo_A.csv,,,,,,,,,0,0,0,0,0,20,20,22,,,,,,,,,-0.35138888888888886,0.35,1,0,0,5.161820000000262,call1,0.009722222222222222,0.14166666666666666,1,0,0,5.748711299999741,colour2,0.4041666666666667,-0.06527777777777778,1,0,0,6.731055199999901,number3,True,True,True,35,5,2019_Nov_19_1305,MA_Theta_Exp,3.0.7,60.174156042357076,
video/Experiment/zh_sp07_Ti_Ge_3_NoThetaInAudio_NoVideo.avi,noTheta,noVideo,sp07,Ti,Ge,3,0,4,flow/blocks/NoThetaInAudio_NoVideo_A.csv,,,,,,,,,0,0,0,0,0,21,21,18,,,,,,,,,-0.37777777777777777,-0.10277777777777777,1,0,0,5.008829800000058,call3,0.002777777777777778,0.2847222222222222,1,0,0,5.62633679999999,colour1,0.4236111111111111,-0.12083333333333333,1,0,0,6.291740100000425,number3,True,True,True,35,5,2019_Nov_19_1305,MA_Theta_Exp,3.0.7,60.174156042357076,
video/Experiment/zh_sp07_Un_Ge_3_NoThetaInAudio_NoVideo.avi,noTheta,noVideo,sp07,Un,Ge,3,0,4,flow/blocks/NoThetaInAudio_NoVideo_A.csv,,,,,,,,,0,0,0,0,0,22,22,2,,,,,,,,,-0.3736111111111111,-0.31805555555555554,1,0,0,5.139278199999353,call4,0.004166666666666667,0.2986111111111111,1,0,0,6.022972699999627,colour1,0.38333333333333336,-0.09305555555555556,1,0,0,6.624120800000128,number3,True,True,True,35,5,2019_Nov_19_1305,MA_Theta_Exp,3.0.7,60.174156042357076,
video/Experiment/zh_sp07_Dr_Ro_4_NoThetaInAudio_NoVideo.avi,noTheta,noVideo,sp07,Dr,Ro,4,0,4,flow/blocks/NoThetaInAudio_NoVideo_A.csv,,,,,,,,,0,0,0,0,0,23,23,27,,,,,,,,,-0.38472222222222224,0.26666666666666666,1,0,0,5.503928600000108,call1,-0.03194444444444444,-0.10972222222222222,1,0,0,6.020776299999852,colour3,0.4527777777777778,-0.30833333333333335,1,0,0,6.637195399999655,number4,False,True,True,35,5,2019_Nov_19_1305,MA_Theta_Exp,3.0.7,60.174156042357076,
video/Experiment/zh_sp07_Dr_Gr_2_NoThetaInAudio_NoVideo.avi,noTheta,noVideo,sp07,Dr,Gr,2,0,4,flow/blocks/NoThetaInAudio_NoVideo_A.csv,,,,,,,,,0,0,0,0,0,24,24,5,,,,,,,,,-0.43472222222222223,0.12916666666666668,1,0,0,4.909228999999868,call2,-0.022222222222222223,0.09722222222222222,1,0,0,5.377543100000366,colour2,0.34305555555555556,0.11527777777777778,1,0,0,5.924282299999504,number2,True,True,True,35,5,2019_Nov_19_1305,MA_Theta_Exp,3.0.7,60.174156042357076,
video/Experiment/zh_sp07_Ad_Gr_2_NoThetaInAudio_NoVideo.avi,noTheta,noVideo,sp07,Ad,Gr,2,0,4,flow/blocks/NoThetaInAudio_NoVideo_A.csv,,,,,,,,,0,0,0,0,0,25,25,21,,,,,,,,,-0.42777777777777776,0.3060185185185185,1,0,0,4.932440499999757,call1,-0.05555555555555555,0.12824074074074074,1,0,0,5.734143099999528,colour2,0.3638888888888889,0.11435185185185186,1,0,0,6.584448300000076,number2,True,True,True,35,5,2019_Nov_19_1305,MA_Theta_Exp,3.0.7,60.174156042357076,
video/Experiment/zh_sp07_Dr_Ge_1_NoThetaInAudio_NoVideo.avi,noTheta,noVideo,sp07,Dr,Ge,1,0,4,flow/blocks/NoThetaInAudio_NoVideo_A.csv,,,,,,,,,0,0,0,0,0,26,26,0,,,,,,,,,-0.37083333333333335,0.13657407407407407,1,0,0,6.364545100000214,call2,-0.020833333333333332,0.0712962962962963,1,0,0,7.815993100000014,colour2,0.44166666666666665,0.2949074074074074,1,0,0,8.464981600000101,number1,True,False,True,35,5,2019_Nov_19_1305,MA_Theta_Exp,3.0.7,60.174156042357076,
video/Experiment/zh_sp07_Un_Ge_2_NoThetaInAudio_NoVideo.avi,noTheta,noVideo,sp07,Un,Ge,2,0,4,flow/blocks/NoThetaInAudio_NoVideo_A.csv,,,,,,,,,0,0,0,0,0,27,27,17,,,,,,,,,-0.44305555555555554,-0.2884259259259259,1,0,0,5.715657299999293,call4,0.005555555555555556,0.3060185185185185,1,0,0,8.019884500000444,colour1,0.45555555555555555,0.11990740740740741,1,0,0,8.982507499999883,number2,True,True,True,35,5,2019_Nov_19_1305,MA_Theta_Exp,3.0.7,60.174156042357076,
video/Experiment/zh_sp01_Ad_Ro_1_NoThetaInAudio_NoVideo.avi,noTheta,noVideo,sp01,Ad,Ro,1,0,4,flow/blocks/NoThetaInAudio_NoVideo_A.csv,,,,,,,,,0,0,0,0,0,28,28,8,,,,,,,,,-0.3680555555555556,0.2865740740740741,1,0,0,6.238942599999973,call1,0.001388888888888889,-0.07731481481481481,1,0,0,7.2056668999994145,colour3,0.35138888888888886,0.2740740740740741,1,0,0,7.807343800000126,number1,True,True,True,35,5,2019_Nov_19_1305,MA_Theta_Exp,3.0.7,60.174156042357076,
video/Experiment/zh_sp07_Ad_We_2_NoThetaInAudio_NoVideo.avi,noTheta,noVideo,sp07,Ad,We,2,0,4,flow/blocks/NoThetaInAudio_NoVideo_A.csv,,,,,,,,,0,0,0,0,0,29,29,29,,,,,,,,,-0.43333333333333335,0.29074074074074074,1,0,0,4.415562300000602,call1,-0.059722222222222225,-0.25787037037037036,1,0,0,5.380562400000599,colour4,0.3888888888888889,0.09768518518518518,1,0,0,6.1982740000003105,number2,True,True,True,35,5,2019_Nov_19_1305,MA_Theta_Exp,3.0.7,60.174156042357076,
video/Experiment/zh_sp01_Un_Ro_3_NoThetaInAudio_NoVideo.avi,noTheta,noVideo,sp01,Un,Ro,3,0,4,flow/blocks/NoThetaInAudio_NoVideo_A.csv,,,,,,,,,0,0,0,0,0,30,30,26,,,,,,,,,-0.3611111111111111,-0.2898148148148148,1,0,0,5.312099200000375,call4,-0.05,-0.13842592592592592,1,0,0,5.93959840000025,colour3,0.47638888888888886,-0.09398148148148149,1,0,0,6.605708500000219,number3,True,True,True,35,5,2019_Nov_19_1305,MA_Theta_Exp,3.0.7,60.174156042357076,
video/Experiment/zh_sp01_Dr_Gr_4_NoThetaInAudio_NoVideo.avi,noTheta,noVideo,sp01,Dr,Gr,4,0,4,flow/blocks/NoThetaInAudio_NoVideo_A.csv,,,,,,,,,0,0,0,0,0,31,31,23,,,,,,,,,-0.42916666666666664,0.1361111111111111,1,0,0,5.870092199999817,call2,0.029166666666666667,0.075,1,0,0,6.5729548000008435,colour2,0.38472222222222224,-0.2953703703703704,1,0,0,7.425557200000185,number4,True,True,True,35,5,2019_Nov_19_1305,MA_Theta_Exp,3.0.7,60.174156042357076,
video/Experiment/zh_sp01_Ad_Ge_2_NVocInAudio_NoVideo.avi,vocoded,noVideo,sp01,Ad,Ge,2,1,2,flow/blocks/NVocInAudio_NoVideo_B.csv,,,,,,,,,0,1,1,1,0,0,0,1,,,,,,,,,-0.3638888888888889,0.3101851851851852,1,0,0,5.537004800000432,call1,-0.03888888888888889,0.3212962962962963,1,0,0,6.236405300000115,colour1,0.4263888888888889,0.07962962962962963,1,0,0,7.038301700000375,number2,True,True,True,35,5,2019_Nov_19_1305,MA_Theta_Exp,3.0.7,60.174156042357076,
video/Experiment/zh_sp01_Dr_Gr_1_NVocInAudio_NoVideo.avi,vocoded,noVideo,sp01,Dr,Gr,1,1,2,flow/blocks/NVocInAudio_NoVideo_B.csv,,,,,,,,,0,1,1,1,0,1,1,20,,,,,,,,,-0.3763888888888889,0.05185185185185185,1,0,0,5.483631699999933,call2,-0.0125,0.08796296296296297,1,0,0,6.134723099999974,colour2,0.37777777777777777,0.3143518518518518,1,0,0,6.7288133000001835,number1,True,True,True,35,5,2019_Nov_19_1305,MA_Theta_Exp,3.0.7,60.174156042357076,
video/Experiment/zh_sp01_Un_Ro_4_NVocInAudio_NoVideo.avi,vocoded,noVideo,sp01,Un,Ro,4,1,2,flow/blocks/NVocInAudio_NoVideo_B.csv,,,,,,,,,0,1,1,1,0,2,2,27,,,,,,,,,-0.4375,-0.3384259259259259,1,0,0,5.448796599999696,call4,0.022222222222222223,-0.16064814814814815,1,0,0,5.915092900000673,colour3,0.41388888888888886,-0.34675925925925927,1,0,0,6.451077099999566,number4,True,True,True,35,5,2019_Nov_19_1305,MA_Theta_Exp,3.0.7,60.174156042357076,
video/Experiment/zh_sp01_Ti_Ro_4_NVocInAudio_NoVideo.avi,vocoded,noVideo,sp01,Ti,Ro,4,1,2,flow/blocks/NVocInAudio_NoVideo_B.csv,,,,,,,,,0,1,1,1,0,3,3,11,,,,,,,,,-0.4111111111111111,-0.09675925925925925,1,0,0,5.365244900000107,call3,-0.06944444444444445,-0.14953703703703702,1,0,0,5.9853430000002845,colour3,0.41805555555555557,-0.30092592592592593,1,0,0,6.5675358999997115,number4,True,True,True,35,5,2019_Nov_19_1305,MA_Theta_Exp,3.0.7,60.174156042357076,
video/Experiment/zh_sp01_Ad_Ge_4_NVocInAudio_NoVideo.avi,vocoded,noVideo,sp01,Ad,Ge,4,1,2,flow/blocks/NVocInAudio_NoVideo_B.csv,,,,,,,,,0,1,1,1,0,4,4,3,,,,,,,,,-0.33055555555555555,0.27824074074074073,1,0,0,5.994791699999951,call1,-0.05277777777777778,0.3101851851851852,1,0,0,6.754483100000471,colour1,0.375,-0.31203703703703706,1,0,0,7.554517300000043,number4,True,True,True,35,5,2019_Nov_19_1305,MA_Theta_Exp,3.0.7,60.174156042357076,
video/Experiment/zh_sp01_Ad_Ro_3_NVocInAudio_NoVideo.avi,vocoded,noVideo,sp01,Ad,Ro,3,1,2,flow/blocks/NVocInAudio_NoVideo_B.csv,,,,,,,,,0,1,1,1,0,5,5,10,,,,,,,,,-0.4013888888888889,0.3199074074074074,1,0,0,5.000496800000292,call1,-0.02638888888888889,-0.11203703703703703,1,0,0,5.718339199999718,colour3,0.4388888888888889,-0.11342592592592593,1,0,0,6.270559799999319,number3,True,True,True,35,5,2019_Nov_19_1305,MA_Theta_Exp,3.0.7,60.174156042357076,
video/Experiment/zh_sp07_Ad_We_4_NVocInAudio_NoVideo.avi,vocoded,noVideo,sp07,Ad,We,4,1,2,flow/blocks/NVocInAudio_NoVideo_B.csv,,,,,,,,,0,1,1,1,0,6,6,31,,,,,,,,,-0.35555555555555557,0.2847222222222222,1,0,0,4.599215999999615,call1,-0.011111111111111112,-0.3736111111111111,1,0,0,5.319060900000295,colour4,0.4486111111111111,-0.2791666666666667,1,0,0,6.152250999999524,number4,True,True,True,35,5,2019_Nov_19_1305,MA_Theta_Exp,3.0.7,60.174156042357076,
video/Experiment/zh_sp07_Dr_Ro_1_NVocInAudio_NoVideo.avi,vocoded,noVideo,sp07,Dr,Ro,1,1,2,flow/blocks/NVocInAudio_NoVideo_B.csv,,,,,,,,,0,1,1,1,0,7,7,24,,,,,,,,,-0.38055555555555554,0.13055555555555556,1,0,0,4.568591500000366,call2,0.001388888888888889,-0.11527777777777778,1,0,0,5.22037519999958,colour3,0.34444444444444444,0.2708333333333333,1,0,0,6.21912329999941,number1,True,True,True,35,5,2019_Nov_19_1305,MA_Theta_Exp,3.0.7,60.174156042357076,
video/Experiment/zh_sp01_Un_Gr_2_NVocInAudio_NoVideo.avi,vocoded,noVideo,sp01,Un,Gr,2,1,2,flow/blocks/NVocInAudio_NoVideo_B.csv,,,,,,,,,0,1,1,1,0,8,8,5,,,,,,,,,-0.3625,-0.262037037037037,1,0,0,5.507021200000054,call4,0.05694444444444444,0.07962962962962963,1,0,0,6.236456100000396,colour2,0.3972222222222222,0.10462962962962963,1,0,0,6.836023900000328,number2,True,True,True,35,5,2019_Nov_19_1305,MA_Theta_Exp,3.0.7,60.174156042357076,
video/Experiment/zh_sp07_Ad_Ro_2_NVocInAudio_NoVideo.avi,vocoded,noVideo,sp07,Ad,Ro,2,1,2,flow/blocks/NVocInAudio_NoVideo_B.csv,,,,,,,,,0,1,1,1,0,9,9,25,,,,,,,,,-0.3972222222222222,0.2824074074074074,1,0,0,4.971241899999768,call1,-0.025,-0.07175925925925926,1,0,0,5.837107199999991,colour3,0.3472222222222222,0.11296296296296296,1,0,0,6.471010600000227,number2,True,True,True,35,5,2019_Nov_19_1305,MA_Theta_Exp,3.0.7,60.174156042357076,
video/Experiment/zh_sp07_Un_Ge_1_NVocInAudio_NoVideo.avi,vocoded,noVideo,sp07,Un,Ge,1,1,2,flow/blocks/NVocInAudio_NoVideo_B.csv,,,,,,,,,0,1,1,1,0,10,10,0,,,,,,,,,-0.3527777777777778,-0.33287037037037037,1,0,0,5.489185299999917,call4,0.011111111111111112,0.30324074074074076,1,0,0,6.2449360000000524,colour1,0.37777777777777777,0.3476851851851852,1,0,0,6.793543299999328,number1,True,True,True,35,5,2019_Nov_19_1305,MA_Theta_Exp,3.0.7,60.174156042357076,
video/Experiment/zh_sp01_Dr_We_3_NVocInAudio_NoVideo.avi,vocoded,noVideo,sp01,Dr,We,3,1,2,flow/blocks/NVocInAudio_NoVideo_B.csv,,,,,,,,,0,1,1,1,0,11,11,14,,,,,,,,,-0.44305555555555554,0.09768518518518518,1,0,0,6.098493200000121,call2,-0.03888888888888889,-0.3189814814814815,1,0,0,6.863206799999716,colour4,0.3638888888888889,-0.18703703703703703,1,0,0,7.433619800000088,number3,True,True,True,35,5,2019_Nov_19_1305,MA_Theta_Exp,3.0.7,60.174156042357076,
video/Experiment/zh_sp07_Ti_Gr_2_NVocInAudio_NoVideo.avi,vocoded,noVideo,sp07,Ti,Gr,2,1,2,flow/blocks/NVocInAudio_NoVideo_B.csv,,,,,,,,,0,1,1,1,0,12,12,21,,,,,,,,,-0.4111111111111111,-0.0787037037037037,1,0,0,4.822082300000147,call3,-0.043055555555555555,0.07824074074074074,1,0,0,5.554693299999599,colour2,0.43333333333333335,0.0824074074074074,1,0,0,6.256601500000215,number2,True,True,True,35,5,2019_Nov_19_1305,MA_Theta_Exp,3.0.7,60.174156042357076,
video/Experiment/zh_sp07_Ti_Ro_1_NVocInAudio_NoVideo.avi,vocoded,noVideo,sp07,Ti,Ro,1,1,2,flow/blocks/NVocInAudio_NoVideo_B.csv,,,,,,,,,0,1,1,1,0,13,13,8,,,,,,,,,-0.44583333333333336,-0.13425925925925927,1,0,0,5.2751961000003575,call3,-0.030555555555555555,-0.10787037037037037,1,0,0,6.027882399999726,colour3,0.3972222222222222,0.2962962962962963,1,0,0,6.675494699999945,number1,True,True,True,35,5,2019_Nov_19_1305,MA_Theta_Exp,3.0.7,60.174156042357076,
video/Experiment/zh_sp01_Ti_We_1_NVocInAudio_NoVideo.avi,vocoded,noVideo,sp01,Ti,We,1,1,2,flow/blocks/NVocInAudio_NoVideo_B.csv,,,,,,,,,0,1,1,1,0,14,14,12,,,,,,,,,-0.35138888888888886,-0.11898148148148148,1,0,0,5.201454099999864,call3,-0.019444444444444445,-0.32592592592592595,1,0,0,5.916628800000581,colour4,0.3638888888888889,0.29212962962962963,1,0,0,6.753585999999814,number1,True,True,True,35,5,2019_Nov_19_1305,MA_Theta_Exp,3.0.7,60.174156042357076,
video/Experiment/zh_sp07_Dr_Ro_3_NVocInAudio_NoVideo.avi,vocoded,noVideo,sp07,Dr,Ro,3,1,2,flow/blocks/NVocInAudio_NoVideo_B.csv,,,,,,,,,0,1,1,1,0,15,15,26,,,,,,,,,-0.4263888888888889,0.0699074074074074,1,0,0,5.350093500000185,call2,-0.0625,-0.05925925925925926,1,0,0,5.984617099999923,colour3,0.3458333333333333,-0.06898148148148148,1,0,0,6.670372600000519,number3,True,True,True,35,5,2019_Nov_19_1305,MA_Theta_Exp,3.0.7,60.174156042357076,
video/Experiment/zh_sp01_Ad_Ge_1_NVocInAudio_NoVideo.avi,vocoded,noVideo,sp01,Ad,Ge,1,1,2,flow/blocks/NVocInAudio_NoVideo_B.csv,,,,,,,,,0,1,1,1,0,16,16,16,,,,,,,,,-0.425,0.36944444444444446,1,0,0,5.263212500000009,call1,0.02361111111111111,0.3472222222222222,1,0,0,6.0256546999999046,colour1,0.35833333333333334,0.3486111111111111,1,0,0,6.859719700000824,number1,True,True,True,35,5,2019_Nov_19_1305,MA_Theta_Exp,3.0.7,60.174156042357076,
video/Experiment/zh_sp07_Ti_We_2_NVocInAudio_NoVideo.avi,vocoded,noVideo,sp07,Ti,We,2,1,2,flow/blocks/NVocInAudio_NoVideo_B.csv,,,,,,,,,0,1,1,1,0,17,17,29,,,,,,,,,-0.475,-0.10694444444444444,1,0,0,4.991380899999967,call3,0.006944444444444444,-0.3597222222222222,1,0,0,5.640013000000181,colour4,0.39444444444444443,0.07222222222222222,1,0,0,6.427608300000429,number2,True,True,True,35,5,2019_Nov_19_1305,MA_Theta_Exp,3.0.7,60.174156042357076,
video/Experiment/zh_sp07_Dr_Ge_3_NVocInAudio_NoVideo.avi,vocoded,noVideo,sp07,Dr,Ge,3,1,2,flow/blocks/NVocInAudio_NoVideo_B.csv,,,,,,,,,0,1,1,1,0,18,18,2,,,,,,,,,-0.4652777777777778,0.09444444444444444,1,0,0,4.783394899999621,call2,0.059722222222222225,0.30833333333333335,1,0,0,6.4664028999995935,colour1,0.39444444444444443,-0.1,1,0,0,7.402782400000433,number3,True,True,True,35,5,2019_Nov_19_1305,MA_Theta_Exp,3.0.7,60.174156042357076,
video/Experiment/zh_sp01_Un_Gr_3_NVocInAudio_NoVideo.avi,vocoded,noVideo,sp01,Un,Gr,3,1,2,flow/blocks/NVocInAudio_NoVideo_B.csv,,,,,,,,,0,1,1,1,0,19,19,6,,,,,,,,,-0.44583333333333336,-0.2847222222222222,1,0,0,5.194398199999341,call4,-0.001388888888888889,0.06111111111111111,1,0,0,5.960926200000358,colour2,0.3861111111111111,-0.10138888888888889,1,0,0,6.558010099999592,number3,True,True,True,35,5,2019_Nov_19_1305,MA_Theta_Exp,3.0.7,60.174156042357076,
video/Experiment/zh_sp07_Ad_Gr_4_NVocInAudio_NoVideo.avi,vocoded,noVideo,sp07,Ad,Gr,4,1,2,flow/blocks/NVocInAudio_NoVideo_B.csv,,,,,,,,,0,1,1,1,0,20,20,7,,,,,,,,,-0.44583333333333336,0.3458333333333333,1,0,0,5.088639900000089,call1,-0.06666666666666667,0.125,1,0,0,6.326019399999495,colour2,0.46111111111111114,-0.2861111111111111,1,0,0,7.204731599999832,number4,True,True,True,35,5,2019_Nov_19_1305,MA_Theta_Exp,3.0.7,60.174156042357076,
video/Experiment/zh_sp07_Dr_Ge_2_NVocInAudio_NoVideo.avi,vocoded,noVideo,sp07,Dr,Ge,2,1,2,flow/blocks/NVocInAudio_NoVideo_B.csv,,,,,,,,,0,1,1,1,0,21,21,17,,,,,,,,,-0.4444444444444444,0.12638888888888888,1,0,0,4.721130799999628,call2,-0.03888888888888889,0.2722222222222222,1,0,0,5.286587999999938,colour1,0.3388888888888889,0.15694444444444444,1,0,0,5.889377599999534,number2,True,True,True,35,5,2019_Nov_19_1305,MA_Theta_Exp,3.0.7,60.174156042357076,
video/Experiment/zh_sp01_Un_Ge_4_NVocInAudio_NoVideo.avi,vocoded,noVideo,sp01,Un,Ge,4,1,2,flow/blocks/NVocInAudio_NoVideo_B.csv,,,,,,,,,0,1,1,1,0,22,22,19,,,,,,,,,-0.36666666666666664,-0.3416666666666667,1,0,0,5.163798999999926,call4,0.08194444444444444,0.3,1,0,0,5.880524100000002,colour1,0.43472222222222223,-0.3347222222222222,1,0,0,6.748558299999786,number4,True,True,True,35,5,2019_Nov_19_1305,MA_Theta_Exp,3.0.7,60.174156042357076,
video/Experiment/zh_sp01_Ti_Gr_1_NVocInAudio_NoVideo.avi,vocoded,noVideo,sp01,Ti,Gr,1,1,2,flow/blocks/NVocInAudio_NoVideo_B.csv,,,,,,,,,0,1,1,1,0,23,23,4,,,,,,,,,-0.35833333333333334,-0.09305555555555556,1,0,0,5.691052300000592,call3,-0.05694444444444444,0.11388888888888889,1,0,0,6.256996500000241,colour2,0.33194444444444443,0.3138888888888889,1,0,0,7.0732600000001185,number1,True,True,True,35,5,2019_Nov_19_1305,MA_Theta_Exp,3.0.7,60.174156042357076,
video/Experiment/zh_sp01_Un_Gr_4_NVocInAudio_NoVideo.avi,vocoded,noVideo,sp01,Un,Gr,4,1,2,flow/blocks/NVocInAudio_NoVideo_B.csv,,,,,,,,,0,1,1,1,0,24,24,23,,,,,,,,,-0.4263888888888889,-0.32731481481481484,1,0,0,5.2049983999995675,call4,0.043055555555555555,0.07546296296296297,1,0,0,6.585929700000634,colour2,0.3611111111111111,-0.3287037037037037,1,0,0,7.5763339000004635,number4,True,True,True,35,5,2019_Nov_19_1305,MA_Theta_Exp,3.0.7,60.174156042357076,
video/Experiment/zh_sp07_Un_Ro_2_NVocInAudio_NoVideo.avi,vocoded,noVideo,sp07,Un,Ro,2,1,2,flow/blocks/NVocInAudio_NoVideo_B.csv,,,,,,,,,0,1,1,1,0,25,25,9,,,,,,,,,-0.38333333333333336,-0.325,1,0,0,4.921196399999644,call4,-0.016666666666666666,-0.12361111111111112,1,0,0,5.435607399999753,colour3,0.37222222222222223,0.13055555555555556,1,0,0,6.001284400000259,number2,True,True,True,35,5,2019_Nov_19_1305,MA_Theta_Exp,3.0.7,60.174156042357076,
video/Experiment/zh_sp01_Ti_Gr_3_NVocInAudio_NoVideo.avi,vocoded,noVideo,sp01,Ti,Gr,3,1,2,flow/blocks/NVocInAudio_NoVideo_B.csv,,,,,,,,,0,1,1,1,0,26,26,22,,,,,,,,,-0.39305555555555555,-0.06111111111111111,1,0,0,5.054799399999865,call3,-0.05416666666666667,0.0763888888888889,1,0,0,5.954322200000206,colour2,0.35833333333333334,-0.07777777777777778,1,0,0,6.60702450000008,number3,True,True,True,35,5,2019_Nov_19_1305,MA_Theta_Exp,3.0.7,60.174156042357076,
video/Experiment/zh_sp07_Ti_We_3_NVocInAudio_NoVideo.avi,vocoded,noVideo,sp07,Ti,We,3,1,2,flow/blocks/NVocInAudio_NoVideo_B.csv,,,,,,,,,0,1,1,1,0,27,27,30,,,,,,,,,-0.43472222222222223,-0.11388888888888889,1,0,0,4.773780499999702,call3,-0.015277777777777777,-0.3,1,0,0,5.653441699999348,colour4,0.3972222222222222,-0.11944444444444445,1,0,0,6.343915999999808,number3,True,True,True,35,5,2019_Nov_19_1305,MA_Theta_Exp,3.0.7,60.174156042357076,
video/Experiment/zh_sp07_Ad_Ge_3_NVocInAudio_NoVideo.avi,vocoded,noVideo,sp07,Ad,Ge,3,1,2,flow/blocks/NVocInAudio_NoVideo_B.csv,,,,,,,,,0,1,1,1,0,28,28,18,,,,,,,,,-0.38333333333333336,0.3486111111111111,1,0,0,5.198080199999822,call1,-0.04027777777777778,0.2833333333333333,1,0,0,7.9200762000000395,colour1,0.34444444444444444,-0.12222222222222222,1,0,0,8.729726499999742,number3,True,True,True,35,5,2019_Nov_19_1305,MA_Theta_Exp,3.0.7,60.174156042357076,
video/Experiment/zh_sp07_Dr_We_1_NVocInAudio_NoVideo.avi,vocoded,noVideo,sp07,Dr,We,1,1,2,flow/blocks/NVocInAudio_NoVideo_B.csv,,,,,,,,,0,1,1,1,0,29,29,28,,,,,,,,,-0.4097222222222222,0.11527777777777778,1,0,0,4.991501000000426,call2,-0.009722222222222222,-0.3013888888888889,1,0,0,5.642151799999738,colour4,0.40555555555555556,0.35138888888888886,1,0,0,6.271701299999222,number1,True,True,True,35,5,2019_Nov_19_1305,MA_Theta_Exp,3.0.7,60.174156042357076,
video/Experiment/zh_sp01_Un_We_2_NVocInAudio_NoVideo.avi,vocoded,noVideo,sp01,Un,We,2,1,2,flow/blocks/NVocInAudio_NoVideo_B.csv,,,,,,,,,0,1,1,1,0,30,30,13,,,,,,,,,-0.4083333333333333,-0.27314814814814814,1,0,0,5.556652600000234,call4,-0.03194444444444444,-0.3175925925925926,1,0,0,6.491836700000022,colour4,0.3638888888888889,0.09768518518518518,1,0,0,7.273168599999735,number2,True,True,True,35,5,2019_Nov_19_1305,MA_Theta_Exp,3.0.7,60.174156042357076,
video/Experiment/zh_sp07_Dr_We_4_NVocInAudio_NoVideo.avi,vocoded,noVideo,sp07,Dr,We,4,1,2,flow/blocks/NVocInAudio_NoVideo_B.csv,,,,,,,,,0,1,1,1,0,31,31,15,,,,,,,,,-0.37777777777777777,0.12685185185185185,1,0,0,5.468639299999268,call2,-0.05694444444444444,-0.28425925925925927,1,0,0,6.188615600000048,colour4,0.3958333333333333,-0.2967592592592593,1,0,0,6.7712257000002865,number4,True,True,True,35,5,2019_Nov_19_1305,MA_Theta_Exp,3.0.7,60.174156042357076,
video/Experiment/zh_sp07_Dr_Gr_4_NoThetaInAudio_GlobalThetaInVideo.avi,noTheta,plusVideo,sp07,Dr,Gr,4,2,3,flow/blocks/NoThetaInAudio_GlobalThetaInVideo_A.csv,,,,,,,,,0,2,2,2,0,0,0,23,,,,,,,,,-0.4152777777777778,-0.08981481481481482,1,0,0,6.9537415999993755,call3,-0.03194444444444444,-0.09675925925925925,1,0,0,7.7218466999993325,colour3,0.35555555555555557,-0.32314814814814813,1,0,0,8.403014299999995,number4,False,False,True,35,5,2019_Nov_19_1305,MA_Theta_Exp,3.0.7,60.174156042357076,
video/Experiment/zh_sp01_Ad_Ro_4_NoThetaInAudio_GlobalThetaInVideo.avi,noTheta,plusVideo,sp01,Ad,Ro,4,2,3,flow/blocks/NoThetaInAudio_GlobalThetaInVideo_A.csv,,,,,,,,,0,2,2,2,0,1,1,11,,,,,,,,,-0.44583333333333336,0.09490740740740741,1,0,0,8.806602900000144,call2,-0.034722222222222224,0.31296296296296294,1,0,0,10.758027400000174,colour1,0.4,-0.2828703703703704,1,0,0,11.811333900000136,number4,False,False,True,35,5,2019_Nov_19_1305,MA_Theta_Exp,3.0.7,60.174156042357076,
video/Experiment/zh_sp07_Ad_Gr_1_NoThetaInAudio_GlobalThetaInVideo.avi,noTheta,plusVideo,sp07,Ad,Gr,1,2,3,flow/blocks/NoThetaInAudio_GlobalThetaInVideo_A.csv,,,,,,,,,0,2,2,2,0,2,2,4,,,,,,,,,-0.3902777777777778,0.29444444444444445,1,0,0,4.606735999999728,call1,0.05,0.12916666666666668,1,0,0,5.309849000000213,colour2,0.3527777777777778,0.325,1,0,0,6.306468599999789,number1,True,True,True,35,5,2019_Nov_19_1305,MA_Theta_Exp,3.0.7,60.174156042357076,
video/Experiment/zh_sp01_Ti_Ge_4_NoThetaInAudio_GlobalThetaInVideo.avi,noTheta,plusVideo,sp01,Ti,Ge,4,2,3,flow/blocks/NoThetaInAudio_GlobalThetaInVideo_A.csv,,,,,,,,,0,2,2,2,0,3,3,3,,,,,,,,,-0.3625,-0.13194444444444445,1,0,0,5.112296799999967,call3,0.016666666666666666,0.3236111111111111,1,0,0,5.692432400000143,colour1,0.35138888888888886,-0.275,1,0,0,6.577088400000321,number4,True,True,True,35,5,2019_Nov_19_1305,MA_Theta_Exp,3.0.7,60.174156042357076,
video/Experiment/zh_sp01_Ad_Gr_2_NoThetaInAudio_GlobalThetaInVideo.avi,noTheta,plusVideo,sp01,Ad,Gr,2,2,3,flow/blocks/NoThetaInAudio_GlobalThetaInVideo_A.csv,,,,,,,,,0,2,2,2,0,4,4,21,,,,,,,,,-0.4263888888888889,0.2902777777777778,1,0,0,5.422606300000552,call1,0.058333333333333334,0.08611111111111111,1,0,0,6.254689700000199,colour2,0.3416666666666667,0.13333333333333333,1,0,0,7.041173499999786,number2,True,True,True,35,5,2019_Nov_19_1305,MA_Theta_Exp,3.0.7,60.174156042357076,
video/Experiment/zh_sp01_Ad_We_2_NoThetaInAudio_GlobalThetaInVideo.avi,noTheta,plusVideo,sp01,Ad,We,2,2,3,flow/blocks/NoThetaInAudio_GlobalThetaInVideo_A.csv,,,,,,,,,0,2,2,2,0,5,5,29,,,,,,,,,-0.39444444444444443,0.3597222222222222,1,0,0,5.573620400000436,call1,0.05277777777777778,0.1111111111111111,1,0,0,6.425299300000006,colour2,0.41805555555555557,0.09305555555555556,1,0,0,6.9573929999996835,number2,True,False,True,35,5,2019_Nov_19_1305,MA_Theta_Exp,3.0.7,60.174156042357076,
video/Experiment/zh_sp07_Ti_Ge_3_NoThetaInAudio_GlobalThetaInVideo.avi,noTheta,plusVideo,sp07,Ti,Ge,3,2,3,flow/blocks/NoThetaInAudio_GlobalThetaInVideo_A.csv,,,,,,,,,0,2,2,2,0,6,6,18,,,,,,,,,-0.4236111111111111,0.14305555555555555,1,0,0,5.2217633000000205,call2,-0.011111111111111112,-0.1,1,0,0,6.605729100000644,colour3,0.39444444444444443,-0.10833333333333334,1,0,0,7.586396700000478,number3,False,False,True,35,5,2019_Nov_19_1305,MA_Theta_Exp,3.0.7,60.174156042357076,
video/Experiment/zh_sp07_Dr_Ro_2_NoThetaInAudio_GlobalThetaInVideo.avi,noTheta,plusVideo,sp07,Dr,Ro,2,2,3,flow/blocks/NoThetaInAudio_GlobalThetaInVideo_A.csv,,,,,,,,,0,2,2,2,0,7,7,9,,,,,,,,,-0.3638888888888889,0.09444444444444444,1,0,0,4.454865300000165,call2,0.002777777777777778,-0.09722222222222222,1,0,0,5.029908499999692,colour3,0.3875,0.13055555555555556,1,0,0,5.5910047999996095,number2,True,True,True,35,5,2019_Nov_19_1305,MA_Theta_Exp,3.0.7,60.174156042357076,
video/Experiment/zh_sp01_Ti_Ro_2_NoThetaInAudio_GlobalThetaInVideo.avi,noTheta,plusVideo,sp01,Ti,Ro,2,2,3,flow/blocks/NoThetaInAudio_GlobalThetaInVideo_A.csv,,,,,,,,,0,2,2,2,0,8,8,25,,,,,,,,,-0.37916666666666665,-0.31666666666666665,1,0,0,5.9866571000002295,call4,0.0125,-0.125,1,0,0,6.530872000000272,colour3,0.4444444444444444,0.14583333333333334,1,0,0,7.048017800000707,number2,False,True,True,35,5,2019_Nov_19_1305,MA_Theta_Exp,3.0.7,60.174156042357076,
video/Experiment/zh_sp01_Un_Ro_3_NoThetaInAudio_GlobalThetaInVideo.avi,noTheta,plusVideo,sp01,Un,Ro,3,2,3,flow/blocks/NoThetaInAudio_GlobalThetaInVideo_A.csv,,,,,,,,,0,2,2,2,0,9,9,26,,,,,,,,,-0.3625,0.2791666666666667,1,0,0,5.19139129999985,call1,-0.043055555555555555,-0.09861111111111111,1,0,0,5.95869649999986,colour3,0.4027777777777778,-0.12222222222222222,1,0,0,6.478248700000222,number3,False,True,True,35,5,2019_Nov_19_1305,MA_Theta_Exp,3.0.7,60.174156042357076,
video/Experiment/zh_sp01_Dr_Ge_4_NoThetaInAudio_GlobalThetaInVideo.avi,noTheta,plusVideo,sp01,Dr,Ge,4,2,3,flow/blocks/NoThetaInAudio_GlobalThetaInVideo_A.csv,,,,,,,,,0,2,2,2,0,10,10,19,,,,,,,,,-0.41805555555555557,-0.25555555555555554,1,0,0,5.36207210000066,call4,0.020833333333333332,0.29305555555555557,1,0,0,6.061071000000084,colour1,0.37777777777777777,-0.3527777777777778,1,0,0,6.829699300000357,number4,False,True,True,35,5,2019_Nov_19_1305,MA_Theta_Exp,3.0.7,60.174156042357076,
video/Experiment/zh_sp07_Ti_Ge_2_NoThetaInAudio_GlobalThetaInVideo.avi,noTheta,plusVideo,sp07,Ti,Ge,2,2,3,flow/blocks/NoThetaInAudio_GlobalThetaInVideo_A.csv,,,,,,,,,0,2,2,2,0,11,11,1,,,,,,,,,-0.44166666666666665,-0.30833333333333335,1,0,0,4.768090700000357,call4,-0.022222222222222223,0.31666666666666665,1,0,0,5.818887099999301,colour1,0.37222222222222223,0.12638888888888888,1,0,0,6.616593400000056,number2,False,True,True,35,5,2019_Nov_19_1305,MA_Theta_Exp,3.0.7,60.174156042357076,
video/Experiment/zh_sp01_Ad_Ro_1_NoThetaInAudio_GlobalThetaInVideo.avi,noTheta,plusVideo,sp01,Ad,Ro,1,2,3,flow/blocks/NoThetaInAudio_GlobalThetaInVideo_A.csv,,,,,,,,,0,2,2,2,0,12,12,8,,,,,,,,,-0.4361111111111111,0.2652777777777778,1,0,0,5.294681099999252,call1,-0.005555555555555556,-0.15138888888888888,1,0,0,6.029765500000394,colour3,0.375,0.30972222222222223,1,0,0,6.736065699999926,number1,True,True,True,35,5,2019_Nov_19_1305,MA_Theta_Exp,3.0.7,60.174156042357076,
video/Experiment/zh_sp07_Dr_Gr_2_NoThetaInAudio_GlobalThetaInVideo.avi,noTheta,plusVideo,sp07,Dr,Gr,2,2,3,flow/blocks/NoThetaInAudio_GlobalThetaInVideo_A.csv,,,,,,,,,0,2,2,2,0,13,13,5,,,,,,,,,-0.45694444444444443,-0.30277777777777776,1,0,0,4.706576999999925,call4,-0.06388888888888888,0.06111111111111111,1,0,0,5.526105699999789,colour2,0.38055555555555554,0.12638888888888888,1,0,0,6.126650999999583,number2,False,True,True,35,5,2019_Nov_19_1305,MA_Theta_Exp,3.0.7,60.174156042357076,
video/Experiment/zh_sp07_Un_Ge_3_NoThetaInAudio_GlobalThetaInVideo.avi,noTheta,plusVideo,sp07,Un,Ge,3,2,3,flow/blocks/NoThetaInAudio_GlobalThetaInVideo_A.csv,,,,,,,,,0,2,2,2,0,14,14,2,,,,,,,,,-0.37083333333333335,-0.2861111111111111,1,0,0,4.46947850000015,call4,0.018055555555555554,0.2625,1,0,0,5.132884200000262,colour1,0.39861111111111114,-0.09027777777777778,1,0,0,5.8539646999997785,number3,True,True,True,35,5,2019_Nov_19_1305,MA_Theta_Exp,3.0.7,60.174156042357076,
video/Experiment/zh_sp07_Ti_Ro_3_NoThetaInAudio_GlobalThetaInVideo.avi,noTheta,plusVideo,sp07,Ti,Ro,3,2,3,flow/blocks/NoThetaInAudio_GlobalThetaInVideo_A.csv,,,,,,,,,0,2,2,2,0,15,15,10,,,,,,,,,-0.45555555555555555,0.11388888888888889,1,0,0,5.939771600000313,call2,-0.05138888888888889,-0.07916666666666666,1,0,0,6.757681699999921,colour3,0.35138888888888886,-0.10972222222222222,1,0,0,7.655697499999405,number3,False,True,True,35,5,2019_Nov_19_1305,MA_Theta_Exp,3.0.7,60.174156042357076,
video/Experiment/zh_sp07_Ti_Gr_4_NoThetaInAudio_GlobalThetaInVideo.avi,noTheta,plusVideo,sp07,Ti,Gr,4,2,3,flow/blocks/NoThetaInAudio_GlobalThetaInVideo_A.csv,,,,,,,,,0,2,2,2,0,16,16,7,,,,,,,,,-0.4486111111111111,-0.0763888888888889,1,0,0,5.024608499999886,call3,0.05555555555555555,0.059722222222222225,1,0,0,5.895760899999914,colour2,0.3972222222222222,-0.14583333333333334,1,0,0,6.528819300000578,number3,True,True,False,35,5,2019_Nov_19_1305,MA_Theta_Exp,3.0.7,60.174156042357076,
video/Experiment/zh_sp01_Ad_Gr_3_NoThetaInAudio_GlobalThetaInVideo.avi,noTheta,plusVideo,sp01,Ad,Gr,3,2,3,flow/blocks/NoThetaInAudio_GlobalThetaInVideo_A.csv,,,,,,,,,0,2,2,2,0,17,17,22,,,,,,,,,-0.4625,0.3111111111111111,1,0,0,5.539575499999955,call1,0.020833333333333332,-0.11944444444444445,1,0,0,6.176108000000568,colour3,0.34305555555555556,-0.10277777777777777,1,0,0,6.837384000000384,number3,True,False,True,35,5,2019_Nov_19_1305,MA_Theta_Exp,3.0.7,60.174156042357076,
video/Experiment/zh_sp01_Un_We_1_NoThetaInAudio_GlobalThetaInVideo.avi,noTheta,plusVideo,sp01,Un,We,1,2,3,flow/blocks/NoThetaInAudio_GlobalThetaInVideo_A.csv,,,,,,,,,0,2,2,2,0,18,18,28,,,,,,,,,-0.3375,0.07777777777777778,1,0,0,6.495880700000271,call2,-0.02638888888888889,-0.3194444444444444,1,0,0,7.309061399999337,colour4,0.40555555555555556,0.3013888888888889,1,0,0,8.20955000000049,number1,False,True,True,35,5,2019_Nov_19_1305,MA_Theta_Exp,3.0.7,60.174156042357076,
video/Experiment/zh_sp07_Un_Ge_2_NoThetaInAudio_GlobalThetaInVideo.avi,noTheta,plusVideo,sp07,Un,Ge,2,2,3,flow/blocks/NoThetaInAudio_GlobalThetaInVideo_A.csv,,,,,,,,,0,2,2,2,0,19,19,17,,,,,,,,,-0.3611111111111111,0.08194444444444444,1,0,0,5.679478600000039,call2,-0.0625,0.09722222222222222,1,0,0,6.304753900000833,colour2,0.4027777777777778,0.08472222222222223,1,0,0,6.856567800000448,number2,False,False,True,35,5,2019_Nov_19_1305,MA_Theta_Exp,3.0.7,60.174156042357076,
video/Experiment/zh_sp07_Ad_We_3_NoThetaInAudio_GlobalThetaInVideo.avi,noTheta,plusVideo,sp07,Ad,We,3,2,3,flow/blocks/NoThetaInAudio_GlobalThetaInVideo_A.csv,,,,,,,,,0,2,2,2,0,20,20,30,,,,,,,,,-0.37916666666666665,0.2777777777777778,1,0,0,4.429490299999998,call1,-0.04583333333333333,-0.35833333333333334,1,0,0,5.14865540000028,colour4,0.4013888888888889,-0.10833333333333334,1,0,0,5.897365800000443,number3,True,True,True,35,5,2019_Nov_19_1305,MA_Theta_Exp,3.0.7,60.174156042357076,
video/Experiment/zh_sp01_Un_Gr_1_NoThetaInAudio_GlobalThetaInVideo.avi,noTheta,plusVideo,sp01,Un,Gr,1,2,3,flow/blocks/NoThetaInAudio_GlobalThetaInVideo_A.csv,,,,,,,,,0,2,2,2,0,21,21,20,,,,,,,,,-0.3763888888888889,0.3125,1,0,0,5.490245500000128,call1,-0.05555555555555555,0.09166666666666666,1,0,0,6.323884400000679,colour2,0.37916666666666665,0.3125,1,0,0,7.206285600000228,number1,False,True,True,35,5,2019_Nov_19_1305,MA_Theta_Exp,3.0.7,60.174156042357076,
video/Experiment/zh_sp01_Ad_We_1_NoThetaInAudio_GlobalThetaInVideo.avi,noTheta,plusVideo,sp01,Ad,We,1,2,3,flow/blocks/NoThetaInAudio_GlobalThetaInVideo_A.csv,,,,,,,,,0,2,2,2,0,22,22,12,,,,,,,,,-0.42083333333333334,0.3138888888888889,1,0,0,5.088008100000479,call1,0.075,-0.3138888888888889,1,0,0,5.856739300000299,colour4,0.4888888888888889,0.3236111111111111,1,0,0,6.705018200000268,number1,True,True,True,35,5,2019_Nov_19_1305,MA_Theta_Exp,3.0.7,60.174156042357076,
video/Experiment/zh_sp07_Ti_We_4_NoThetaInAudio_GlobalThetaInVideo.avi,noTheta,plusVideo,sp07,Ti,We,4,2,3,flow/blocks/NoThetaInAudio_GlobalThetaInVideo_A.csv,,,,,,,,,0,2,2,2,0,23,23,31,,,,,,,,,-0.3888888888888889,-0.09305555555555556,1,0,0,6.367197199999282,call3,0.008333333333333333,0.09305555555555556,1,0,0,7.636135699999613,colour2,0.33055555555555555,-0.3055555555555556,1,0,0,8.319511199999397,number4,True,False,True,35,5,2019_Nov_19_1305,MA_Theta_Exp,3.0.7,60.174156042357076,
video/Experiment/zh_sp07_Un_We_4_NoThetaInAudio_GlobalThetaInVideo.avi,noTheta,plusVideo,sp07,Un,We,4,2,3,flow/blocks/NoThetaInAudio_GlobalThetaInVideo_A.csv,,,,,,,,,0,2,2,2,0,24,24,15,,,,,,,,,-0.3875,0.3013888888888889,1,0,0,5.4141295999997965,call1,-0.034722222222222224,-0.275,1,0,0,6.351367699999173,colour4,0.4083333333333333,-0.1638888888888889,1,0,0,7.814199500000541,number3,False,True,False,35,5,2019_Nov_19_1305,MA_Theta_Exp,3.0.7,60.174156042357076,
video/Experiment/zh_sp01_Ti_Ge_1_NoThetaInAudio_GlobalThetaInVideo.avi,noTheta,plusVideo,sp01,Ti,Ge,1,2,3,flow/blocks/NoThetaInAudio_GlobalThetaInVideo_A.csv,,,,,,,,,0,2,2,2,0,25,25,16,,,,,,,,,-0.38472222222222224,-0.05555555555555555,1,0,0,7.291485700000521,call3,0.044444444444444446,0.29583333333333334,1,0,0,9.689530200000263,colour1,0.43472222222222223,0.28055555555555556,1,0,0,10.563098800000262,number1,True,True,True,35,5,2019_Nov_19_1305,MA_Theta_Exp,3.0.7,60.174156042357076,
video/Experiment/zh_sp01_Dr_Ro_4_NoThetaInAudio_GlobalThetaInVideo.avi,noTheta,plusVideo,sp01,Dr,Ro,4,2,3,flow/blocks/NoThetaInAudio_GlobalThetaInVideo_A.csv,,,,,,,,,0,2,2,2,0,26,26,27,,,,,,,,,-0.3958333333333333,0.10833333333333334,1,0,0,5.277280799999971,call2,0.0375,-0.08611111111111111,1,0,0,6.062244599999758,colour3,0.3972222222222222,-0.11805555555555555,1,0,0,8.681388900000456,number3,True,True,False,35,5,2019_Nov_19_1305,MA_Theta_Exp,3.0.7,60.174156042357076,
video/Experiment/zh_sp07_Dr_We_2_NoThetaInAudio_GlobalThetaInVideo.avi,noTheta,plusVideo,sp07,Dr,We,2,2,3,flow/blocks/NoThetaInAudio_GlobalThetaInVideo_A.csv,,,,,,,,,0,2,2,2,0,27,27,13,,,,,,,,,-0.3597222222222222,-0.31666666666666665,1,0,0,5.998741599999448,call4,-0.006944444444444444,-0.3388888888888889,1,0,0,6.748390900000231,colour4,0.39305555555555555,0.29583333333333334,1,0,0,7.612451599999986,number1,False,True,False,35,5,2019_Nov_19_1305,MA_Theta_Exp,3.0.7,60.174156042357076,
video/Experiment/zh_sp07_Dr_Ge_1_NoThetaInAudio_GlobalThetaInVideo.avi,noTheta,plusVideo,sp07,Dr,Ge,1,2,3,flow/blocks/NoThetaInAudio_GlobalThetaInVideo_A.csv,,,,,,,,,0,2,2,2,0,28,28,0,,,,,,,,,-0.3597222222222222,0.08611111111111111,1,0,0,4.7389146000004985,call2,0.03194444444444444,0.3111111111111111,1,0,0,5.317573100000118,colour1,0.37083333333333335,0.3277777777777778,1,0,0,5.892328400000224,number1,True,True,True,35,5,2019_Nov_19_1305,MA_Theta_Exp,3.0.7,60.174156042357076,
video/Experiment/zh_sp07_Un_We_3_NoThetaInAudio_GlobalThetaInVideo.avi,noTheta,plusVideo,sp07,Un,We,3,2,3,flow/blocks/NoThetaInAudio_GlobalThetaInVideo_A.csv,,,,,,,,,0,2,2,2,0,29,29,14,,,,,,,,,-0.3638888888888889,-0.06527777777777778,1,0,0,7.255791399999907,call3,0.04722222222222222,-0.1111111111111111,1,0,0,8.940982900000563,colour3,0.4,-0.06527777777777778,1,0,0,9.598256099999162,number3,False,False,True,35,5,2019_Nov_19_1305,MA_Theta_Exp,3.0.7,60.174156042357076,
video/Experiment/zh_sp01_Dr_Gr_3_NoThetaInAudio_GlobalThetaInVideo.avi,noTheta,plusVideo,sp01,Dr,Gr,3,2,3,flow/blocks/NoThetaInAudio_GlobalThetaInVideo_A.csv,,,,,,,,,0,2,2,2,0,30,30,6,,,,,,,,,-0.44583333333333336,0.08333333333333333,1,0,0,5.217884499999855,call2,0.05,0.07777777777777778,1,0,0,5.899951200000032,colour2,0.38333333333333336,-0.08333333333333333,1,0,0,6.473066300000028,number3,True,True,True,35,5,2019_Nov_19_1305,MA_Theta_Exp,3.0.7,60.174156042357076,
video/Experiment/zh_sp01_Un_Ro_1_NoThetaInAudio_GlobalThetaInVideo.avi,noTheta,plusVideo,sp01,Un,Ro,1,2,3,flow/blocks/NoThetaInAudio_GlobalThetaInVideo_A.csv,,,,,,,,,0,2,2,2,0,31,31,24,,,,,,,,,-0.4041666666666667,-0.34120370370370373,1,0,0,5.192186199999924,call4,-0.030555555555555555,-0.13564814814814816,1,0,0,5.825079899999764,colour3,0.41388888888888886,0.3476851851851852,1,0,0,6.69419359999938,number1,True,True,True,35,5,2019_Nov_19_1305,MA_Theta_Exp,3.0.7,60.174156042357076,
video/Experiment/zh_sp01_Ad_Ge_1_GlobalTheta_NoVideo.avi,globalTheta,noVideo,sp01,Ad,Ge,1,3,5,flow/blocks/GlobalTheta_NoVideo_B.csv,,,,,,,,,0,3,3,3,0,0,0,16,,,,,,,,,-0.3375,-0.29259259259259257,1,0,0,8.5245776999991,call4,-0.07083333333333333,-0.09953703703703703,1,0,0,9.408498599999803,colour3,0.3819444444444444,0.29074074074074074,1,0,0,9.961344399999689,number1,False,False,True,35,5,2019_Nov_19_1305,MA_Theta_Exp,3.0.7,60.174156042357076,
video/Experiment/zh_sp07_Dr_We_3_GlobalTheta_NoVideo.avi,globalTheta,noVideo,sp07,Dr,We,3,3,5,flow/blocks/GlobalTheta_NoVideo_B.csv,,,,,,,,,0,3,3,3,0,1,1,14,,,,,,,,,-0.46944444444444444,-0.27037037037037037,1,0,0,5.533883799999785,call4,0.005555555555555556,-0.3300925925925926,1,0,0,6.31673469999987,colour4,0.3388888888888889,-0.10787037037037037,1,0,0,6.912688400000661,number3,False,True,True,35,5,2019_Nov_19_1305,MA_Theta_Exp,3.0.7,60.174156042357076,
video/Experiment/zh_sp07_Dr_Ge_2_GlobalTheta_NoVideo.avi,globalTheta,noVideo,sp07,Dr,Ge,2,3,5,flow/blocks/GlobalTheta_NoVideo_B.csv,,,,,,,,,0,3,3,3,0,2,2,17,,,,,,,,,-0.4486111111111111,-0.1162037037037037,1,0,0,6.502801499999805,call3,-0.022222222222222223,-0.04398148148148148,1,0,0,7.803752399999212,colour3,0.4027777777777778,0.37962962962962965,1,0,0,8.426611500000035,number1,False,False,False,35,5,2019_Nov_19_1305,MA_Theta_Exp,3.0.7,60.174156042357076,
video/Experiment/zh_sp07_Un_Ge_4_GlobalTheta_NoVideo.avi,globalTheta,noVideo,sp07,Un,Ge,4,3,5,flow/blocks/GlobalTheta_NoVideo_B.csv,,,,,,,,,0,3,3,3,0,3,3,19,,,,,,,,,-0.36944444444444446,-0.3162037037037037,1,0,0,5.0194206999995,call4,0.015277777777777777,0.11018518518518519,1,0,0,5.65166760000011,colour2,0.49583333333333335,-0.11898148148148148,1,0,0,6.8699931000001015,number3,True,False,False,35,5,2019_Nov_19_1305,MA_Theta_Exp,3.0.7,60.174156042357076,
video/Experiment/zh_sp07_Ad_Ro_2_GlobalTheta_NoVideo.avi,globalTheta,noVideo,sp07,Ad,Ro,2,3,5,flow/blocks/GlobalTheta_NoVideo_B.csv,,,,,,,,,0,3,3,3,0,4,4,25,,,,,,,,,-0.4305555555555556,0.30833333333333335,1,0,0,4.706664199999977,call1,0.07777777777777778,-0.06944444444444445,1,0,0,5.696468099999947,colour3,0.30277777777777776,0.13194444444444445,1,0,0,6.403930599999512,number2,True,True,True,35,5,2019_Nov_19_1305,MA_Theta_Exp,3.0.7,60.174156042357076,
video/Experiment/zh_sp07_Dr_We_4_GlobalTheta_NoVideo.avi,globalTheta,noVideo,sp07,Dr,We,4,3,5,flow/blocks/GlobalTheta_NoVideo_B.csv,,,,,,,,,0,3,3,3,0,5,5,15,,,,,,,,,-0.41805555555555557,0.2847222222222222,1,0,0,7.026619399999618,call1,-0.009722222222222222,-0.12916666666666668,1,0,0,7.614232500000071,colour3,0.38333333333333336,0.10694444444444444,1,0,0,8.799326599999404,number2,False,False,False,35,5,2019_Nov_19_1305,MA_Theta_Exp,3.0.7,60.174156042357076,
video/Experiment/zh_sp07_Dr_Ge_3_GlobalTheta_NoVideo.avi,globalTheta,noVideo,sp07,Dr,Ge,3,3,5,flow/blocks/GlobalTheta_NoVideo_B.csv,,,,,,,,,0,3,3,3,0,6,6,2,,,,,,,,,-0.3277777777777778,-0.12361111111111112,1,0,0,7.191175099999782,call3,-0.05416666666666667,-0.11805555555555555,1,0,0,8.025454500000706,colour3,0.37916666666666665,0.30833333333333335,1,0,0,9.526078699999744,number1,False,False,False,35,5,2019_Nov_19_1305,MA_Theta_Exp,3.0.7,60.174156042357076,
video/Experiment/zh_sp01_Ad_Gr_4_GlobalTheta_NoVideo.avi,globalTheta,noVideo,sp01,Ad,Gr,4,3,5,flow/blocks/GlobalTheta_NoVideo_B.csv,,,,,,,,,0,3,3,3,0,7,7,7,,,,,,,,,-0.45555555555555555,0.30416666666666664,1,0,0,5.3181351000002905,call1,-0.07222222222222222,0.13333333333333333,1,0,0,6.118595400000231,colour2,0.3902777777777778,-0.31805555555555554,1,0,0,6.827049700000316,number4,True,True,True,35,5,2019_Nov_19_1305,MA_Theta_Exp,3.0.7,60.174156042357076,
video/Experiment/zh_sp07_Ti_We_3_GlobalTheta_NoVideo.avi,globalTheta,noVideo,sp07,Ti,We,3,3,5,flow/blocks/GlobalTheta_NoVideo_B.csv,,,,,,,,,0,3,3,3,0,8,8,30,,,,,,,,,-0.4486111111111111,0.12638888888888888,1,0,0,4.626678499999798,call2,0.03194444444444444,-0.3458333333333333,1,0,0,8.728193700000702,colour4,0.41388888888888886,-0.11481481481481481,1,0,0,9.758505100000548,number3,False,True,True,35,5,2019_Nov_19_1305,MA_Theta_Exp,3.0.7,60.174156042357076,
video/Experiment/zh_sp07_Ti_Ro_1_GlobalTheta_NoVideo.avi,globalTheta,noVideo,sp07,Ti,Ro,1,3,5,flow/blocks/GlobalTheta_NoVideo_B.csv,,,,,,,,,0,3,3,3,0,9,9,8,,,,,,,,,-0.39166666666666666,-0.2773148148148148,1,0,0,5.688780399999814,call4,0.059722222222222225,0.0824074074074074,1,0,0,6.400472500000433,colour2,0.3861111111111111,0.3365740740740741,1,0,0,7.201392200000555,number1,False,False,True,35,5,2019_Nov_19_1305,MA_Theta_Exp,3.0.7,60.174156042357076,
video/Experiment/zh_sp07_Dr_Ro_3_GlobalTheta_NoVideo.avi,globalTheta,noVideo,sp07,Dr,Ro,3,3,5,flow/blocks/GlobalTheta_NoVideo_B.csv,,,,,,,,,0,3,3,3,0,10,10,26,,,,,,,,,-0.3861111111111111,-0.1162037037037037,1,0,0,5.4520886999998766,call3,-0.005555555555555556,-0.11203703703703703,1,0,0,6.273913699999866,colour3,0.37222222222222223,-0.10925925925925926,1,0,0,6.90104699999938,number3,False,True,True,35,5,2019_Nov_19_1305,MA_Theta_Exp,3.0.7,60.174156042357076,
video/Experiment/zh_sp01_Ti_We_1_GlobalTheta_NoVideo.avi,globalTheta,noVideo,sp01,Ti,We,1,3,5,flow/blocks/GlobalTheta_NoVideo_B.csv,,,,,,,,,0,3,3,3,0,11,11,12,,,,,,,,,-0.4236111111111111,-0.324537037037037,1,0,0,7.269246099999691,call4,0.03333333333333333,0.26157407407407407,1,0,0,9.336397800000668,colour1,0.44583333333333336,0.362962962962963,1,0,0,10.42043889999968,number1,False,False,True,35,5,2019_Nov_19_1305,MA_Theta_Exp,3.0.7,60.174156042357076,
video/Experiment/zh_sp07_Dr_Ro_1_GlobalTheta_NoVideo.avi,globalTheta,noVideo,sp07,Dr,Ro,1,3,5,flow/blocks/GlobalTheta_NoVideo_B.csv,,,,,,,,,0,3,3,3,0,12,12,24,,,,,,,,,-0.4111111111111111,0.3101851851851852,1,0,0,7.12729440000021,call1,-0.08194444444444444,-0.1175925925925926,1,0,0,8.224930499999573,colour3,0.3416666666666667,0.2574074074074074,1,0,0,9.327394500000082,number1,False,True,True,35,5,2019_Nov_19_1305,MA_Theta_Exp,3.0.7,60.174156042357076,
video/Experiment/zh_sp07_Ti_We_2_GlobalTheta_NoVideo.avi,globalTheta,noVideo,sp07,Ti,We,2,3,5,flow/blocks/GlobalTheta_NoVideo_B.csv,,,,,,,,,0,3,3,3,0,13,13,29,,,,,,,,,-0.29305555555555557,0.16296296296296298,1,0,0,4.628986200000327,call2,-0.05416666666666667,0.10324074074074074,1,0,0,5.718197099999998,colour2,0.4513888888888889,0.05462962962962963,1,0,0,6.740824399999838,number2,False,False,True,35,5,2019_Nov_19_1305,MA_Theta_Exp,3.0.7,60.174156042357076,
video/Experiment/zh_sp01_Un_Gr_4_GlobalTheta_NoVideo.avi,globalTheta,noVideo,sp01,Un,Gr,4,3,5,flow/blocks/GlobalTheta_NoVideo_B.csv,,,,,,,,,0,3,3,3,0,14,14,23,,,,,,,,,-0.3458333333333333,-0.09953703703703703,1,0,0,4.9964264000000185,call3,0.004166666666666667,0.0824074074074074,1,0,0,5.580578299999615,colour2,0.3902777777777778,-0.07314814814814814,1,0,0,8.463084299999537,number3,False,True,False,35,5,2019_Nov_19_1305,MA_Theta_Exp,3.0.7,60.174156042357076,
video/Experiment/zh_sp01_Ad_Ro_3_GlobalTheta_NoVideo.avi,globalTheta,noVideo,sp01,Ad,Ro,3,3,5,flow/blocks/GlobalTheta_NoVideo_B.csv,,,,,,,,,0,3,3,3,0,15,15,10,,,,,,,,,-0.35833333333333334,0.2810185185185185,1,0,0,5.2531161999995675,call1,0.015277777777777777,-0.10648148148148148,1,0,0,6.039840600000389,colour3,0.38472222222222224,-0.1050925925925926,1,0,0,6.68704869999965,number3,True,True,True,35,5,2019_Nov_19_1305,MA_Theta_Exp,3.0.7,60.174156042357076,
video/Experiment/zh_sp07_Ad_Ge_2_GlobalTheta_NoVideo.avi,globalTheta,noVideo,sp07,Ad,Ge,2,3,5,flow/blocks/GlobalTheta_NoVideo_B.csv,,,,,,,,,0,3,3,3,0,16,16,1,,,,,,,,,-0.375,0.11712962962962963,1,0,0,5.884477300000071,call2,-0.075,0.056018518518518516,1,0,0,7.919671499999822,colour2,0.4,-0.4009259259259259,1,0,0,8.999908799999503,number4,False,False,False,35,5,2019_Nov_19_1305,MA_Theta_Exp,3.0.7,60.174156042357076,
video/Experiment/zh_sp01_Dr_Gr_1_GlobalTheta_NoVideo.avi,globalTheta,noVideo,sp01,Dr,Gr,1,3,5,flow/blocks/GlobalTheta_NoVideo_B.csv,,,,,,,,,0,3,3,3,0,17,17,20,,,,,,,,,-0.38472222222222224,0.26157407407407407,1,0,0,8.547615099999348,call1,-0.04027777777777778,-0.262037037037037,1,0,0,9.523110199999792,colour4,0.3125,0.2796296296296296,1,0,0,10.38856289999967,number1,False,False,True,35,5,2019_Nov_19_1305,MA_Theta_Exp,3.0.7,60.174156042357076,
video/Experiment/zh_sp01_Ad_Ge_3_GlobalTheta_NoVideo.avi,globalTheta,noVideo,sp01,Ad,Ge,3,3,5,flow/blocks/GlobalTheta_NoVideo_B.csv,,,,,,,,,0,3,3,3,0,18,18,18,,,,,,,,,-0.41388888888888886,0.30185185185185187,1,0,0,4.920093000000634,call1,-0.027777777777777776,0.2601851851851852,1,0,0,5.604908100000102,colour1,0.40694444444444444,-0.08981481481481482,1,0,0,6.530664899999465,number3,True,True,True,35,5,2019_Nov_19_1305,MA_Theta_Exp,3.0.7,60.174156042357076,
video/Experiment/zh_sp01_Un_We_2_GlobalTheta_NoVideo.avi,globalTheta,noVideo,sp01,Un,We,2,3,5,flow/blocks/GlobalTheta_NoVideo_B.csv,,,,,,,,,0,3,3,3,0,19,19,13,,,,,,,,,-0.4222222222222222,-0.32175925925925924,1,0,0,4.956748599999628,call4,-0.001388888888888889,-0.3453703703703704,1,0,0,5.720278099999632,colour4,0.3680555555555556,0.08935185185185185,1,0,0,6.336030999999821,number2,True,True,True,35,5,2019_Nov_19_1305,MA_Theta_Exp,3.0.7,60.174156042357076,
video/Experiment/zh_sp01_Ad_Ge_4_GlobalTheta_NoVideo.avi,globalTheta,noVideo,sp01,Ad,Ge,4,3,5,flow/blocks/GlobalTheta_NoVideo_B.csv,,,,,,,,,0,3,3,3,0,20,20,3,,,,,,,,,-0.35138888888888886,0.3263888888888889,1,0,0,5.465322099999867,call1,-0.015277777777777777,0.3055555555555556,1,0,0,6.212848099999974,colour1,0.4222222222222222,-0.10555555555555556,1,0,0,7.115424199999325,number3,True,True,False,35,5,2019_Nov_19_1305,MA_Theta_Exp,3.0.7,60.174156042357076,
video/Experiment/zh_sp01_Ti_Gr_2_GlobalTheta_NoVideo.avi,globalTheta,noVideo,sp01,Ti,Gr,2,3,5,flow/blocks/GlobalTheta_NoVideo_B.csv,,,,,,,,,0,3,3,3,0,21,21,21,,,,,,,,,-0.375,0.10138888888888889,1,0,0,6.585561400000188,call2,-0.022222222222222223,-0.06111111111111111,1,0,0,9.400900999999976,colour3,0.38055555555555554,0.03888888888888889,1,0,0,10.33770000000004,number2,False,False,True,35,5,2019_Nov_19_1305,MA_Theta_Exp,3.0.7,60.174156042357076,
video/Experiment/zh_sp01_Un_Ge_1_GlobalTheta_NoVideo.avi,globalTheta,noVideo,sp01,Un,Ge,1,3,5,flow/blocks/GlobalTheta_NoVideo_B.csv,,,,,,,,,0,3,3,3,0,22,22,0,,,,,,,,,-0.37222222222222223,-0.35648148148148145,1,0,0,5.147446100000707,call4,0.011111111111111112,0.26296296296296295,1,0,0,5.883525100000043,colour1,0.41388888888888886,0.2865740740740741,1,0,0,6.513475799999469,number1,True,True,True,35,5,2019_Nov_19_1305,MA_Theta_Exp,3.0.7,60.174156042357076,
video/Experiment/zh_sp01_Ad_We_4_GlobalTheta_NoVideo.avi,globalTheta,noVideo,sp01,Ad,We,4,3,5,flow/blocks/GlobalTheta_NoVideo_B.csv,,,,,,,,,0,3,3,3,0,23,23,31,,,,,,,,,-0.4513888888888889,0.3194444444444444,1,0,0,5.454614600000241,call1,-0.029166666666666667,-0.12222222222222222,1,0,0,6.50101259999974,colour3,0.32916666666666666,-0.2652777777777778,1,0,0,8.122496399999363,number4,True,False,True,35,5,2019_Nov_19_1305,MA_Theta_Exp,3.0.7,60.174156042357076,
video/Experiment/zh_sp07_Un_Gr_2_GlobalTheta_NoVideo.avi,globalTheta,noVideo,sp07,Un,Gr,2,3,5,flow/blocks/GlobalTheta_NoVideo_B.csv,,,,,,,,,0,3,3,3,0,24,24,5,,,,,,,,,-0.4305555555555556,-0.11388888888888889,1,0,0,7.505099500000142,call3,0.027777777777777776,-0.38333333333333336,1,0,0,8.410616499999378,colour4,0.45555555555555555,0.13333333333333333,1,0,0,10.162069099999826,number2,False,False,True,35,5,2019_Nov_19_1305,MA_Theta_Exp,3.0.7,60.174156042357076,
video/Experiment/zh_sp01_Un_Ro_2_GlobalTheta_NoVideo.avi,globalTheta,noVideo,sp01,Un,Ro,2,3,5,flow/blocks/GlobalTheta_NoVideo_B.csv,,,,,,,,,0,3,3,3,0,25,25,9,,,,,,,,,-0.4027777777777778,-0.31805555555555554,1,0,0,6.620445100000325,call4,-0.04583333333333333,-0.09444444444444444,1,0,0,7.269839200000206,colour3,0.39861111111111114,0.06527777777777778,1,0,0,7.9577933000000485,number2,True,True,True,35,5,2019_Nov_19_1305,MA_Theta_Exp,3.0.7,60.174156042357076,
video/Experiment/zh_sp01_Dr_We_1_GlobalTheta_NoVideo.avi,globalTheta,noVideo,sp01,Dr,We,1,3,5,flow/blocks/GlobalTheta_NoVideo_B.csv,,,,,,,,,0,3,3,3,0,26,26,28,,,,,,,,,-0.35694444444444445,0.3194444444444444,1,0,0,5.152645299999676,call1,0.005555555555555556,-0.2638888888888889,1,0,0,6.017751800000042,colour4,0.42083333333333334,0.35833333333333334,1,0,0,6.8012176000002,number1,False,True,True,35,5,2019_Nov_19_1305,MA_Theta_Exp,3.0.7,60.174156042357076,
video/Experiment/zh_sp01_Un_Ro_4_GlobalTheta_NoVideo.avi,globalTheta,noVideo,sp01,Un,Ro,4,3,5,flow/blocks/GlobalTheta_NoVideo_B.csv,,,,,,,,,0,3,3,3,0,27,27,27,,,,,,,,,-0.42777777777777776,-0.30972222222222223,1,0,0,5.366124899999704,call4,0.05555555555555555,-0.12638888888888888,1,0,0,6.281716899999992,colour3,0.4527777777777778,-0.3277777777777778,1,0,0,8.293749399999797,number4,True,True,True,35,5,2019_Nov_19_1305,MA_Theta_Exp,3.0.7,60.174156042357076,
video/Experiment/zh_sp01_Un_Gr_3_GlobalTheta_NoVideo.avi,globalTheta,noVideo,sp01,Un,Gr,3,3,5,flow/blocks/GlobalTheta_NoVideo_B.csv,,,,,,,,,0,3,3,3,0,28,28,6,,,,,,,,,-0.4236111111111111,-0.2986111111111111,1,0,0,5.048383399999693,call4,-0.019444444444444445,0.09305555555555556,1,0,0,5.793316899999809,colour2,0.4513888888888889,-0.15138888888888888,1,0,0,6.484475499999462,number3,True,True,True,35,5,2019_Nov_19_1305,MA_Theta_Exp,3.0.7,60.174156042357076,
video/Experiment/zh_sp07_Ti_Gr_3_GlobalTheta_NoVideo.avi,globalTheta,noVideo,sp07,Ti,Gr,3,3,5,flow/blocks/GlobalTheta_NoVideo_B.csv,,,,,,,,,0,3,3,3,0,29,29,22,,,,,,,,,-0.4027777777777778,-0.14722222222222223,1,0,0,4.3140769000001455,call3,-0.027777777777777776,0.04027777777777778,1,0,0,4.862284799999543,colour2,0.36527777777777776,-0.08333333333333333,1,0,0,5.597658299999239,number3,True,True,True,35,5,2019_Nov_19_1305,MA_Theta_Exp,3.0.7,60.174156042357076,
video/Experiment/zh_sp07_Ti_Ro_4_GlobalTheta_NoVideo.avi,globalTheta,noVideo,sp07,Ti,Ro,4,3,5,flow/blocks/GlobalTheta_NoVideo_B.csv,,,,,,,,,0,3,3,3,0,30,30,11,,,,,,,,,-0.43333333333333335,-0.12222222222222222,1,0,0,5.186667000000853,call3,-0.043055555555555555,0.06527777777777778,1,0,0,6.0308821999997235,colour2,0.4388888888888889,-0.08888888888888889,1,0,0,6.737269899999774,number3,True,False,False,35,5,2019_Nov_19_1305,MA_Theta_Exp,3.0.7,60.174156042357076,
video/Experiment/zh_sp07_Ti_Gr_1_GlobalTheta_NoVideo.avi,globalTheta,noVideo,sp07,Ti,Gr,1,3,5,flow/blocks/GlobalTheta_NoVideo_B.csv,,,,,,,,,0,3,3,3,0,31,31,4,,,,,,,,,-0.4125,-0.33194444444444443,1,0,0,4.766790399999991,call4,0.002777777777777778,-0.30694444444444446,1,0,0,6.113712100000157,colour4,0.4111111111111111,-0.10694444444444444,1,0,0,7.281677899999522,number3,False,False,False,35,5,2019_Nov_19_1305,MA_Theta_Exp,3.0.7,60.174156042357076,
video/Experiment/zh_sp07_Ti_Ge_4_NVocInAudio_GlobalThetaInVideo.avi,vocoded,plusVideo,sp07,Ti,Ge,4,4,1,flow/blocks/NVocInAudio_GlobalThetaInVideo_A.csv,,,,,,,,,0,4,4,4,0,0,0,3,,,,,,,,,-0.4027777777777778,-0.08611111111111111,1,0,0,4.721144699999968,call3,0.022222222222222223,0.25972222222222224,1,0,0,5.420659799999157,colour1,0.44722222222222224,-0.26666666666666666,1,0,0,6.155768700000408,number4,True,True,True,35,5,2019_Nov_19_1305,MA_Theta_Exp,3.0.7,60.174156042357076,
video/Experiment/zh_sp07_Dr_Ge_4_NVocInAudio_GlobalThetaInVideo.avi,vocoded,plusVideo,sp07,Dr,Ge,4,4,1,flow/blocks/NVocInAudio_GlobalThetaInVideo_A.csv,,,,,,,,,0,4,4,4,0,1,1,19,,,,,,,,,-0.39166666666666666,0.15555555555555556,1,0,0,4.637824999999793,call2,-0.06388888888888888,0.3125,1,0,0,5.437923999999839,colour1,0.3861111111111111,-0.29444444444444445,1,0,0,6.188322599999992,number4,True,True,True,35,5,2019_Nov_19_1305,MA_Theta_Exp,3.0.7,60.174156042357076,
video/Experiment/zh_sp01_Un_Gr_1_NVocInAudio_GlobalThetaInVideo.avi,vocoded,plusVideo,sp01,Un,Gr,1,4,1,flow/blocks/NVocInAudio_GlobalThetaInVideo_A.csv,,,,,,,,,0,4,4,4,0,2,2,20,,,,,,,,,-0.41944444444444445,-0.325,1,0,0,5.4498465000006036,call4,-0.009722222222222222,0.04583333333333333,1,0,0,6.133299000000079,colour2,0.37083333333333335,0.32083333333333336,1,0,0,6.951061700000537,number1,True,True,True,35,5,2019_Nov_19_1305,MA_Theta_Exp,3.0.7,60.174156042357076,
video/Experiment/zh_sp01_Ad_Ro_1_NVocInAudio_GlobalThetaInVideo.avi,vocoded,plusVideo,sp01,Ad,Ro,1,4,1,flow/blocks/NVocInAudio_GlobalThetaInVideo_A.csv,,,,,,,,,0,4,4,4,0,3,3,8,,,,,,,,,-0.49166666666666664,0.3013888888888889,1,0,0,5.5766810000004625,call1,-0.05555555555555555,-0.09444444444444444,1,0,0,6.761319600000206,colour3,0.36944444444444446,0.30694444444444446,1,0,0,7.3611877000003005,number1,True,True,True,35,5,2019_Nov_19_1305,MA_Theta_Exp,3.0.7,60.174156042357076,
video/Experiment/zh_sp01_Dr_Ro_2_NVocInAudio_GlobalThetaInVideo.avi,vocoded,plusVideo,sp01,Dr,Ro,2,4,1,flow/blocks/NVocInAudio_GlobalThetaInVideo_A.csv,,,,,,,,,0,4,4,4,0,4,4,9,,,,,,,,,-0.4097222222222222,0.10416666666666667,1,0,0,5.5226675000003524,call2,-0.027777777777777776,-0.08472222222222223,1,0,0,6.194546499999888,colour3,0.4111111111111111,0.15694444444444444,1,0,0,6.8080675000001065,number2,True,True,True,35,5,2019_Nov_19_1305,MA_Theta_Exp,3.0.7,60.174156042357076,
video/Experiment/zh_sp07_Ti_Ge_1_NVocInAudio_GlobalThetaInVideo.avi,vocoded,plusVideo,sp07,Ti,Ge,1,4,1,flow/blocks/NVocInAudio_GlobalThetaInVideo_A.csv,,,,,,,,,0,4,4,4,0,5,5,16,,,,,,,,,-0.43472222222222223,-0.10972222222222222,1,0,0,4.443046100000174,call3,-0.07083333333333333,0.28055555555555556,1,0,0,5.280789000000368,colour1,0.36527777777777776,0.31666666666666665,1,0,0,5.989819299999908,number1,True,True,True,35,5,2019_Nov_19_1305,MA_Theta_Exp,3.0.7,60.174156042357076,
video/Experiment/zh_sp07_Un_We_1_NVocInAudio_GlobalThetaInVideo.avi,vocoded,plusVideo,sp07,Un,We,1,4,1,flow/blocks/NVocInAudio_GlobalThetaInVideo_A.csv,,,,,,,,,0,4,4,4,0,6,6,28,,,,,,,,,-0.43333333333333335,-0.33564814814814814,1,0,0,4.766248099999757,call4,0.04722222222222222,-0.2800925925925926,1,0,0,5.333829100000003,colour4,0.37777777777777777,0.3560185185185185,1,0,0,6.2014798999998675,number1,True,True,True,35,5,2019_Nov_19_1305,MA_Theta_Exp,3.0.7,60.174156042357076,
video/Experiment/zh_sp07_Dr_Gr_3_NVocInAudio_GlobalThetaInVideo.avi,vocoded,plusVideo,sp07,Dr,Gr,3,4,1,flow/blocks/NVocInAudio_GlobalThetaInVideo_A.csv,,,,,,,,,0,4,4,4,0,7,7,6,,,,,,,,,-0.4777777777777778,0.1574074074074074,1,0,0,5.494960299999548,call2,-0.02638888888888889,0.06296296296296296,1,0,0,6.063665300000139,colour2,0.4041666666666667,-0.1175925925925926,1,0,0,6.629102100000637,number3,True,True,True,35,5,2019_Nov_19_1305,MA_Theta_Exp,3.0.7,60.174156042357076,
video/Experiment/zh_sp07_Ad_Ro_4_NVocInAudio_GlobalThetaInVideo.avi,vocoded,plusVideo,sp07,Ad,Ro,4,4,1,flow/blocks/NVocInAudio_GlobalThetaInVideo_A.csv,,,,,,,,,0,4,4,4,0,8,8,11,,,,,,,,,-0.41944444444444445,0.2810185185185185,1,0,0,4.948226100000284,call1,-0.044444444444444446,-0.12314814814814815,1,0,0,5.632409200000438,colour3,0.41944444444444445,-0.32037037037037036,1,0,0,6.51511389999996,number4,True,True,True,35,5,2019_Nov_19_1305,MA_Theta_Exp,3.0.7,60.174156042357076,
video/Experiment/zh_sp07_Ti_We_4_NVocInAudio_GlobalThetaInVideo.avi,vocoded,plusVideo,sp07,Ti,We,4,4,1,flow/blocks/NVocInAudio_GlobalThetaInVideo_A.csv,,,,,,,,,0,4,4,4,0,9,9,31,,,,,,,,,-0.39444444444444443,-0.10231481481481482,1,0,0,4.574141600000075,call3,-0.04583333333333333,-0.3300925925925926,1,0,0,5.1836059999996,colour4,0.36944444444444446,-0.2898148148148148,1,0,0,5.698572399999648,number4,True,True,True,35,5,2019_Nov_19_1305,MA_Theta_Exp,3.0.7,60.174156042357076,
video/Experiment/zh_sp01_Ti_Ro_2_NVocInAudio_GlobalThetaInVideo.avi,vocoded,plusVideo,sp01,Ti,Ro,2,4,1,flow/blocks/NVocInAudio_GlobalThetaInVideo_A.csv,,,,,,,,,0,4,4,4,0,10,10,25,,,,,,,,,-0.39305555555555555,-0.10231481481481482,1,0,0,5.651699600000029,call3,-0.019444444444444445,-0.1162037037037037,1,0,0,6.881498799999463,colour3,0.35138888888888886,0.04351851851851852,1,0,0,7.797561699999278,number2,True,True,True,35,5,2019_Nov_19_1305,MA_Theta_Exp,3.0.7,60.174156042357076,
video/Experiment/zh_sp01_Ti_Ro_3_NVocInAudio_GlobalThetaInVideo.avi,vocoded,plusVideo,sp01,Ti,Ro,3,4,1,flow/blocks/NVocInAudio_GlobalThetaInVideo_A.csv,,,,,,,,,0,4,4,4,0,11,11,10,,,,,,,,,-0.4375,-0.05648148148148148,1,0,0,4.983234999999695,call3,-0.018055555555555554,-0.024537037037037038,1,0,0,5.650900200000251,colour3,0.37222222222222223,-0.13564814814814816,1,0,0,6.587865200000124,number3,True,True,True,35,5,2019_Nov_19_1305,MA_Theta_Exp,3.0.7,60.174156042357076,
video/Experiment/zh_sp01_Ti_Gr_4_NVocInAudio_GlobalThetaInVideo.avi,vocoded,plusVideo,sp01,Ti,Gr,4,4,1,flow/blocks/NVocInAudio_GlobalThetaInVideo_A.csv,,,,,,,,,0,4,4,4,0,12,12,7,,,,,,,,,-0.4222222222222222,-0.08425925925925926,1,0,0,5.280351900000824,call3,-0.05,0.08518518518518518,1,0,0,5.854683799999293,colour2,0.3472222222222222,-0.31203703703703706,1,0,0,6.663909699999749,number4,True,True,True,35,5,2019_Nov_19_1305,MA_Theta_Exp,3.0.7,60.174156042357076,
video/Experiment/zh_sp07_Dr_Ge_1_NVocInAudio_GlobalThetaInVideo.avi,vocoded,plusVideo,sp07,Dr,Ge,1,4,1,flow/blocks/NVocInAudio_GlobalThetaInVideo_A.csv,,,,,,,,,0,4,4,4,0,13,13,0,,,,,,,,,-0.4597222222222222,0.1087962962962963,1,0,0,4.9797975999999835,call2,-0.03333333333333333,0.2657407407407407,1,0,0,5.697624700000233,colour1,0.44166666666666665,0.2712962962962963,1,0,0,6.5073300000003655,number1,True,True,True,35,5,2019_Nov_19_1305,MA_Theta_Exp,3.0.7,60.174156042357076,
video/Experiment/zh_sp07_Dr_Gr_2_NVocInAudio_GlobalThetaInVideo.avi,vocoded,plusVideo,sp07,Dr,Gr,2,4,1,flow/blocks/NVocInAudio_GlobalThetaInVideo_A.csv,,,,,,,,,0,4,4,4,0,14,14,5,,,,,,,,,-0.4444444444444444,0.0699074074074074,1,0,0,4.809578299999885,call2,0.075,0.10462962962962963,1,0,0,5.734033499999896,colour2,0.40555555555555556,0.0587962962962963,1,0,0,6.41269740000007,number2,True,True,True,35,5,2019_Nov_19_1305,MA_Theta_Exp,3.0.7,60.174156042357076,
video/Experiment/zh_sp01_Ad_We_3_NVocInAudio_GlobalThetaInVideo.avi,vocoded,plusVideo,sp01,Ad,We,3,4,1,flow/blocks/NVocInAudio_GlobalThetaInVideo_A.csv,,,,,,,,,0,4,4,4,0,15,15,30,,,,,,,,,-0.41805555555555557,0.2935185185185185,1,0,0,4.9849592999999,call1,-0.07777777777777778,-0.3384259259259259,1,0,0,5.752596399999675,colour4,0.44305555555555554,-0.10787037037037037,1,0,0,6.303345499999523,number3,True,True,True,35,5,2019_Nov_19_1305,MA_Theta_Exp,3.0.7,60.174156042357076,
video/Experiment/zh_sp01_Ti_Ge_2_NVocInAudio_GlobalThetaInVideo.avi,vocoded,plusVideo,sp01,Ti,Ge,2,4,1,flow/blocks/NVocInAudio_GlobalThetaInVideo_A.csv,,,,,,,,,0,4,4,4,0,16,16,1,,,,,,,,,-0.4111111111111111,-0.1425925925925926,1,0,0,6.067333999999391,call3,-0.03333333333333333,0.32546296296296295,1,0,0,6.851329200000691,colour1,0.3680555555555556,0.13657407407407407,1,0,0,7.307071600000199,number2,True,True,True,35,5,2019_Nov_19_1305,MA_Theta_Exp,3.0.7,60.174156042357076,
video/Experiment/zh_sp01_Un_We_4_NVocInAudio_GlobalThetaInVideo.avi,vocoded,plusVideo,sp01,Un,We,4,4,1,flow/blocks/NVocInAudio_GlobalThetaInVideo_A.csv,,,,,,,,,0,4,4,4,0,17,17,15,,,,,,,,,-0.39444444444444443,-0.28564814814814815,1,0,0,5.089818200000082,call4,0.004166666666666667,-0.2912037037037037,1,0,0,5.763713099999222,colour4,0.4666666666666667,-0.33425925925925926,1,0,0,6.323620699999992,number4,True,True,True,35,5,2019_Nov_19_1305,MA_Theta_Exp,3.0.7,60.174156042357076,
video/Experiment/zh_sp07_Ad_We_2_NVocInAudio_GlobalThetaInVideo.avi,vocoded,plusVideo,sp07,Ad,We,2,4,1,flow/blocks/NVocInAudio_GlobalThetaInVideo_A.csv,,,,,,,,,0,4,4,4,0,18,18,29,,,,,,,,,-0.4375,0.2625,1,0,0,4.541477299999315,call1,-0.0375,-0.2916666666666667,1,0,0,5.190533099999811,colour4,0.39861111111111114,0.10555555555555556,1,0,0,5.704897999999957,number2,True,True,True,35,5,2019_Nov_19_1305,MA_Theta_Exp,3.0.7,60.174156042357076,
video/Experiment/zh_sp07_Dr_Gr_4_NVocInAudio_GlobalThetaInVideo.avi,vocoded,plusVideo,sp07,Dr,Gr,4,4,1,flow/blocks/NVocInAudio_GlobalThetaInVideo_A.csv,,,,,,,,,0,4,4,4,0,19,19,23,,,,,,,,,-0.4125,0.11944444444444445,1,0,0,4.519871200000125,call2,0.011111111111111112,0.08611111111111111,1,0,0,4.98756719999983,colour2,0.39861111111111114,-0.2972222222222222,1,0,0,5.534674200000154,number4,True,True,True,35,5,2019_Nov_19_1305,MA_Theta_Exp,3.0.7,60.174156042357076,
video/Experiment/zh_sp01_Ad_Gr_3_NVocInAudio_GlobalThetaInVideo.avi,vocoded,plusVideo,sp01,Ad,Gr,3,4,1,flow/blocks/NVocInAudio_GlobalThetaInVideo_A.csv,,,,,,,,,0,4,4,4,0,20,20,22,,,,,,,,,-0.39861111111111114,0.2791666666666667,1,0,0,5.867674999999508,call1,-0.07361111111111111,0.13333333333333333,1,0,0,6.4191351999998005,colour2,0.4013888888888889,-0.09305555555555556,1,0,0,7.2334393000001,number3,True,True,True,35,5,2019_Nov_19_1305,MA_Theta_Exp,3.0.7,60.174156042357076,
video/Experiment/zh_sp07_Ti_Ge_3_NVocInAudio_GlobalThetaInVideo.avi,vocoded,plusVideo,sp07,Ti,Ge,3,4,1,flow/blocks/NVocInAudio_GlobalThetaInVideo_A.csv,,,,,,,,,0,4,4,4,0,21,21,18,,,,,,,,,-0.4111111111111111,-0.07361111111111111,1,0,0,4.51721550000002,call3,0.020833333333333332,0.275,1,0,0,5.52212099999997,colour1,0.3763888888888889,-0.1,1,0,0,6.169004700000187,number3,True,True,True,35,5,2019_Nov_19_1305,MA_Theta_Exp,3.0.7,60.174156042357076,
video/Experiment/zh_sp07_Un_Ge_2_NVocInAudio_GlobalThetaInVideo.avi,vocoded,plusVideo,sp07,Un,Ge,2,4,1,flow/blocks/NVocInAudio_GlobalThetaInVideo_A.csv,,,,,,,,,0,4,4,4,0,22,22,17,,,,,,,,,-0.43333333333333335,-0.3055555555555556,1,0,0,4.6393530999994255,call4,-0.05138888888888889,0.3111111111111111,1,0,0,5.405548300000191,colour1,0.3958333333333333,0.075,1,0,0,6.155845199999931,number2,True,True,True,35,5,2019_Nov_19_1305,MA_Theta_Exp,3.0.7,60.174156042357076,
video/Experiment/zh_sp01_Dr_We_2_NVocInAudio_GlobalThetaInVideo.avi,vocoded,plusVideo,sp01,Dr,We,2,4,1,flow/blocks/NVocInAudio_GlobalThetaInVideo_A.csv,,,,,,,,,0,4,4,4,0,23,23,13,,,,,,,,,-0.46111111111111114,0.12361111111111112,1,0,0,5.31303300000036,call2,-0.034722222222222224,-0.38333333333333336,1,0,0,5.908609299999625,colour4,0.4,0.1125,1,0,0,6.745503299999655,number2,True,True,True,35,5,2019_Nov_19_1305,MA_Theta_Exp,3.0.7,60.174156042357076,
video/Experiment/zh_sp01_Un_We_3_NVocInAudio_GlobalThetaInVideo.avi,vocoded,plusVideo,sp01,Un,We,3,4,1,flow/blocks/NVocInAudio_GlobalThetaInVideo_A.csv,,,,,,,,,0,4,4,4,0,24,24,14,,,,,,,,,-0.3472222222222222,-0.30277777777777776,1,0,0,5.910809500000141,call4,-0.06388888888888888,-0.2833333333333333,1,0,0,6.429230499999903,colour4,0.3972222222222222,-0.14722222222222223,1,0,0,6.968074499999602,number3,True,True,True,35,5,2019_Nov_19_1305,MA_Theta_Exp,3.0.7,60.174156042357076,
video/Experiment/zh_sp01_Un_Ro_3_NVocInAudio_GlobalThetaInVideo.avi,vocoded,plusVideo,sp01,Un,Ro,3,4,1,flow/blocks/NVocInAudio_GlobalThetaInVideo_A.csv,,,,,,,,,0,4,4,4,0,25,25,26,,,,,,,,,-0.40694444444444444,-0.30694444444444446,1,0,0,6.715116000000307,call4,-0.020833333333333332,-0.14027777777777778,1,0,0,7.281992199999877,colour3,0.3875,-0.06666666666666667,1,0,0,8.170616999999766,number3,True,True,True,35,5,2019_Nov_19_1305,MA_Theta_Exp,3.0.7,60.174156042357076,
video/Experiment/zh_sp07_Un_Ge_3_NVocInAudio_GlobalThetaInVideo.avi,vocoded,plusVideo,sp07,Un,Ge,3,4,1,flow/blocks/NVocInAudio_GlobalThetaInVideo_A.csv,,,,,,,,,0,4,4,4,0,26,26,2,,,,,,,,,-0.4263888888888889,-0.31805555555555554,1,0,0,4.379207699999824,call4,0.029166666666666667,0.2986111111111111,1,0,0,5.311476500000026,colour1,0.3958333333333333,-0.09444444444444444,1,0,0,6.144233100000747,number3,True,True,True,35,5,2019_Nov_19_1305,MA_Theta_Exp,3.0.7,60.174156042357076,
video/Experiment/zh_sp01_Ad_We_1_NVocInAudio_GlobalThetaInVideo.avi,vocoded,plusVideo,sp01,Ad,We,1,4,1,flow/blocks/NVocInAudio_GlobalThetaInVideo_A.csv,,,,,,,,,0,4,4,4,0,27,27,12,,,,,,,,,-0.40694444444444444,0.27361111111111114,1,0,0,5.2025299999995696,call1,-0.06944444444444445,-0.24027777777777778,1,0,0,5.919653899999503,colour4,0.3819444444444444,0.35,1,0,0,6.821054300000469,number1,True,True,True,35,5,2019_Nov_19_1305,MA_Theta_Exp,3.0.7,60.174156042357076,
video/Experiment/zh_sp01_Ad_Gr_2_NVocInAudio_GlobalThetaInVideo.avi,vocoded,plusVideo,sp01,Ad,Gr,2,4,1,flow/blocks/NVocInAudio_GlobalThetaInVideo_A.csv,,,,,,,,,0,4,4,4,0,28,28,21,,,,,,,,,-0.4666666666666667,0.3,1,0,0,5.255487899999935,call1,-0.04583333333333333,0.12638888888888888,1,0,0,6.002865700000257,colour2,0.3611111111111111,0.09861111111111111,1,0,0,6.717866599999979,number2,True,True,True,35,5,2019_Nov_19_1305,MA_Theta_Exp,3.0.7,60.174156042357076,
video/Experiment/zh_sp01_Un_Ro_1_NVocInAudio_GlobalThetaInVideo.avi,vocoded,plusVideo,sp01,Un,Ro,1,4,1,flow/blocks/NVocInAudio_GlobalThetaInVideo_A.csv,,,,,,,,,0,4,4,4,0,29,29,24,,,,,,,,,-0.40694444444444444,-0.3277777777777778,1,0,0,5.095901000000595,call4,0.018055555555555554,-0.11805555555555555,1,0,0,5.567161500000111,colour3,0.37777777777777777,0.3458333333333333,1,0,0,6.1894178000002285,number1,True,True,True,35,5,2019_Nov_19_1305,MA_Theta_Exp,3.0.7,60.174156042357076,
video/Experiment/zh_sp07_Ad_Gr_1_NVocInAudio_GlobalThetaInVideo.avi,vocoded,plusVideo,sp07,Ad,Gr,1,4,1,flow/blocks/NVocInAudio_GlobalThetaInVideo_A.csv,,,,,,,,,0,4,4,4,0,30,30,4,,,,,,,,,-0.40555555555555556,0.2833333333333333,1,0,0,4.510455599999659,call1,-0.0375,0.12083333333333333,1,0,0,5.094091500000104,colour2,0.4013888888888889,0.2916666666666667,1,0,0,5.733185699999922,number1,True,True,True,35,5,2019_Nov_19_1305,MA_Theta_Exp,3.0.7,60.174156042357076,
video/Experiment/zh_sp07_Dr_Ro_4_NVocInAudio_GlobalThetaInVideo.avi,vocoded,plusVideo,sp07,Dr,Ro,4,4,1,flow/blocks/NVocInAudio_GlobalThetaInVideo_A.csv,,,,,,,,,0,4,4,4,0,31,31,27,,,,,,,,,-0.4263888888888889,0.12222222222222222,1,0,0,5.367463099999441,call2,-0.044444444444444446,-0.08194444444444444,1,0,0,5.9475525999996535,colour3,0.4,-0.32222222222222224,1,0,0,6.463490299999648,number4,True,True,True,35,5,2019_Nov_19_1305,MA_Theta_Exp,3.0.7,60.174156042357076,
video/Experiment/zh_sp07_Un_Ro_4_NoThetaInAudio_NoVideo.avi,noTheta,noVideo,sp07,Un,Ro,4,0,4,flow/blocks/NoThetaInAudio_NoVideo_B.csv,,,,,,,,,,,,,,,,,0,0,0,0,0,0,0,27,-0.4013888888888889,-0.3,1,0,0,4.795338700000684,call4,0.029166666666666667,-0.125,1,0,0,5.381383800000549,colour3,0.5027777777777778,-0.3902777777777778,1,0,0,5.919780199999877,number4,True,True,True,35,5,2019_Nov_19_1305,MA_Theta_Exp,3.0.7,60.174156042357076,
video/Experiment/zh_sp07_Un_Ro_2_NoThetaInAudio_NoVideo.avi,noTheta,noVideo,sp07,Un,Ro,2,0,4,flow/blocks/NoThetaInAudio_NoVideo_B.csv,,,,,,,,,,,,,,,,,0,0,0,0,0,1,1,9,-0.40694444444444444,-0.34444444444444444,1,0,0,4.435931199999686,call4,-0.0125,0.058333333333333334,1,0,0,4.952646400000049,colour2,0.3875,0.12638888888888888,1,0,0,5.554932600000029,number2,True,False,True,35,5,2019_Nov_19_1305,MA_Theta_Exp,3.0.7,60.174156042357076,
video/Experiment/zh_sp01_Ti_Ro_1_NoThetaInAudio_NoVideo.avi,noTheta,noVideo,sp01,Ti,Ro,1,0,4,flow/blocks/NoThetaInAudio_NoVideo_B.csv,,,,,,,,,,,,,,,,,0,0,0,0,0,2,2,8,-0.4638888888888889,0.12222222222222222,1,0,0,5.38556299999982,call2,-0.07361111111111111,-0.05416666666666667,1,0,0,6.054557100000238,colour3,0.3527777777777778,0.28194444444444444,1,0,0,6.654299299999366,number1,False,True,True,35,5,2019_Nov_19_1305,MA_Theta_Exp,3.0.7,60.174156042357076,
video/Experiment/zh_sp01_Un_We_2_NoThetaInAudio_NoVideo.avi,noTheta,noVideo,sp01,Un,We,2,0,4,flow/blocks/NoThetaInAudio_NoVideo_B.csv,,,,,,,,,,,,,,,,,0,0,0,0,0,3,3,13,-0.4875,-0.33611111111111114,1,0,0,5.210892800000693,call4,-0.025,-0.33194444444444443,1,0,0,5.87673470000027,colour4,0.3972222222222222,0.09027777777777778,1,0,0,6.481715500000064,number2,True,True,True,35,5,2019_Nov_19_1305,MA_Theta_Exp,3.0.7,60.174156042357076,
video/Experiment/zh_sp01_Ad_Ge_2_NoThetaInAudio_NoVideo.avi,noTheta,noVideo,sp01,Ad,Ge,2,0,4,flow/blocks/NoThetaInAudio_NoVideo_B.csv,,,,,,,,,,,,,,,,,0,0,0,0,0,4,4,1,-0.3875,0.2638888888888889,1,0,0,5.345476499999677,call1,-0.05694444444444444,0.2847222222222222,1,0,0,5.992448599999989,colour1,0.3541666666666667,0.1527777777777778,1,0,0,6.645336200000202,number2,True,True,True,35,5,2019_Nov_19_1305,MA_Theta_Exp,3.0.7,60.174156042357076,
video/Experiment/zh_sp01_Un_Gr_2_NoThetaInAudio_NoVideo.avi,noTheta,noVideo,sp01,Un,Gr,2,0,4,flow/blocks/NoThetaInAudio_NoVideo_B.csv,,,,,,,,,,,,,,,,,0,0,0,0,0,5,5,5,-0.4361111111111111,-0.2875,1,0,0,5.371983200000614,call4,0.02638888888888889,0.07916666666666666,1,0,0,6.052936299999601,colour2,0.3875,0.08888888888888889,1,0,0,6.587054599999647,number2,True,True,True,35,5,2019_Nov_19_1305,MA_Theta_Exp,3.0.7,60.174156042357076,
video/Experiment/zh_sp07_Un_Ge_1_NoThetaInAudio_NoVideo.avi,noTheta,noVideo,sp07,Un,Ge,1,0,4,flow/blocks/NoThetaInAudio_NoVideo_B.csv,,,,,,,,,,,,,,,,,0,0,0,0,0,6,6,0,-0.45416666666666666,-0.30277777777777776,1,0,0,5.923236200000247,call4,0.04027777777777778,0.10277777777777777,1,0,0,6.657620300000417,colour2,0.425,0.30694444444444446,1,0,0,7.282353599999624,number1,True,False,True,35,5,2019_Nov_19_1305,MA_Theta_Exp,3.0.7,60.174156042357076,
video/Experiment/zh_sp07_Ti_Gr_1_NoThetaInAudio_NoVideo.avi,noTheta,noVideo,sp07,Ti,Gr,1,0,4,flow/blocks/NoThetaInAudio_NoVideo_B.csv,,,,,,,,,,,,,,,,,0,0,0,0,0,7,7,4,-0.375,-0.05138888888888889,1,0,0,4.464150300000256,call3,-0.03611111111111111,0.10972222222222222,1,0,0,5.150105200000326,colour2,0.44583333333333336,0.3458333333333333,1,0,0,6.079892499999914,number1,True,True,True,35,5,2019_Nov_19_1305,MA_Theta_Exp,3.0.7,60.174156042357076,
video/Experiment/zh_sp07_Ti_We_3_NoThetaInAudio_NoVideo.avi,noTheta,noVideo,sp07,Ti,We,3,0,4,flow/blocks/NoThetaInAudio_NoVideo_B.csv,,,,,,,,,,,,,,,,,0,0,0,0,0,8,8,30,-0.32916666666666666,0.05277777777777778,1,0,0,7.561227500000314,call2,-0.05694444444444444,-0.06388888888888888,1,0,0,9.628767199999857,colour3,0.43194444444444446,-0.3138888888888889,1,0,0,10.862956799999665,number4,False,False,False,35,5,2019_Nov_19_1305,MA_Theta_Exp,3.0.7,60.174156042357076,
video/Experiment/zh_sp07_Ti_Ro_4_NoThetaInAudio_NoVideo.avi,noTheta,noVideo,sp07,Ti,Ro,4,0,4,flow/blocks/NoThetaInAudio_NoVideo_B.csv,,,,,,,,,,,,,,,,,0,0,0,0,0,9,9,11,-0.3902777777777778,-0.1111111111111111,1,0,0,7.123522999999295,call3,0.0125,0.05416666666666667,1,0,0,8.73761419999937,colour2,0.3277777777777778,-0.2902777777777778,1,0,0,9.572718100000202,number4,True,False,True,35,5,2019_Nov_19_1305,MA_Theta_Exp,3.0.7,60.174156042357076,
video/Experiment/zh_sp07_Ad_Ge_4_NoThetaInAudio_NoVideo.avi,noTheta,noVideo,sp07,Ad,Ge,4,0,4,flow/blocks/NoThetaInAudio_NoVideo_B.csv,,,,,,,,,,,,,,,,,0,0,0,0,0,10,10,3,-0.39305555555555555,0.2777777777777778,1,0,0,4.649656099999447,call1,-0.058333333333333334,-0.30277777777777776,1,0,0,5.447302800000216,colour4,0.44583333333333336,-0.2847222222222222,1,0,0,5.998375599999235,number4,True,False,True,35,5,2019_Nov_19_1305,MA_Theta_Exp,3.0.7,60.174156042357076,
video/Experiment/zh_sp07_Ti_Gr_2_NoThetaInAudio_NoVideo.avi,noTheta,noVideo,sp07,Ti,Gr,2,0,4,flow/blocks/NoThetaInAudio_NoVideo_B.csv,,,,,,,,,,,,,,,,,0,0,0,0,0,11,11,21,-0.3902777777777778,-0.27361111111111114,1,0,0,6.47757460000048,call4,-0.009722222222222222,0.04583333333333333,1,0,0,6.960282400000324,colour2,0.4888888888888889,0.1388888888888889,1,0,0,7.629570699999931,number2,False,True,True,35,5,2019_Nov_19_1305,MA_Theta_Exp,3.0.7,60.174156042357076,
video/Experiment/zh_sp01_Ti_Gr_3_NoThetaInAudio_NoVideo.avi,noTheta,noVideo,sp01,Ti,Gr,3,0,4,flow/blocks/NoThetaInAudio_NoVideo_B.csv,,,,,,,,,,,,,,,,,0,0,0,0,0,12,12,22,-0.4097222222222222,-0.12361111111111112,1,0,0,4.98703900000055,call3,-0.044444444444444446,0.10277777777777777,1,0,0,5.600216400000136,colour2,0.3416666666666667,-0.125,1,0,0,6.286893000000418,number3,True,True,True,35,5,2019_Nov_19_1305,MA_Theta_Exp,3.0.7,60.174156042357076,
video/Experiment/zh_sp01_Dr_Ro_1_NoThetaInAudio_NoVideo.avi,noTheta,noVideo,sp01,Dr,Ro,1,0,4,flow/blocks/NoThetaInAudio_NoVideo_B.csv,,,,,,,,,,,,,,,,,0,0,0,0,0,13,13,24,-0.4125,-0.13055555555555556,1,0,0,7.34647860000041,call3,-0.05277777777777778,0.1486111111111111,1,0,0,8.356560300000638,colour2,0.4166666666666667,0.31527777777777777,1,0,0,8.999010300000009,number1,False,False,True,35,5,2019_Nov_19_1305,MA_Theta_Exp,3.0.7,60.174156042357076,
video/Experiment/zh_sp07_Ad_Ro_3_NoThetaInAudio_NoVideo.avi,noTheta,noVideo,sp07,Ad,Ro,3,0,4,flow/blocks/NoThetaInAudio_NoVideo_B.csv,,,,,,,,,,,,,,,,,0,0,0,0,0,14,14,10,-0.425,0.26944444444444443,1,0,0,4.896433500000057,call1,-0.058333333333333334,-0.09444444444444444,1,0,0,5.742087800000263,colour3,0.3277777777777778,-0.04722222222222222,1,0,0,6.411717099999805,number3,True,True,True,35,5,2019_Nov_19_1305,MA_Theta_Exp,3.0.7,60.174156042357076,
video/Experiment/zh_sp07_Dr_We_4_NoThetaInAudio_NoVideo.avi,noTheta,noVideo,sp07,Dr,We,4,0,4,flow/blocks/NoThetaInAudio_NoVideo_B.csv,,,,,,,,,,,,,,,,,0,0,0,0,0,15,15,15,-0.43333333333333335,0.10972222222222222,1,0,0,4.674240199999986,call2,-0.004166666666666667,-0.28055555555555556,1,0,0,5.638504099999409,colour4,0.3347222222222222,-0.08194444444444444,1,0,0,6.338085499999579,number3,True,True,False,35,5,2019_Nov_19_1305,MA_Theta_Exp,3.0.7,60.174156042357076,
video/Experiment/zh_sp01_Ti_We_1_NoThetaInAudio_NoVideo.avi,noTheta,noVideo,sp01,Ti,We,1,0,4,flow/blocks/NoThetaInAudio_NoVideo_B.csv,,,,,,,,,,,,,,,,,0,0,0,0,0,16,16,12,-0.40555555555555556,-0.11805555555555555,1,0,0,5.475959200000034,call3,-0.025,-0.3111111111111111,1,0,0,6.2589601999998195,colour4,0.38055555555555554,0.31527777777777777,1,0,0,6.961017299999185,number1,True,True,True,35,5,2019_Nov_19_1305,MA_Theta_Exp,3.0.7,60.174156042357076,
video/Experiment/zh_sp07_Ad_Gr_4_NoThetaInAudio_NoVideo.avi,noTheta,noVideo,sp07,Ad,Gr,4,0,4,flow/blocks/NoThetaInAudio_NoVideo_B.csv,,,,,,,,,,,,,,,,,0,0,0,0,0,17,17,7,-0.42777777777777776,0.30694444444444446,1,0,0,4.385261599999467,call1,-0.001388888888888889,0.12916666666666668,1,0,0,4.918362700000216,colour2,0.34444444444444444,-0.3375,1,0,0,5.484523199999785,number4,True,True,True,35,5,2019_Nov_19_1305,MA_Theta_Exp,3.0.7,60.174156042357076,
video/Experiment/zh_sp01_Un_Gr_4_NoThetaInAudio_NoVideo.avi,noTheta,noVideo,sp01,Un,Gr,4,0,4,flow/blocks/NoThetaInAudio_NoVideo_B.csv,,,,,,,,,,,,,,,,,0,0,0,0,0,18,18,23,-0.35833333333333334,0.12083333333333333,1,0,0,4.940233799999987,call2,-0.07777777777777778,0.12916666666666668,1,0,0,5.4402179999997315,colour2,0.38055555555555554,-0.38333333333333336,1,0,0,6.006878700000016,number4,False,True,True,35,5,2019_Nov_19_1305,MA_Theta_Exp,3.0.7,60.174156042357076,
video/Experiment/zh_sp01_Dr_Ge_3_NoThetaInAudio_NoVideo.avi,noTheta,noVideo,sp01,Dr,Ge,3,0,4,flow/blocks/NoThetaInAudio_NoVideo_B.csv,,,,,,,,,,,,,,,,,0,0,0,0,0,19,19,2,-0.38472222222222224,0.12222222222222222,1,0,0,4.939584700000523,call2,-0.05555555555555555,-0.10416666666666667,1,0,0,5.58970490000047,colour3,0.45555555555555555,-0.1111111111111111,1,0,0,6.060457500000666,number3,True,False,True,35,5,2019_Nov_19_1305,MA_Theta_Exp,3.0.7,60.174156042357076,
video/Experiment/zh_sp01_Dr_Ge_2_NoThetaInAudio_NoVideo.avi,noTheta,noVideo,sp01,Dr,Ge,2,0,4,flow/blocks/NoThetaInAudio_NoVideo_B.csv,,,,,,,,,,,,,,,,,0,0,0,0,0,20,20,17,-0.3388888888888889,-0.13842592592592592,1,0,0,5.2605296000001545,call3,-0.058333333333333334,-0.08981481481481482,1,0,0,6.208482999999433,colour3,0.4041666666666667,0.1337962962962963,1,0,0,6.761097300000074,number2,False,False,True,35,5,2019_Nov_19_1305,MA_Theta_Exp,3.0.7,60.174156042357076,
video/Experiment/zh_sp01_Ad_We_4_NoThetaInAudio_NoVideo.avi,noTheta,noVideo,sp01,Ad,We,4,0,4,flow/blocks/NoThetaInAudio_NoVideo_B.csv,,,,,,,,,,,,,,,,,0,0,0,0,0,21,21,31,-0.4,0.3375,1,0,0,4.9708753000004435,call1,-0.02638888888888889,-0.2972222222222222,1,0,0,5.73779149999973,colour4,0.3875,-0.28194444444444444,1,0,0,6.241164899999603,number4,True,True,True,35,5,2019_Nov_19_1305,MA_Theta_Exp,3.0.7,60.174156042357076,
video/Experiment/zh_sp01_Dr_Gr_1_NoThetaInAudio_NoVideo.avi,noTheta,noVideo,sp01,Dr,Gr,1,0,4,flow/blocks/NoThetaInAudio_NoVideo_B.csv,,,,,,,,,,,,,,,,,0,0,0,0,0,22,22,20,-0.3527777777777778,-0.06111111111111111,1,0,0,5.478299100000186,call3,-0.06388888888888888,-0.12361111111111112,1,0,0,6.3415586000000985,colour3,0.3625,0.3263888888888889,1,0,0,7.162668900000426,number1,False,False,True,35,5,2019_Nov_19_1305,MA_Theta_Exp,3.0.7,60.174156042357076,
video/Experiment/zh_sp07_Dr_We_3_NoThetaInAudio_NoVideo.avi,noTheta,noVideo,sp07,Dr,We,3,0,4,flow/blocks/NoThetaInAudio_NoVideo_B.csv,,,,,,,,,,,,,,,,,0,0,0,0,0,23,23,14,-0.4166666666666667,0.09166666666666666,1,0,0,4.687702199999876,call2,-0.07083333333333333,-0.30416666666666664,1,0,0,5.433694000000287,colour4,0.3388888888888889,-0.11805555555555555,1,0,0,6.229645600000367,number3,True,True,True,35,5,2019_Nov_19_1305,MA_Theta_Exp,3.0.7,60.174156042357076,
video/Experiment/zh_sp07_Dr_Ro_3_NoThetaInAudio_NoVideo.avi,noTheta,noVideo,sp07,Dr,Ro,3,0,4,flow/blocks/NoThetaInAudio_NoVideo_B.csv,,,,,,,,,,,,,,,,,0,0,0,0,0,24,24,26,-0.4263888888888889,0.09027777777777778,1,0,0,5.167516700000306,call2,0.015277777777777777,-0.10694444444444444,1,0,0,5.9342757000003985,colour3,0.38055555555555554,-0.05694444444444444,1,0,0,6.431938200000332,number3,True,True,True,35,5,2019_Nov_19_1305,MA_Theta_Exp,3.0.7,60.174156042357076,
video/Experiment/zh_sp01_Un_Ge_4_NoThetaInAudio_NoVideo.avi,noTheta,noVideo,sp01,Un,Ge,4,0,4,flow/blocks/NoThetaInAudio_NoVideo_B.csv,,,,,,,,,,,,,,,,,0,0,0,0,0,25,25,19,-0.37083333333333335,-0.31203703703703706,1,0,0,5.419268599999668,call4,-0.015277777777777777,0.3087962962962963,1,0,0,6.107271299999411,colour1,0.425,-0.3439814814814815,1,0,0,6.787605699999403,number4,True,True,True,35,5,2019_Nov_19_1305,MA_Theta_Exp,3.0.7,60.174156042357076,
video/Experiment/zh_sp01_Ad_Ge_3_NoThetaInAudio_NoVideo.avi,noTheta,noVideo,sp01,Ad,Ge,3,0,4,flow/blocks/NoThetaInAudio_NoVideo_B.csv,,,,,,,,,,,,,,,,,0,0,0,0,0,26,26,18,-0.4486111111111111,0.29074074074074074,1,0,0,4.97789130000001,call1,-0.0375,0.2935185185185185,1,0,0,5.567701800000577,colour1,0.42777777777777776,-0.09537037037037037,1,0,0,6.346529299999929,number3,True,True,True,35,5,2019_Nov_19_1305,MA_Theta_Exp,3.0.7,60.174156042357076,
video/Experiment/zh_sp07_Ti_We_2_NoThetaInAudio_NoVideo.avi,noTheta,noVideo,sp07,Ti,We,2,0,4,flow/blocks/NoThetaInAudio_NoVideo_B.csv,,,,,,,,,,,,,,,,,0,0,0,0,0,27,27,29,-0.3638888888888889,0.09490740740740741,1,0,0,5.269796200000201,call2,-0.05694444444444444,0.10601851851851851,1,0,0,5.936123800000132,colour2,0.3902777777777778,0.10601851851851851,1,0,0,6.4163156000004165,number2,False,False,True,35,5,2019_Nov_19_1305,MA_Theta_Exp,3.0.7,60.174156042357076,
video/Experiment/zh_sp07_Ad_Ro_2_NoThetaInAudio_NoVideo.avi,noTheta,noVideo,sp07,Ad,Ro,2,0,4,flow/blocks/NoThetaInAudio_NoVideo_B.csv,,,,,,,,,,,,,,,,,0,0,0,0,0,28,28,25,-0.36666666666666664,0.32546296296296295,1,0,0,4.717893899999581,call1,-0.008333333333333333,-0.08009259259259259,1,0,0,5.432739899999433,colour3,0.4125,0.05324074074074074,1,0,0,5.985278600000129,number2,True,True,True,35,5,2019_Nov_19_1305,MA_Theta_Exp,3.0.7,60.174156042357076,
video/Experiment/zh_sp07_Un_Gr_3_NoThetaInAudio_NoVideo.avi,noTheta,noVideo,sp07,Un,Gr,3,0,4,flow/blocks/NoThetaInAudio_NoVideo_B.csv,,,,,,,,,,,,,,,,,0,0,0,0,0,29,29,6,-0.44722222222222224,-0.36064814814814816,1,0,0,4.421463099999528,call4,-0.009722222222222222,0.07824074074074074,1,0,0,5.13695430000007,colour2,0.37777777777777777,-0.12731481481481483,1,0,0,5.816725900000165,number3,True,True,True,35,5,2019_Nov_19_1305,MA_Theta_Exp,3.0.7,60.174156042357076,
video/Experiment/zh_sp01_Dr_We_1_NoThetaInAudio_NoVideo.avi,noTheta,noVideo,sp01,Dr,We,1,0,4,flow/blocks/NoThetaInAudio_NoVideo_B.csv,,,,,,,,,,,,,,,,,0,0,0,0,0,30,30,28,-0.3597222222222222,0.3074074074074074,1,0,0,5.53201209999952,call1,-0.030555555555555555,-0.25925925925925924,1,0,0,6.267215699999724,colour4,0.4097222222222222,0.2796296296296296,1,0,0,6.851832999999715,number1,False,True,True,35,5,2019_Nov_19_1305,MA_Theta_Exp,3.0.7,60.174156042357076,
video/Experiment/zh_sp01_Ad_Ge_1_NoThetaInAudio_NoVideo.avi,noTheta,noVideo,sp01,Ad,Ge,1,0,4,flow/blocks/NoThetaInAudio_NoVideo_B.csv,,,,,,,,,,,,,,,,,0,0,0,0,0,31,31,16,-0.375,0.24351851851851852,1,0,0,6.2696994999996605,call1,-0.006944444444444444,0.34629629629629627,1,0,0,7.983182599999964,colour1,0.39166666666666666,0.2949074074074074,1,0,0,9.06484730000011,number1,True,True,True,35,5,2019_Nov_19_1305,MA_Theta_Exp,3.0.7,60.174156042357076,
video/Experiment/zh_sp07_Ti_We_4_GlobalTheta_NoVideo.avi,globalTheta,noVideo,sp07,Ti,We,4,1,5,flow/blocks/GlobalTheta_NoVideo_A.csv,,,,,,,,,,,,,,,,,0,1,1,1,0,0,0,31,-0.4666666666666667,0.3,1,0,0,7.07247069999994,call1,-0.03888888888888889,-0.33194444444444443,1,0,0,7.843260399999963,colour4,0.4222222222222222,0.30277777777777776,1,0,0,8.741234900000563,number1,False,True,False,35,5,2019_Nov_19_1305,MA_Theta_Exp,3.0.7,60.174156042357076,
video/Experiment/zh_sp01_Un_We_3_GlobalTheta_NoVideo.avi,globalTheta,noVideo,sp01,Un,We,3,1,5,flow/blocks/GlobalTheta_NoVideo_A.csv,,,,,,,,,,,,,,,,,0,1,1,1,0,1,1,14,-0.4222222222222222,0.0625,1,0,0,4.824605000000702,call2,-0.02638888888888889,-0.30277777777777776,1,0,0,5.643295799999578,colour4,0.3680555555555556,-0.15555555555555556,1,0,0,6.157688699999198,number3,False,True,True,35,5,2019_Nov_19_1305,MA_Theta_Exp,3.0.7,60.174156042357076,
video/Experiment/zh_sp01_Dr_Ro_4_GlobalTheta_NoVideo.avi,globalTheta,noVideo,sp01,Dr,Ro,4,1,5,flow/blocks/GlobalTheta_NoVideo_A.csv,,,,,,,,,,,,,,,,,0,1,1,1,0,2,2,27,-0.44305555555555554,-0.08472222222222223,1,0,0,5.53892150000047,call3,-0.016666666666666666,0.20277777777777778,1,0,0,8.593824700000368,colour1,0.35,-0.09861111111111111,1,0,0,9.639906600000359,number3,False,False,False,35,5,2019_Nov_19_1305,MA_Theta_Exp,3.0.7,60.174156042357076,
video/Experiment/zh_sp01_Ad_We_2_GlobalTheta_NoVideo.avi,globalTheta,noVideo,sp01,Ad,We,2,1,5,flow/blocks/GlobalTheta_NoVideo_A.csv,,,,,,,,,,,,,,,,,0,1,1,1,0,3,3,29,-0.3888888888888889,0.3388888888888889,1,0,0,4.890531699999883,call1,0.0375,-0.3236111111111111,1,0,0,5.734600499999942,colour4,0.3333333333333333,0.09583333333333334,1,0,0,6.22097389999999,number2,True,True,True,35,5,2019_Nov_19_1305,MA_Theta_Exp,3.0.7,60.174156042357076,
video/Experiment/zh_sp07_Ad_Gr_1_GlobalTheta_NoVideo.avi,globalTheta,noVideo,sp07,Ad,Gr,1,1,5,flow/blocks/GlobalTheta_NoVideo_A.csv,,,,,,,,,,,,,,,,,0,1,1,1,0,4,4,4,-0.38472222222222224,0.31805555555555554,1,0,0,4.400418600000194,call1,0.10694444444444444,0.12777777777777777,1,0,0,4.94995149999977,colour2,0.4027777777777778,0.33055555555555555,1,0,0,6.0654615000003105,number1,True,True,True,35,5,2019_Nov_19_1305,MA_Theta_Exp,3.0.7,60.174156042357076,
video/Experiment/zh_sp01_Ti_Ro_3_GlobalTheta_NoVideo.avi,globalTheta,noVideo,sp01,Ti,Ro,3,1,5,flow/blocks/GlobalTheta_NoVideo_A.csv,,,,,,,,,,,,,,,,,0,1,1,1,0,5,5,10,-0.38333333333333336,-0.2611111111111111,1,0,0,5.100307699999576,call4,-0.04861111111111111,-0.13333333333333333,1,0,0,7.381706600000143,colour3,0.37083333333333335,-0.07777777777777778,1,0,0,8.736818599999424,number3,False,True,True,35,5,2019_Nov_19_1305,MA_Theta_Exp,3.0.7,60.174156042357076,
video/Experiment/zh_sp07_Ti_Ro_2_GlobalTheta_NoVideo.avi,globalTheta,noVideo,sp07,Ti,Ro,2,1,5,flow/blocks/GlobalTheta_NoVideo_A.csv,,,,,,,,,,,,,,,,,0,1,1,1,0,6,6,25,-0.4222222222222222,-0.14305555555555555,1,0,0,4.597128000000339,call3,0.034722222222222224,0.08055555555555556,1,0,0,6.209365999999136,colour2,0.3638888888888889,0.125,1,0,0,6.9110999000004085,number2,True,False,True,35,5,2019_Nov_19_1305,MA_Theta_Exp,3.0.7,60.174156042357076,
video/Experiment/zh_sp07_Ti_Ge_4_GlobalTheta_NoVideo.avi,globalTheta,noVideo,sp07,Ti,Ge,4,1,5,flow/blocks/GlobalTheta_NoVideo_A.csv,,,,,,,,,,,,,,,,,0,1,1,1,0,7,7,3,-0.3763888888888889,-0.10555555555555556,1,0,0,4.484319399999549,call3,0.013888888888888888,-0.14583333333333334,1,0,0,5.8128557,colour3,0.37083333333333335,-0.10138888888888889,1,0,0,6.7305295999995,number3,True,False,False,35,5,2019_Nov_19_1305,MA_Theta_Exp,3.0.7,60.174156042357076,
video/Experiment/zh_sp07_Dr_Ro_2_GlobalTheta_NoVideo.avi,globalTheta,noVideo,sp07,Dr,Ro,2,1,5,flow/blocks/GlobalTheta_NoVideo_A.csv,,,,,,,,,,,,,,,,,0,1,1,1,0,8,8,9,-0.40555555555555556,0.09722222222222222,1,0,0,4.485505900000135,call2,0.03194444444444444,0.12638888888888888,1,0,0,5.151694099999986,colour2,0.3958333333333333,0.1125,1,0,0,6.184843399999409,number2,True,False,True,35,5,2019_Nov_19_1305,MA_Theta_Exp,3.0.7,60.174156042357076,
video/Experiment/zh_sp01_Ad_Ro_4_GlobalTheta_NoVideo.avi,globalTheta,noVideo,sp01,Ad,Ro,4,1,5,flow/blocks/GlobalTheta_NoVideo_A.csv,,,,,,,,,,,,,,,,,0,1,1,1,0,9,9,11,-0.44583333333333336,0.3263888888888889,1,0,0,5.71821220000038,call1,-0.06527777777777778,0.36944444444444446,1,0,0,7.881325699999252,colour1,0.4125,-0.34444444444444444,1,0,0,8.85056319999967,number4,True,False,True,35,5,2019_Nov_19_1305,MA_Theta_Exp,3.0.7,60.174156042357076,
video/Experiment/zh_sp07_Ad_Ro_1_GlobalTheta_NoVideo.avi,globalTheta,noVideo,sp07,Ad,Ro,1,1,5,flow/blocks/GlobalTheta_NoVideo_A.csv,,,,,,,,,,,,,,,,,0,1,1,1,0,10,10,8,-0.39305555555555555,0.26666666666666666,1,0,0,4.842097400000057,call1,0.0125,-0.10833333333333334,1,0,0,6.2408377000001565,colour3,0.35,0.25416666666666665,1,0,0,6.960324700000456,number1,True,True,True,35,5,2019_Nov_19_1305,MA_Theta_Exp,3.0.7,60.174156042357076,
video/Experiment/zh_sp07_Ad_Gr_2_GlobalTheta_NoVideo.avi,globalTheta,noVideo,sp07,Ad,Gr,2,1,5,flow/blocks/GlobalTheta_NoVideo_A.csv,,,,,,,,,,,,,,,,,0,1,1,1,0,11,11,21,-0.3638888888888889,0.2986111111111111,1,0,0,4.713452699999834,call1,-0.06111111111111111,0.1111111111111111,1,0,0,5.414824600000429,colour2,0.35555555555555557,0.09722222222222222,1,0,0,5.9471231999996235,number2,True,True,True,35,5,2019_Nov_19_1305,MA_Theta_Exp,3.0.7,60.174156042357076,
video/Experiment/zh_sp07_Un_We_4_GlobalTheta_NoVideo.avi,globalTheta,noVideo,sp07,Un,We,4,1,5,flow/blocks/GlobalTheta_NoVideo_A.csv,,,,,,,,,,,,,,,,,0,1,1,1,0,12,12,15,-0.44166666666666665,0.15138888888888888,1,0,0,5.0652116000001115,call2,0.008333333333333333,0.1,1,0,0,5.551542100000006,colour2,0.33611111111111114,-0.13055555555555556,1,0,0,7.068403400000534,number3,False,False,False,35,5,2019_Nov_19_1305,MA_Theta_Exp,3.0.7,60.174156042357076,
video/Experiment/zh_sp01_Ti_Ge_1_GlobalTheta_NoVideo.avi,globalTheta,noVideo,sp01,Ti,Ge,1,1,5,flow/blocks/GlobalTheta_NoVideo_A.csv,,,,,,,,,,,,,,,,,0,1,1,1,0,13,13,16,-0.3736111111111111,-0.2861111111111111,1,0,0,5.395465999999942,call4,-0.009722222222222222,-0.10555555555555556,1,0,0,6.744142300000021,colour3,0.3333333333333333,0.2791666666666667,1,0,0,7.5795115999999325,number1,False,False,True,35,5,2019_Nov_19_1305,MA_Theta_Exp,3.0.7,60.174156042357076,
video/Experiment/zh_sp07_Un_Gr_1_GlobalTheta_NoVideo.avi,globalTheta,noVideo,sp07,Un,Gr,1,1,5,flow/blocks/GlobalTheta_NoVideo_A.csv,,,,,,,,,,,,,,,,,0,1,1,1,0,14,14,20,-0.37916666666666665,-0.1527777777777778,1,0,0,5.871204799999759,call3,-0.05,0.09722222222222222,1,0,0,7.757831599999918,colour2,0.3972222222222222,0.30277777777777776,1,0,0,8.2889310999999,number1,False,True,True,35,5,2019_Nov_19_1305,MA_Theta_Exp,3.0.7,60.174156042357076,
