videoFile,condition,video,speaker,callSign,colour,number,seq,id,block,exp.thisRepN,exp.thisTrialN,exp.thisN,exp.thisIndex,training.thisRepN,training.thisTrialN,training.thisN,training.thisIndex,firstHalf.thisRepN,firstHalf.thisTrialN,firstHalf.thisN,firstHalf.thisIndex,blocksA.thisRepN,blocksA.thisTrialN,blocksA.thisN,blocksA.thisIndex,mouseClickOnCall.x,mouseClickOnCall.y,mouseClickOnCall.leftButton,mouseClickOnCall.midButton,mouseClickOnCall.rightButton,mouseClickOnCall.time,mouseClickOnCall.clicked_name,mouseClickOnColour.x,mouseClickOnColour.y,mouseClickOnColour.leftButton,mouseClickOnColour.midButton,mouseClickOnColour.rightButton,mouseClickOnColour.time,mouseClickOnColour.clicked_name,mouseClickOnNumber.x,mouseClickOnNumber.y,mouseClickOnNumber.leftButton,mouseClickOnNumber.midButton,mouseClickOnNumber.rightButton,mouseClickOnNumber.time,mouseClickOnNumber.clicked_name,callSignCorrect,colourCorrect,numberCorrect,participant,order,date,expName,psychopyVersion,frameRate,
video/Training/zh_sp01_Ad_We_4_NVocInAudio_NoVideo.avi,vocoded,noVideo,sp01,Ad,We,4,,,,,,,,0,0,0,0,,,,,,,,,-0.40694444444444444,0.27546296296296297,1,0,0,6.0536848000001555,call1,-0.011111111111111112,-0.27870370370370373,1,0,0,7.142957199999728,colour4,0.3541666666666667,-0.2953703703703704,1,0,0,7.7245853999993415,number4,True,True,True,35,5,2019_Nov_19_1305,MA_Theta_Exp,3.0.7,60.174156042357076,
video/Training/zh_sp07_Ad_Ge_3_NVocInAudio_NoVideo.avi,vocoded,noVideo,sp07,Ad,Ge,3,,,,,,,,0,1,1,1,,,,,,,,,-0.43333333333333335,0.3416666666666667,1,0,0,5.105395500000668,call1,-0.030555555555555555,0.2638888888888889,1,0,0,6.47544999999991,colour1,0.3375,-0.05555555555555555,1,0,0,7.257472000000234,number3,True,True,True,35,5,2019_Nov_19_1305,MA_Theta_Exp,3.0.7,60.174156042357076,
video/Training/zh_sp01_Dr_Ro_3_NVocInAudio_GlobalThetaInVideo.avi,vocoded,plusVideo,sp01,Dr,Ro,3,,,,,,,,0,2,2,2,,,,,,,,,-0.4083333333333333,0.1,1,0,0,5.433401899999808,call2,-0.02361111111111111,-0.09027777777777778,1,0,0,6.203179099999943,colour3,0.39861111111111114,-0.1486111111111111,1,0,0,6.917062000000442,number3,True,True,True,35,5,2019_Nov_19_1305,MA_Theta_Exp,3.0.7,60.174156042357076,
video/Training/zh_sp07_Dr_Gr_4_NVocInAudio_GlobalThetaInVideo.avi,vocoded,plusVideo,sp07,Dr,Gr,4,,,,,,,,0,3,3,3,,,,,,,,,-0.4013888888888889,0.13333333333333333,1,0,0,4.656336300000476,call2,-0.07222222222222222,0.11527777777777778,1,0,0,5.328580899999906,colour2,0.40694444444444444,-0.29305555555555557,1,0,0,5.994500400000106,number4,True,True,True,35,5,2019_Nov_19_1305,MA_Theta_Exp,3.0.7,60.174156042357076,
video/Training/zh_sp01_Ti_Gr_2_NoThetaInAudio_NoVideo.avi,noTheta,noVideo,sp01,Ti,Gr,2,,,,,,,,0,4,4,4,,,,,,,,,0.3472222222222222,0.12222222222222222,1,0,0,6.698787799999991,,,,,,,,,,,,,,,,NO_ANSW,NO_ANSW,NO_ANSW,35,5,2019_Nov_19_1305,MA_Theta_Exp,3.0.7,60.174156042357076,
video/Training/zh_sp07_Ti_Ro_1_NoThetaInAudio_NoVideo.avi,noTheta,noVideo,sp07,Ti,Ro,1,,,,,,,,0,5,5,5,,,,,,,,,-0.41388888888888886,-0.325,1,0,0,7.792239000000336,call4,0.04583333333333333,-0.10555555555555556,1,0,0,10.204079999999522,colour3,0.42083333333333334,0.3194444444444444,1,0,0,10.704325800000333,number1,False,True,True,35,5,2019_Nov_19_1305,MA_Theta_Exp,3.0.7,60.174156042357076,
video/Training/zh_sp01_Un_Ge_1_NoThetaInAudio_GlobalThetaInVideo.avi,noTheta,plusVideo,sp01,Un,Ge,1,,,,,,,,0,6,6,6,,,,,,,,,-0.39166666666666666,0.13472222222222222,1,0,0,7.596236800000042,call2,0.02361111111111111,0.3143518518518518,1,0,0,10.138923200000136,colour1,0.4152777777777778,0.4074074074074074,1,0,0,10.560624800000369,number1,False,True,True,35,5,2019_Nov_19_1305,MA_Theta_Exp,3.0.7,60.174156042357076,
video/Training/zh_sp07_Un_We_2_NoThetaInAudio_GlobalThetaInVideo.avi,noTheta,plusVideo,sp07,Un,We,2,,,,,,,,0,7,7,7,,,,,,,,,-0.38472222222222224,0.3212962962962963,1,0,0,9.095781299999544,call1,-0.029166666666666667,-0.26342592592592595,1,0,0,11.225613600000543,colour4,0.4111111111111111,0.06851851851851852,1,0,0,12.011243699999795,number2,False,True,True,35,5,2019_Nov_19_1305,MA_Theta_Exp,3.0.7,60.174156042357076,
video/Training/zh_sp01_Ad_Ge_1_GlobalTheta_NoVideo.avi,globalTheta,noVideo,sp01,Ad,Ge,1,,,,,,,,0,8,8,8,,,,,,,,,-0.37777777777777777,0.29907407407407405,1,0,0,9.880968000000394,call1,-0.002777777777777778,-0.11203703703703703,1,0,0,12.512655900000027,colour3,0.4375,0.2824074074074074,1,0,0,13.146113000000696,number1,True,False,True,35,5,2019_Nov_19_1305,MA_Theta_Exp,3.0.7,60.174156042357076,
video/Training/zh_sp07_Ad_Ro_3_GlobalTheta_NoVideo.avi,globalTheta,noVideo,sp07,Ad,Ro,3,,,,,,,,0,9,9,9,,,,,,,,,0.41388888888888886,-0.03148148148148148,1,0,0,5.7165672999999515,call3,0.020833333333333332,0.056018518518518516,1,0,0,9.819066899999598,colour2,0.39861111111111114,-0.0787037037037037,1,0,0,10.384573799999998,number3,False,False,True,35,5,2019_Nov_19_1305,MA_Theta_Exp,3.0.7,60.174156042357076,
video/Experiment/zh_sp01_Ad_We_1_NoThetaInAudio_NoVideo.avi,noTheta,noVideo,sp01,Ad,We,1,0,4,flow/blocks/NoThetaInAudio_NoVideo_A.csv,,,,,,,,,0,0,0,0,0,0,0,12,-0.37777777777777777,-0.30092592592592593,1,0,0,7.103038299999753,call4,-0.019444444444444445,-0.09398148148148149,1,0,0,8.61993799999982,colour3,0.37222222222222223,0.2824074074074074,1,0,0,9.25180569999975,number1,False,False,True,35,5,2019_Nov_19_1305,MA_Theta_Exp,3.0.7,60.174156042357076,
video/Experiment/zh_sp07_Ad_Ro_4_NoThetaInAudio_NoVideo.avi,noTheta,noVideo,sp07,Ad,Ro,4,0,4,flow/blocks/NoThetaInAudio_NoVideo_A.csv,,,,,,,,,0,0,0,0,0,1,1,11,-0.3819444444444444,0.032407407407407406,1,0,0,8.3812097,call2,-0.37916666666666665,0.07962962962962963,1,0,0,8.7705588000008,colour3,0.36527777777777776,-0.28564814814814815,1,0,0,11.887307699999837,number4,False,True,True,35,5,2019_Nov_19_1305,MA_Theta_Exp,3.0.7,60.174156042357076,
video/Experiment/zh_sp07_Ti_Ro_2_NoThetaInAudio_NoVideo.avi,noTheta,noVideo,sp07,Ti,Ro,2,0,4,flow/blocks/NoThetaInAudio_NoVideo_A.csv,,,,,,,,,0,0,0,0,0,2,2,25,-0.3597222222222222,-0.09537037037037037,1,0,0,7.4371971999999005,call3,0.004166666666666667,0.049074074074074076,1,0,0,8.922730799999954,colour2,0.375,0.10601851851851851,1,0,0,9.60704160000023,number2,True,False,True,35,5,2019_Nov_19_1305,MA_Theta_Exp,3.0.7,60.174156042357076,
video/Experiment/zh_sp07_Ti_Ge_2_NoThetaInAudio_NoVideo.avi,noTheta,noVideo,sp07,Ti,Ge,2,0,4,flow/blocks/NoThetaInAudio_NoVideo_A.csv,,,,,,,,,0,0,0,0,0,3,3,1,-0.39305555555555555,0.11851851851851852,1,0,0,6.187066899999991,call2,-0.06805555555555555,-0.0912037037037037,1,0,0,7.505831099999341,colour3,0.39166666666666666,0.10185185185185185,1,0,0,8.270371699999487,number2,False,False,True,35,5,2019_Nov_19_1305,MA_Theta_Exp,3.0.7,60.174156042357076,
video/Experiment/zh_sp07_Ti_Ro_3_NoThetaInAudio_NoVideo.avi,noTheta,noVideo,sp07,Ti,Ro,3,0,4,flow/blocks/NoThetaInAudio_NoVideo_A.csv,,,,,,,,,0,0,0,0,0,4,4,10,-0.35694444444444445,0.31296296296296294,1,0,0,5.250867700000526,call1,-0.005555555555555556,-0.04537037037037037,1,0,0,5.968469099999311,colour3,0.43194444444444446,-0.10648148148148148,1,0,0,6.553957899999659,number3,False,True,True,35,5,2019_Nov_19_1305,MA_Theta_Exp,3.0.7,60.174156042357076,
video/Experiment/zh_sp01_Ti_We_4_NoThetaInAudio_NoVideo.avi,noTheta,noVideo,sp01,Ti,We,4,0,4,flow/blocks/NoThetaInAudio_NoVideo_A.csv,,,,,,,,,0,0,0,0,0,5,5,31,-0.3819444444444444,-0.32037037037037036,1,0,0,6.820839599999999,call4,0.03194444444444444,-0.29814814814814816,1,0,0,7.638535299999603,colour4,0.41944444444444445,-0.3592592592592593,1,0,0,8.27049199999965,number4,False,True,True,35,5,2019_Nov_19_1305,MA_Theta_Exp,3.0.7,60.174156042357076,
video/Experiment/zh_sp01_Ad_Gr_1_NoThetaInAudio_NoVideo.avi,noTheta,noVideo,sp01,Ad,Gr,1,0,4,flow/blocks/NoThetaInAudio_NoVideo_A.csv,,,,,,,,,0,0,0,0,0,6,6,4,-0.39305555555555555,0.30324074074074076,1,0,0,5.807515399999829,call1,0.019444444444444445,0.09768518518518518,1,0,0,6.602956499999891,colour2,0.42083333333333334,0.2935185185185185,1,0,0,7.186851499999648,number1,True,True,True,35,5,2019_Nov_19_1305,MA_Theta_Exp,3.0.7,60.174156042357076,
video/Experiment/zh_sp01_Un_We_3_NoThetaInAudio_NoVideo.avi,noTheta,noVideo,sp01,Un,We,3,0,4,flow/blocks/NoThetaInAudio_NoVideo_A.csv,,,,,,,,,0,0,0,0,0,7,7,14,-0.3638888888888889,0.3074074074074074,1,0,0,7.579091399999925,call1,0.0125,-0.33564814814814814,1,0,0,8.575354799999332,colour4,0.4,-0.13703703703703704,1,0,0,9.176340500000151,number3,False,True,True,35,5,2019_Nov_19_1305,MA_Theta_Exp,3.0.7,60.174156042357076,
video/Experiment/zh_sp01_Dr_Ro_2_NoThetaInAudio_NoVideo.avi,noTheta,noVideo,sp01,Dr,Ro,2,0,4,flow/blocks/NoThetaInAudio_NoVideo_A.csv,,,,,,,,,0,0,0,0,0,8,8,9,-0.3486111111111111,0.11018518518518519,1,0,0,5.625606899999184,call2,-0.013888888888888888,-0.11203703703703703,1,0,0,6.2278409000000465,colour3,0.3888888888888889,0.11296296296296296,1,0,0,6.927874400000292,number2,True,True,True,35,5,2019_Nov_19_1305,MA_Theta_Exp,3.0.7,60.174156042357076,
video/Experiment/zh_sp07_Ti_Ge_4_NoThetaInAudio_NoVideo.avi,noTheta,noVideo,sp07,Ti,Ge,4,0,4,flow/blocks/NoThetaInAudio_NoVideo_A.csv,,,,,,,,,0,0,0,0,0,9,9,3,-0.4083333333333333,-0.12314814814814815,1,0,0,7.4993705999995655,call3,-0.025,-0.30925925925925923,1,0,0,8.150249199999962,colour4,0.43194444444444446,-0.13703703703703704,1,0,0,8.905323299999509,number3,True,False,False,35,5,2019_Nov_19_1305,MA_Theta_Exp,3.0.7,60.174156042357076,
video/Experiment/zh_sp01_Dr_We_2_NoThetaInAudio_NoVideo.avi,noTheta,noVideo,sp01,Dr,We,2,0,4,flow/blocks/NoThetaInAudio_NoVideo_A.csv,,,,,,,,,0,0,0,0,0,10,10,13,-0.38472222222222224,0.050462962962962966,1,0,0,7.148148200000833,call2,0.011111111111111112,-0.2967592592592593,1,0,0,8.086760299999696,colour4,0.4083333333333333,0.056018518518518516,1,0,0,8.863720100000137,number2,True,True,True,35,5,2019_Nov_19_1305,MA_Theta_Exp,3.0.7,60.174156042357076,
video/Experiment/zh_sp01_Dr_Gr_3_NoThetaInAudio_NoVideo.avi,noTheta,noVideo,sp01,Dr,Gr,3,0,4,flow/blocks/NoThetaInAudio_NoVideo_A.csv,,,,,,,,,0,0,0,0,0,11,11,6,-0.4125,0.06111111111111111,1,0,0,5.636819599999399,call2,-0.011111111111111112,-0.08888888888888889,1,0,0,6.693556100000023,colour3,0.4013888888888889,-0.12916666666666668,1,0,0,7.367780399999901,number3,True,False,True,35,5,2019_Nov_19_1305,MA_Theta_Exp,3.0.7,60.174156042357076,
video/Experiment/zh_sp01_Ad_We_3_NoThetaInAudio_NoVideo.avi,noTheta,noVideo,sp01,Ad,We,3,0,4,flow/blocks/NoThetaInAudio_NoVideo_A.csv,,,,,,,,,0,0,0,0,0,12,12,30,-0.44305555555555554,0.29583333333333334,1,0,0,6.036473699999988,call1,-0.05277777777777778,-0.31666666666666665,1,0,0,6.867705800000294,colour4,0.4125,-0.14305555555555555,1,0,0,7.517132300000412,number3,True,True,True,35,5,2019_Nov_19_1305,MA_Theta_Exp,3.0.7,60.174156042357076,
video/Experiment/zh_sp07_Ti_Gr_4_NoThetaInAudio_NoVideo.avi,noTheta,noVideo,sp07,Ti,Gr,4,0,4,flow/blocks/NoThetaInAudio_NoVideo_A.csv,,,,,,,,,0,0,0,0,0,13,13,7,-0.35138888888888886,-0.2763888888888889,1,0,0,5.372766700000284,call4,0.041666666666666664,0.1,1,0,0,6.306062599999677,colour2,0.3541666666666667,-0.2777777777777778,1,0,0,7.309455599999637,number4,False,True,True,35,5,2019_Nov_19_1305,MA_Theta_Exp,3.0.7,60.174156042357076,
video/Experiment/zh_sp07_Un_We_1_NoThetaInAudio_NoVideo.avi,noTheta,noVideo,sp07,Un,We,1,0,4,flow/blocks/NoThetaInAudio_NoVideo_A.csv,,,,,,,,,0,0,0,0,0,14,14,28,-0.3375,-0.3125,1,0,0,5.321816800000306,call4,0.02361111111111111,0.08333333333333333,1,0,0,5.916065399999752,colour2,0.45,0.31805555555555554,1,0,0,6.669250299999476,number1,True,False,True,35,5,2019_Nov_19_1305,MA_Theta_Exp,3.0.7,60.174156042357076,
video/Experiment/zh_sp07_Dr_Ge_4_NoThetaInAudio_NoVideo.avi,noTheta,noVideo,sp07,Dr,Ge,4,0,4,flow/blocks/NoThetaInAudio_NoVideo_A.csv,,,,,,,,,0,0,0,0,0,15,15,19,-0.4013888888888889,0.2986111111111111,1,0,0,5.504929799999445,call1,-0.0125,-0.059722222222222225,1,0,0,6.189070299999912,colour3,0.44722222222222224,-0.35138888888888886,1,0,0,6.857912399999805,number4,False,False,True,35,5,2019_Nov_19_1305,MA_Theta_Exp,3.0.7,60.174156042357076,
video/Experiment/zh_sp01_Ti_Ge_1_NoThetaInAudio_NoVideo.avi,noTheta,noVideo,sp01,Ti,Ge,1,0,4,flow/blocks/NoThetaInAudio_NoVideo_A.csv,,,,,,,,,0,0,0,0,0,16,16,16,-0.3972222222222222,-0.28055555555555556,1,0,0,10.582484500000646,call4,0.018055555555555554,-0.1125,1,0,0,12.863276500000211,colour3,0.41388888888888886,0.31527777777777777,1,0,0,13.497133500000018,number1,False,False,True,35,5,2019_Nov_19_1305,MA_Theta_Exp,3.0.7,60.174156042357076,
video/Experiment/zh_sp01_Un_We_4_NoThetaInAudio_NoVideo.avi,noTheta,noVideo,sp01,Un,We,4,0,4,flow/blocks/NoThetaInAudio_NoVideo_A.csv,,,,,,,,,0,0,0,0,0,17,17,15,-0.36527777777777776,-0.29259259259259257,1,0,0,5.285713599999326,call4,-0.030555555555555555,-0.2967592592592593,1,0,0,5.853586700000051,colour4,0.42916666666666664,-0.34953703703703703,1,0,0,6.83541360000072,number4,True,True,True,35,5,2019_Nov_19_1305,MA_Theta_Exp,3.0.7,60.174156042357076,
video/Experiment/zh_sp01_Un_Gr_1_NoThetaInAudio_NoVideo.avi,noTheta,noVideo,sp01,Un,Gr,1,0,4,flow/blocks/NoThetaInAudio_NoVideo_A.csv,,,,,,,,,0,0,0,0,0,18,18,20,-0.3888888888888889,-0.09814814814814815,1,0,0,5.1655940999999075,call3,-0.06666666666666667,0.0699074074074074,1,0,0,5.681277900000168,colour2,0.4166666666666667,0.31712962962962965,1,0,0,6.507528500000262,number1,False,True,True,35,5,2019_Nov_19_1305,MA_Theta_Exp,3.0.7,60.174156042357076,
video/Experiment/zh_sp01_Un_Ro_1_NoThetaInAudio_NoVideo.avi,noTheta,noVideo,sp01,Un,Ro,1,0,4,flow/blocks/NoThetaInAudio_NoVideo_A.csv,,,,,,,,,0,0,0,0,0,19,19,24,-0.4111111111111111,-0.33564814814814814,1,0,0,5.815268299999843,call4,-0.041666666666666664,-0.1162037037037037,1,0,0,6.532074799999464,colour3,0.43333333333333335,0.300462962962963,1,0,0,7.1489956000004895,number1,True,True,True,35,5,2019_Nov_19_1305,MA_Theta_Exp,3.0.7,60.174156042357076,
video/Experiment/zh_sp01_Ad_Gr_3_NoThetaInAudio_NoVideo.avi,noTheta,noVideo,sp01,Ad,Gr,3,0,4,flow/blocks/NoThetaInAudio_NoVideo_A.csv,,,,,,,,,0,0,0,0,0,20,20,22,-0.35138888888888886,0.35,1,0,0,5.161820000000262,call1,0.009722222222222222,0.14166666666666666,1,0,0,5.748711299999741,colour2,0.4041666666666667,-0.06527777777777778,1,0,0,6.731055199999901,number3,True,True,True,35,5,2019_Nov_19_1305,MA_Theta_Exp,3.0.7,60.174156042357076,
video/Experiment/zh_sp07_Ti_Ge_3_NoThetaInAudio_NoVideo.avi,noTheta,noVideo,sp07,Ti,Ge,3,0,4,flow/blocks/NoThetaInAudio_NoVideo_A.csv,,,,,,,,,0,0,0,0,0,21,21,18,-0.37777777777777777,-0.10277777777777777,1,0,0,5.008829800000058,call3,0.002777777777777778,0.2847222222222222,1,0,0,5.62633679999999,colour1,0.4236111111111111,-0.12083333333333333,1,0,0,6.291740100000425,number3,True,True,True,35,5,2019_Nov_19_1305,MA_Theta_Exp,3.0.7,60.174156042357076,
video/Experiment/zh_sp07_Un_Ge_3_NoThetaInAudio_NoVideo.avi,noTheta,noVideo,sp07,Un,Ge,3,0,4,flow/blocks/NoThetaInAudio_NoVideo_A.csv,,,,,,,,,0,0,0,0,0,22,22,2,-0.3736111111111111,-0.31805555555555554,1,0,0,5.139278199999353,call4,0.004166666666666667,0.2986111111111111,1,0,0,6.022972699999627,colour1,0.38333333333333336,-0.09305555555555556,1,0,0,6.624120800000128,number3,True,True,True,35,5,2019_Nov_19_1305,MA_Theta_Exp,3.0.7,60.174156042357076,
video/Experiment/zh_sp07_Dr_Ro_4_NoThetaInAudio_NoVideo.avi,noTheta,noVideo,sp07,Dr,Ro,4,0,4,flow/blocks/NoThetaInAudio_NoVideo_A.csv,,,,,,,,,0,0,0,0,0,23,23,27,-0.38472222222222224,0.26666666666666666,1,0,0,5.503928600000108,call1,-0.03194444444444444,-0.10972222222222222,1,0,0,6.020776299999852,colour3,0.4527777777777778,-0.30833333333333335,1,0,0,6.637195399999655,number4,False,True,True,35,5,2019_Nov_19_1305,MA_Theta_Exp,3.0.7,60.174156042357076,
video/Experiment/zh_sp07_Dr_Gr_2_NoThetaInAudio_NoVideo.avi,noTheta,noVideo,sp07,Dr,Gr,2,0,4,flow/blocks/NoThetaInAudio_NoVideo_A.csv,,,,,,,,,0,0,0,0,0,24,24,5,-0.43472222222222223,0.12916666666666668,1,0,0,4.909228999999868,call2,-0.022222222222222223,0.09722222222222222,1,0,0,5.377543100000366,colour2,0.34305555555555556,0.11527777777777778,1,0,0,5.924282299999504,number2,True,True,True,35,5,2019_Nov_19_1305,MA_Theta_Exp,3.0.7,60.174156042357076,
video/Experiment/zh_sp07_Ad_Gr_2_NoThetaInAudio_NoVideo.avi,noTheta,noVideo,sp07,Ad,Gr,2,0,4,flow/blocks/NoThetaInAudio_NoVideo_A.csv,,,,,,,,,0,0,0,0,0,25,25,21,-0.42777777777777776,0.3060185185185185,1,0,0,4.932440499999757,call1,-0.05555555555555555,0.12824074074074074,1,0,0,5.734143099999528,colour2,0.3638888888888889,0.11435185185185186,1,0,0,6.584448300000076,number2,True,True,True,35,5,2019_Nov_19_1305,MA_Theta_Exp,3.0.7,60.174156042357076,
video/Experiment/zh_sp07_Dr_Ge_1_NoThetaInAudio_NoVideo.avi,noTheta,noVideo,sp07,Dr,Ge,1,0,4,flow/blocks/NoThetaInAudio_NoVideo_A.csv,,,,,,,,,0,0,0,0,0,26,26,0,-0.37083333333333335,0.13657407407407407,1,0,0,6.364545100000214,call2,-0.020833333333333332,0.0712962962962963,1,0,0,7.815993100000014,colour2,0.44166666666666665,0.2949074074074074,1,0,0,8.464981600000101,number1,True,False,True,35,5,2019_Nov_19_1305,MA_Theta_Exp,3.0.7,60.174156042357076,
video/Experiment/zh_sp07_Un_Ge_2_NoThetaInAudio_NoVideo.avi,noTheta,noVideo,sp07,Un,Ge,2,0,4,flow/blocks/NoThetaInAudio_NoVideo_A.csv,,,,,,,,,0,0,0,0,0,27,27,17,-0.44305555555555554,-0.2884259259259259,1,0,0,5.715657299999293,call4,0.005555555555555556,0.3060185185185185,1,0,0,8.019884500000444,colour1,0.45555555555555555,0.11990740740740741,1,0,0,8.982507499999883,number2,True,True,True,35,5,2019_Nov_19_1305,MA_Theta_Exp,3.0.7,60.174156042357076,
video/Experiment/zh_sp01_Ad_Ro_1_NoThetaInAudio_NoVideo.avi,noTheta,noVideo,sp01,Ad,Ro,1,0,4,flow/blocks/NoThetaInAudio_NoVideo_A.csv,,,,,,,,,0,0,0,0,0,28,28,8,-0.3680555555555556,0.2865740740740741,1,0,0,6.238942599999973,call1,0.001388888888888889,-0.07731481481481481,1,0,0,7.2056668999994145,colour3,0.35138888888888886,0.2740740740740741,1,0,0,7.807343800000126,number1,True,True,True,35,5,2019_Nov_19_1305,MA_Theta_Exp,3.0.7,60.174156042357076,
video/Experiment/zh_sp07_Ad_We_2_NoThetaInAudio_NoVideo.avi,noTheta,noVideo,sp07,Ad,We,2,0,4,flow/blocks/NoThetaInAudio_NoVideo_A.csv,,,,,,,,,0,0,0,0,0,29,29,29,-0.43333333333333335,0.29074074074074074,1,0,0,4.415562300000602,call1,-0.059722222222222225,-0.25787037037037036,1,0,0,5.380562400000599,colour4,0.3888888888888889,0.09768518518518518,1,0,0,6.1982740000003105,number2,True,True,True,35,5,2019_Nov_19_1305,MA_Theta_Exp,3.0.7,60.174156042357076,
video/Experiment/zh_sp01_Un_Ro_3_NoThetaInAudio_NoVideo.avi,noTheta,noVideo,sp01,Un,Ro,3,0,4,flow/blocks/NoThetaInAudio_NoVideo_A.csv,,,,,,,,,0,0,0,0,0,30,30,26,-0.3611111111111111,-0.2898148148148148,1,0,0,5.312099200000375,call4,-0.05,-0.13842592592592592,1,0,0,5.93959840000025,colour3,0.47638888888888886,-0.09398148148148149,1,0,0,6.605708500000219,number3,True,True,True,35,5,2019_Nov_19_1305,MA_Theta_Exp,3.0.7,60.174156042357076,
video/Experiment/zh_sp01_Dr_Gr_4_NoThetaInAudio_NoVideo.avi,noTheta,noVideo,sp01,Dr,Gr,4,0,4,flow/blocks/NoThetaInAudio_NoVideo_A.csv,,,,,,,,,0,0,0,0,0,31,31,23,-0.42916666666666664,0.1361111111111111,1,0,0,5.870092199999817,call2,0.029166666666666667,0.075,1,0,0,6.5729548000008435,colour2,0.38472222222222224,-0.2953703703703704,1,0,0,7.425557200000185,number4,True,True,True,35,5,2019_Nov_19_1305,MA_Theta_Exp,3.0.7,60.174156042357076,
video/Experiment/zh_sp01_Ad_Ge_2_NVocInAudio_NoVideo.avi,vocoded,noVideo,sp01,Ad,Ge,2,1,2,flow/blocks/NVocInAudio_NoVideo_B.csv,,,,,,,,,0,1,1,1,0,0,0,1,-0.3638888888888889,0.3101851851851852,1,0,0,5.537004800000432,call1,-0.03888888888888889,0.3212962962962963,1,0,0,6.236405300000115,colour1,0.4263888888888889,0.07962962962962963,1,0,0,7.038301700000375,number2,True,True,True,35,5,2019_Nov_19_1305,MA_Theta_Exp,3.0.7,60.174156042357076,
video/Experiment/zh_sp01_Dr_Gr_1_NVocInAudio_NoVideo.avi,vocoded,noVideo,sp01,Dr,Gr,1,1,2,flow/blocks/NVocInAudio_NoVideo_B.csv,,,,,,,,,0,1,1,1,0,1,1,20,-0.3763888888888889,0.05185185185185185,1,0,0,5.483631699999933,call2,-0.0125,0.08796296296296297,1,0,0,6.134723099999974,colour2,0.37777777777777777,0.3143518518518518,1,0,0,6.7288133000001835,number1,True,True,True,35,5,2019_Nov_19_1305,MA_Theta_Exp,3.0.7,60.174156042357076,
video/Experiment/zh_sp01_Un_Ro_4_NVocInAudio_NoVideo.avi,vocoded,noVideo,sp01,Un,Ro,4,1,2,flow/blocks/NVocInAudio_NoVideo_B.csv,,,,,,,,,0,1,1,1,0,2,2,27,-0.4375,-0.3384259259259259,1,0,0,5.448796599999696,call4,0.022222222222222223,-0.16064814814814815,1,0,0,5.915092900000673,colour3,0.41388888888888886,-0.34675925925925927,1,0,0,6.451077099999566,number4,True,True,True,35,5,2019_Nov_19_1305,MA_Theta_Exp,3.0.7,60.174156042357076,
video/Experiment/zh_sp01_Ti_Ro_4_NVocInAudio_NoVideo.avi,vocoded,noVideo,sp01,Ti,Ro,4,1,2,flow/blocks/NVocInAudio_NoVideo_B.csv,,,,,,,,,0,1,1,1,0,3,3,11,-0.4111111111111111,-0.09675925925925925,1,0,0,5.365244900000107,call3,-0.06944444444444445,-0.14953703703703702,1,0,0,5.9853430000002845,colour3,0.41805555555555557,-0.30092592592592593,1,0,0,6.5675358999997115,number4,True,True,True,35,5,2019_Nov_19_1305,MA_Theta_Exp,3.0.7,60.174156042357076,
video/Experiment/zh_sp01_Ad_Ge_4_NVocInAudio_NoVideo.avi,vocoded,noVideo,sp01,Ad,Ge,4,1,2,flow/blocks/NVocInAudio_NoVideo_B.csv,,,,,,,,,0,1,1,1,0,4,4,3,-0.33055555555555555,0.27824074074074073,1,0,0,5.994791699999951,call1,-0.05277777777777778,0.3101851851851852,1,0,0,6.754483100000471,colour1,0.375,-0.31203703703703706,1,0,0,7.554517300000043,number4,True,True,True,35,5,2019_Nov_19_1305,MA_Theta_Exp,3.0.7,60.174156042357076,
video/Experiment/zh_sp01_Ad_Ro_3_NVocInAudio_NoVideo.avi,vocoded,noVideo,sp01,Ad,Ro,3,1,2,flow/blocks/NVocInAudio_NoVideo_B.csv,,,,,,,,,0,1,1,1,0,5,5,10,-0.4013888888888889,0.3199074074074074,1,0,0,5.000496800000292,call1,-0.02638888888888889,-0.11203703703703703,1,0,0,5.718339199999718,colour3,0.4388888888888889,-0.11342592592592593,1,0,0,6.270559799999319,number3,True,True,True,35,5,2019_Nov_19_1305,MA_Theta_Exp,3.0.7,60.174156042357076,
video/Experiment/zh_sp07_Ad_We_4_NVocInAudio_NoVideo.avi,vocoded,noVideo,sp07,Ad,We,4,1,2,flow/blocks/NVocInAudio_NoVideo_B.csv,,,,,,,,,0,1,1,1,0,6,6,31,-0.35555555555555557,0.2847222222222222,1,0,0,4.599215999999615,call1,-0.011111111111111112,-0.3736111111111111,1,0,0,5.319060900000295,colour4,0.4486111111111111,-0.2791666666666667,1,0,0,6.152250999999524,number4,True,True,True,35,5,2019_Nov_19_1305,MA_Theta_Exp,3.0.7,60.174156042357076,
video/Experiment/zh_sp07_Dr_Ro_1_NVocInAudio_NoVideo.avi,vocoded,noVideo,sp07,Dr,Ro,1,1,2,flow/blocks/NVocInAudio_NoVideo_B.csv,,,,,,,,,0,1,1,1,0,7,7,24,-0.38055555555555554,0.13055555555555556,1,0,0,4.568591500000366,call2,0.001388888888888889,-0.11527777777777778,1,0,0,5.22037519999958,colour3,0.34444444444444444,0.2708333333333333,1,0,0,6.21912329999941,number1,True,True,True,35,5,2019_Nov_19_1305,MA_Theta_Exp,3.0.7,60.174156042357076,
video/Experiment/zh_sp01_Un_Gr_2_NVocInAudio_NoVideo.avi,vocoded,noVideo,sp01,Un,Gr,2,1,2,flow/blocks/NVocInAudio_NoVideo_B.csv,,,,,,,,,0,1,1,1,0,8,8,5,-0.3625,-0.262037037037037,1,0,0,5.507021200000054,call4,0.05694444444444444,0.07962962962962963,1,0,0,6.236456100000396,colour2,0.3972222222222222,0.10462962962962963,1,0,0,6.836023900000328,number2,True,True,True,35,5,2019_Nov_19_1305,MA_Theta_Exp,3.0.7,60.174156042357076,
video/Experiment/zh_sp07_Ad_Ro_2_NVocInAudio_NoVideo.avi,vocoded,noVideo,sp07,Ad,Ro,2,1,2,flow/blocks/NVocInAudio_NoVideo_B.csv,,,,,,,,,0,1,1,1,0,9,9,25,-0.3972222222222222,0.2824074074074074,1,0,0,4.971241899999768,call1,-0.025,-0.07175925925925926,1,0,0,5.837107199999991,colour3,0.3472222222222222,0.11296296296296296,1,0,0,6.471010600000227,number2,True,True,True,35,5,2019_Nov_19_1305,MA_Theta_Exp,3.0.7,60.174156042357076,
video/Experiment/zh_sp07_Un_Ge_1_NVocInAudio_NoVideo.avi,vocoded,noVideo,sp07,Un,Ge,1,1,2,flow/blocks/NVocInAudio_NoVideo_B.csv,,,,,,,,,0,1,1,1,0,10,10,0,-0.3527777777777778,-0.33287037037037037,1,0,0,5.489185299999917,call4,0.011111111111111112,0.30324074074074076,1,0,0,6.2449360000000524,colour1,0.37777777777777777,0.3476851851851852,1,0,0,6.793543299999328,number1,True,True,True,35,5,2019_Nov_19_1305,MA_Theta_Exp,3.0.7,60.174156042357076,
video/Experiment/zh_sp01_Dr_We_3_NVocInAudio_NoVideo.avi,vocoded,noVideo,sp01,Dr,We,3,1,2,flow/blocks/NVocInAudio_NoVideo_B.csv,,,,,,,,,0,1,1,1,0,11,11,14,-0.44305555555555554,0.09768518518518518,1,0,0,6.098493200000121,call2,-0.03888888888888889,-0.3189814814814815,1,0,0,6.863206799999716,colour4,0.3638888888888889,-0.18703703703703703,1,0,0,7.433619800000088,number3,True,True,True,35,5,2019_Nov_19_1305,MA_Theta_Exp,3.0.7,60.174156042357076,
video/Experiment/zh_sp07_Ti_Gr_2_NVocInAudio_NoVideo.avi,vocoded,noVideo,sp07,Ti,Gr,2,1,2,flow/blocks/NVocInAudio_NoVideo_B.csv,,,,,,,,,0,1,1,1,0,12,12,21,-0.4111111111111111,-0.0787037037037037,1,0,0,4.822082300000147,call3,-0.043055555555555555,0.07824074074074074,1,0,0,5.554693299999599,colour2,0.43333333333333335,0.0824074074074074,1,0,0,6.256601500000215,number2,True,True,True,35,5,2019_Nov_19_1305,MA_Theta_Exp,3.0.7,60.174156042357076,
video/Experiment/zh_sp07_Ti_Ro_1_NVocInAudio_NoVideo.avi,vocoded,noVideo,sp07,Ti,Ro,1,1,2,flow/blocks/NVocInAudio_NoVideo_B.csv,,,,,,,,,0,1,1,1,0,13,13,8,-0.44583333333333336,-0.13425925925925927,1,0,0,5.2751961000003575,call3,-0.030555555555555555,-0.10787037037037037,1,0,0,6.027882399999726,colour3,0.3972222222222222,0.2962962962962963,1,0,0,6.675494699999945,number1,True,True,True,35,5,2019_Nov_19_1305,MA_Theta_Exp,3.0.7,60.174156042357076,
video/Experiment/zh_sp01_Ti_We_1_NVocInAudio_NoVideo.avi,vocoded,noVideo,sp01,Ti,We,1,1,2,flow/blocks/NVocInAudio_NoVideo_B.csv,,,,,,,,,0,1,1,1,0,14,14,12,-0.35138888888888886,-0.11898148148148148,1,0,0,5.201454099999864,call3,-0.019444444444444445,-0.32592592592592595,1,0,0,5.916628800000581,colour4,0.3638888888888889,0.29212962962962963,1,0,0,6.753585999999814,number1,True,True,True,35,5,2019_Nov_19_1305,MA_Theta_Exp,3.0.7,60.174156042357076,
video/Experiment/zh_sp07_Dr_Ro_3_NVocInAudio_NoVideo.avi,vocoded,noVideo,sp07,Dr,Ro,3,1,2,flow/blocks/NVocInAudio_NoVideo_B.csv,,,,,,,,,0,1,1,1,0,15,15,26,-0.4263888888888889,0.0699074074074074,1,0,0,5.350093500000185,call2,-0.0625,-0.05925925925925926,1,0,0,5.984617099999923,colour3,0.3458333333333333,-0.06898148148148148,1,0,0,6.670372600000519,number3,True,True,True,35,5,2019_Nov_19_1305,MA_Theta_Exp,3.0.7,60.174156042357076,
video/Experiment/zh_sp01_Ad_Ge_1_NVocInAudio_NoVideo.avi,vocoded,noVideo,sp01,Ad,Ge,1,1,2,flow/blocks/NVocInAudio_NoVideo_B.csv,,,,,,,,,0,1,1,1,0,16,16,16,-0.425,0.36944444444444446,1,0,0,5.263212500000009,call1,0.02361111111111111,0.3472222222222222,1,0,0,6.0256546999999046,colour1,0.35833333333333334,0.3486111111111111,1,0,0,6.859719700000824,number1,True,True,True,35,5,2019_Nov_19_1305,MA_Theta_Exp,3.0.7,60.174156042357076,
video/Experiment/zh_sp07_Ti_We_2_NVocInAudio_NoVideo.avi,vocoded,noVideo,sp07,Ti,We,2,1,2,flow/blocks/NVocInAudio_NoVideo_B.csv,,,,,,,,,0,1,1,1,0,17,17,29,-0.475,-0.10694444444444444,1,0,0,4.991380899999967,call3,0.006944444444444444,-0.3597222222222222,1,0,0,5.640013000000181,colour4,0.39444444444444443,0.07222222222222222,1,0,0,6.427608300000429,number2,True,True,True,35,5,2019_Nov_19_1305,MA_Theta_Exp,3.0.7,60.174156042357076,
video/Experiment/zh_sp07_Dr_Ge_3_NVocInAudio_NoVideo.avi,vocoded,noVideo,sp07,Dr,Ge,3,1,2,flow/blocks/NVocInAudio_NoVideo_B.csv,,,,,,,,,0,1,1,1,0,18,18,2,-0.4652777777777778,0.09444444444444444,1,0,0,4.783394899999621,call2,0.059722222222222225,0.30833333333333335,1,0,0,6.4664028999995935,colour1,0.39444444444444443,-0.1,1,0,0,7.402782400000433,number3,True,True,True,35,5,2019_Nov_19_1305,MA_Theta_Exp,3.0.7,60.174156042357076,
video/Experiment/zh_sp01_Un_Gr_3_NVocInAudio_NoVideo.avi,vocoded,noVideo,sp01,Un,Gr,3,1,2,flow/blocks/NVocInAudio_NoVideo_B.csv,,,,,,,,,0,1,1,1,0,19,19,6,-0.44583333333333336,-0.2847222222222222,1,0,0,5.194398199999341,call4,-0.001388888888888889,0.06111111111111111,1,0,0,5.960926200000358,colour2,0.3861111111111111,-0.10138888888888889,1,0,0,6.558010099999592,number3,True,True,True,35,5,2019_Nov_19_1305,MA_Theta_Exp,3.0.7,60.174156042357076,
video/Experiment/zh_sp07_Ad_Gr_4_NVocInAudio_NoVideo.avi,vocoded,noVideo,sp07,Ad,Gr,4,1,2,flow/blocks/NVocInAudio_NoVideo_B.csv,,,,,,,,,0,1,1,1,0,20,20,7,-0.44583333333333336,0.3458333333333333,1,0,0,5.088639900000089,call1,-0.06666666666666667,0.125,1,0,0,6.326019399999495,colour2,0.46111111111111114,-0.2861111111111111,1,0,0,7.204731599999832,number4,True,True,True,35,5,2019_Nov_19_1305,MA_Theta_Exp,3.0.7,60.174156042357076,
video/Experiment/zh_sp07_Dr_Ge_2_NVocInAudio_NoVideo.avi,vocoded,noVideo,sp07,Dr,Ge,2,1,2,flow/blocks/NVocInAudio_NoVideo_B.csv,,,,,,,,,0,1,1,1,0,21,21,17,-0.4444444444444444,0.12638888888888888,1,0,0,4.721130799999628,call2,-0.03888888888888889,0.2722222222222222,1,0,0,5.286587999999938,colour1,0.3388888888888889,0.15694444444444444,1,0,0,5.889377599999534,number2,True,True,True,35,5,2019_Nov_19_1305,MA_Theta_Exp,3.0.7,60.174156042357076,
video/Experiment/zh_sp01_Un_Ge_4_NVocInAudio_NoVideo.avi,vocoded,noVideo,sp01,Un,Ge,4,1,2,flow/blocks/NVocInAudio_NoVideo_B.csv,,,,,,,,,0,1,1,1,0,22,22,19,-0.36666666666666664,-0.3416666666666667,1,0,0,5.163798999999926,call4,0.08194444444444444,0.3,1,0,0,5.880524100000002,colour1,0.43472222222222223,-0.3347222222222222,1,0,0,6.748558299999786,number4,True,True,True,35,5,2019_Nov_19_1305,MA_Theta_Exp,3.0.7,60.174156042357076,
video/Experiment/zh_sp01_Ti_Gr_1_NVocInAudio_NoVideo.avi,vocoded,noVideo,sp01,Ti,Gr,1,1,2,flow/blocks/NVocInAudio_NoVideo_B.csv,,,,,,,,,0,1,1,1,0,23,23,4,-0.35833333333333334,-0.09305555555555556,1,0,0,5.691052300000592,call3,-0.05694444444444444,0.11388888888888889,1,0,0,6.256996500000241,colour2,0.33194444444444443,0.3138888888888889,1,0,0,7.0732600000001185,number1,True,True,True,35,5,2019_Nov_19_1305,MA_Theta_Exp,3.0.7,60.174156042357076,
video/Experiment/zh_sp01_Un_Gr_4_NVocInAudio_NoVideo.avi,vocoded,noVideo,sp01,Un,Gr,4,1,2,flow/blocks/NVocInAudio_NoVideo_B.csv,,,,,,,,,0,1,1,1,0,24,24,23,-0.4263888888888889,-0.32731481481481484,1,0,0,5.2049983999995675,call4,0.043055555555555555,0.07546296296296297,1,0,0,6.585929700000634,colour2,0.3611111111111111,-0.3287037037037037,1,0,0,7.5763339000004635,number4,True,True,True,35,5,2019_Nov_19_1305,MA_Theta_Exp,3.0.7,60.174156042357076,
video/Experiment/zh_sp07_Un_Ro_2_NVocInAudio_NoVideo.avi,vocoded,noVideo,sp07,Un,Ro,2,1,2,flow/blocks/NVocInAudio_NoVideo_B.csv,,,,,,,,,0,1,1,1,0,25,25,9,-0.38333333333333336,-0.325,1,0,0,4.921196399999644,call4,-0.016666666666666666,-0.12361111111111112,1,0,0,5.435607399999753,colour3,0.37222222222222223,0.13055555555555556,1,0,0,6.001284400000259,number2,True,True,True,35,5,2019_Nov_19_1305,MA_Theta_Exp,3.0.7,60.174156042357076,
video/Experiment/zh_sp01_Ti_Gr_3_NVocInAudio_NoVideo.avi,vocoded,noVideo,sp01,Ti,Gr,3,1,2,flow/blocks/NVocInAudio_NoVideo_B.csv,,,,,,,,,0,1,1,1,0,26,26,22,-0.39305555555555555,-0.06111111111111111,1,0,0,5.054799399999865,call3,-0.05416666666666667,0.0763888888888889,1,0,0,5.954322200000206,colour2,0.35833333333333334,-0.07777777777777778,1,0,0,6.60702450000008,number3,True,True,True,35,5,2019_Nov_19_1305,MA_Theta_Exp,3.0.7,60.174156042357076,
video/Experiment/zh_sp07_Ti_We_3_NVocInAudio_NoVideo.avi,vocoded,noVideo,sp07,Ti,We,3,1,2,flow/blocks/NVocInAudio_NoVideo_B.csv,,,,,,,,,0,1,1,1,0,27,27,30,-0.43472222222222223,-0.11388888888888889,1,0,0,4.773780499999702,call3,-0.015277777777777777,-0.3,1,0,0,5.653441699999348,colour4,0.3972222222222222,-0.11944444444444445,1,0,0,6.343915999999808,number3,True,True,True,35,5,2019_Nov_19_1305,MA_Theta_Exp,3.0.7,60.174156042357076,
video/Experiment/zh_sp07_Ad_Ge_3_NVocInAudio_NoVideo.avi,vocoded,noVideo,sp07,Ad,Ge,3,1,2,flow/blocks/NVocInAudio_NoVideo_B.csv,,,,,,,,,0,1,1,1,0,28,28,18,-0.38333333333333336,0.3486111111111111,1,0,0,5.198080199999822,call1,-0.04027777777777778,0.2833333333333333,1,0,0,7.9200762000000395,colour1,0.34444444444444444,-0.12222222222222222,1,0,0,8.729726499999742,number3,True,True,True,35,5,2019_Nov_19_1305,MA_Theta_Exp,3.0.7,60.174156042357076,
video/Experiment/zh_sp07_Dr_We_1_NVocInAudio_NoVideo.avi,vocoded,noVideo,sp07,Dr,We,1,1,2,flow/blocks/NVocInAudio_NoVideo_B.csv,,,,,,,,,0,1,1,1,0,29,29,28,-0.4097222222222222,0.11527777777777778,1,0,0,4.991501000000426,call2,-0.009722222222222222,-0.3013888888888889,1,0,0,5.642151799999738,colour4,0.40555555555555556,0.35138888888888886,1,0,0,6.271701299999222,number1,True,True,True,35,5,2019_Nov_19_1305,MA_Theta_Exp,3.0.7,60.174156042357076,
video/Experiment/zh_sp01_Un_We_2_NVocInAudio_NoVideo.avi,vocoded,noVideo,sp01,Un,We,2,1,2,flow/blocks/NVocInAudio_NoVideo_B.csv,,,,,,,,,0,1,1,1,0,30,30,13,-0.4083333333333333,-0.27314814814814814,1,0,0,5.556652600000234,call4,-0.03194444444444444,-0.3175925925925926,1,0,0,6.491836700000022,colour4,0.3638888888888889,0.09768518518518518,1,0,0,7.273168599999735,number2,True,True,True,35,5,2019_Nov_19_1305,MA_Theta_Exp,3.0.7,60.174156042357076,
video/Experiment/zh_sp07_Dr_We_4_NVocInAudio_NoVideo.avi,vocoded,noVideo,sp07,Dr,We,4,1,2,flow/blocks/NVocInAudio_NoVideo_B.csv,,,,,,,,,0,1,1,1,0,31,31,15,-0.37777777777777777,0.12685185185185185,1,0,0,5.468639299999268,call2,-0.05694444444444444,-0.28425925925925927,1,0,0,6.188615600000048,colour4,0.3958333333333333,-0.2967592592592593,1,0,0,6.7712257000002865,number4,True,True,True,35,5,2019_Nov_19_1305,MA_Theta_Exp,3.0.7,60.174156042357076,
