videoFile,condition,video,speaker,callSign,colour,number,seq,id,block,exp.thisRepN,exp.thisTrialN,exp.thisN,exp.thisIndex,training.thisRepN,training.thisTrialN,training.thisN,training.thisIndex,firstHalf.thisRepN,firstHalf.thisTrialN,firstHalf.thisN,firstHalf.thisIndex,blocksA.thisRepN,blocksA.thisTrialN,blocksA.thisN,blocksA.thisIndex,secondHalf.thisRepN,secondHalf.thisTrialN,secondHalf.thisN,secondHalf.thisIndex,blocksB.thisRepN,blocksB.thisTrialN,blocksB.thisN,blocksB.thisIndex,mouseClickOnCall.x,mouseClickOnCall.y,mouseClickOnCall.leftButton,mouseClickOnCall.midButton,mouseClickOnCall.rightButton,mouseClickOnCall.time,mouseClickOnCall.clicked_name,mouseClickOnColour.x,mouseClickOnColour.y,mouseClickOnColour.leftButton,mouseClickOnColour.midButton,mouseClickOnColour.rightButton,mouseClickOnColour.time,mouseClickOnColour.clicked_name,mouseClickOnNumber.x,mouseClickOnNumber.y,mouseClickOnNumber.leftButton,mouseClickOnNumber.midButton,mouseClickOnNumber.rightButton,mouseClickOnNumber.time,mouseClickOnNumber.clicked_name,callSignCorrect,colourCorrect,numberCorrect,participant,order,date,expName,psychopyVersion,frameRate,
video/Training/zh_sp01_Ad_We_4_NVocInAudio_NoVideo.avi,vocoded,noVideo,sp01,Ad,We,4,,,,,,,,0,0,0,0,,,,,,,,,,,,,,,,,-0.4375,0.3,1,0,0,6.2095141999998305,call1,-0.002777777777777778,-0.3486111111111111,1,0,0,7.495770499999708,colour4,0.39861111111111114,-0.3055555555555556,1,0,0,8.447755000000143,number4,True,True,True,36,1,2019_Nov_19_1404,MA_Theta_Exp,3.0.7,60.04494964927724,
video/Training/zh_sp07_Ad_Ge_3_NVocInAudio_NoVideo.avi,vocoded,noVideo,sp07,Ad,Ge,3,,,,,,,,0,1,1,1,,,,,,,,,,,,,,,,,-0.4111111111111111,0.30277777777777776,1,0,0,4.708004600000095,call1,0.011111111111111112,0.30972222222222223,1,0,0,6.409356000000116,colour1,0.42916666666666664,-0.09722222222222222,1,0,0,7.374588700000459,number3,True,True,True,36,1,2019_Nov_19_1404,MA_Theta_Exp,3.0.7,60.04494964927724,
video/Training/zh_sp01_Dr_Ro_3_NVocInAudio_GlobalThetaInVideo.avi,vocoded,plusVideo,sp01,Dr,Ro,3,,,,,,,,0,2,2,2,,,,,,,,,,,,,,,,,-0.36527777777777776,0.12222222222222222,1,0,0,9.323903299999984,call2,-0.005555555555555556,0.35555555555555557,1,0,0,9.99059010000019,colour1,0.4125,-0.15555555555555556,1,0,0,13.224766699999236,number3,True,False,True,36,1,2019_Nov_19_1404,MA_Theta_Exp,3.0.7,60.04494964927724,
video/Training/zh_sp07_Dr_Gr_4_NVocInAudio_GlobalThetaInVideo.avi,vocoded,plusVideo,sp07,Dr,Gr,4,,,,,,,,0,3,3,3,,,,,,,,,,,,,,,,,-0.43472222222222223,0.10416666666666667,1,0,0,5.281655199999477,call2,-0.02638888888888889,0.10277777777777777,1,0,0,6.035759700000199,colour2,0.37222222222222223,-0.3541666666666667,1,0,0,6.898812999999791,number4,True,True,True,36,1,2019_Nov_19_1404,MA_Theta_Exp,3.0.7,60.04494964927724,
video/Training/zh_sp01_Ti_Gr_2_NoThetaInAudio_NoVideo.avi,noTheta,noVideo,sp01,Ti,Gr,2,,,,,,,,0,4,4,4,,,,,,,,,,,,,,,,,0.3486111111111111,0.12361111111111112,1,0,0,6.81688529999974,call2,0.005555555555555556,0.43194444444444446,1,0,0,13.416511399999763,,,,,,,,,False,NO_ANSW,NO_ANSW,36,1,2019_Nov_19_1404,MA_Theta_Exp,3.0.7,60.04494964927724,
video/Training/zh_sp07_Ti_Ro_1_NoThetaInAudio_NoVideo.avi,noTheta,noVideo,sp07,Ti,Ro,1,,,,,,,,0,5,5,5,,,,,,,,,,,,,,,,,-0.39166666666666666,-0.30694444444444446,1,0,0,10.145925100000568,call4,-0.002777777777777778,0.14305555555555555,1,0,0,10.86192200000005,colour2,0.3819444444444444,-0.3055555555555556,1,0,0,12.758825300000353,number4,False,False,False,36,1,2019_Nov_19_1404,MA_Theta_Exp,3.0.7,60.04494964927724,
video/Training/zh_sp01_Un_Ge_1_NoThetaInAudio_GlobalThetaInVideo.avi,noTheta,plusVideo,sp01,Un,Ge,1,,,,,,,,0,6,6,6,,,,,,,,,,,,,,,,,0.45,0.375,1,0,0,6.375620299999355,call2,-0.009722222222222222,0.2972222222222222,1,0,0,12.271687999999813,colour1,0.3472222222222222,0.3055555555555556,1,0,0,12.921528500000022,number1,False,True,True,36,1,2019_Nov_19_1404,MA_Theta_Exp,3.0.7,60.04494964927724,
video/Training/zh_sp07_Un_We_2_NoThetaInAudio_GlobalThetaInVideo.avi,noTheta,plusVideo,sp07,Un,We,2,,,,,,,,0,7,7,7,,,,,,,,,,,,,,,,,-0.3541666666666667,-0.13472222222222222,1,0,0,10.986961800000245,call3,0.05555555555555555,-0.10694444444444444,1,0,0,11.567823400000634,colour3,0.47638888888888886,-0.16666666666666666,1,0,0,12.551453199999742,number3,False,False,False,36,1,2019_Nov_19_1404,MA_Theta_Exp,3.0.7,60.04494964927724,
video/Training/zh_sp01_Ad_Ge_1_GlobalTheta_NoVideo.avi,globalTheta,noVideo,sp01,Ad,Ge,1,,,,,,,,0,8,8,8,,,,,,,,,,,,,,,,,-0.4111111111111111,0.30416666666666664,1,0,0,5.046664500000588,call1,0.027777777777777776,0.29583333333333334,1,0,0,5.795735099999547,colour1,0.39166666666666666,0.3138888888888889,1,0,0,6.513483300000189,number1,True,True,True,36,1,2019_Nov_19_1404,MA_Theta_Exp,3.0.7,60.04494964927724,
video/Training/zh_sp07_Ad_Ro_3_GlobalTheta_NoVideo.avi,globalTheta,noVideo,sp07,Ad,Ro,3,,,,,,,,0,9,9,9,,,,,,,,,,,,,,,,,-0.42916666666666664,0.04861111111111111,1,0,0,5.531748399999742,call2,0.058333333333333334,0.3597222222222222,1,0,0,7.004118000000744,colour1,0.4027777777777778,-0.10416666666666667,1,0,0,8.233914000000368,number3,False,False,True,36,1,2019_Nov_19_1404,MA_Theta_Exp,3.0.7,60.04494964927724,
video/Experiment/zh_sp07_Un_We_3_NVocInAudio_NoVideo.avi,vocoded,noVideo,sp07,Un,We,3,0,2,flow/blocks/NVocInAudio_NoVideo_A.csv,,,,,,,,,0,0,0,0,0,0,0,14,,,,,,,,,-0.41388888888888886,-0.34444444444444444,1,0,0,5.364332600000125,call4,-0.06944444444444445,-0.3611111111111111,1,0,0,6.377098100000694,colour4,0.4041666666666667,-0.1111111111111111,1,0,0,7.132525299999543,number3,True,True,True,36,1,2019_Nov_19_1404,MA_Theta_Exp,3.0.7,60.04494964927724,
video/Experiment/zh_sp01_Dr_Ge_4_NVocInAudio_NoVideo.avi,vocoded,noVideo,sp01,Dr,Ge,4,0,2,flow/blocks/NVocInAudio_NoVideo_A.csv,,,,,,,,,0,0,0,0,0,1,1,19,,,,,,,,,-0.3902777777777778,0.06388888888888888,1,0,0,5.051433300000099,call2,-0.04027777777777778,0.3013888888888889,1,0,0,5.885350900000049,colour1,0.49722222222222223,-0.3277777777777778,1,0,0,6.900012000000061,number4,True,True,True,36,1,2019_Nov_19_1404,MA_Theta_Exp,3.0.7,60.04494964927724,
video/Experiment/zh_sp01_Ti_We_4_NVocInAudio_NoVideo.avi,vocoded,noVideo,sp01,Ti,We,4,0,2,flow/blocks/NVocInAudio_NoVideo_A.csv,,,,,,,,,0,0,0,0,0,2,2,31,,,,,,,,,-0.4041666666666667,-0.06527777777777778,1,0,0,5.1703542000004745,call3,0.025,-0.30416666666666664,1,0,0,6.052823600000011,colour4,0.3958333333333333,-0.3111111111111111,1,0,0,6.6419206999999005,number4,True,True,True,36,1,2019_Nov_19_1404,MA_Theta_Exp,3.0.7,60.04494964927724,
video/Experiment/zh_sp01_Ti_Ro_3_NVocInAudio_NoVideo.avi,vocoded,noVideo,sp01,Ti,Ro,3,0,2,flow/blocks/NVocInAudio_NoVideo_A.csv,,,,,,,,,0,0,0,0,0,3,3,10,,,,,,,,,-0.4097222222222222,-0.075,1,0,0,4.912306700000045,call3,-0.034722222222222224,-0.1388888888888889,1,0,0,5.615430500000002,colour3,0.39861111111111114,-0.10694444444444444,1,0,0,6.0982733999999255,number3,True,True,True,36,1,2019_Nov_19_1404,MA_Theta_Exp,3.0.7,60.04494964927724,
video/Experiment/zh_sp07_Ad_We_2_NVocInAudio_NoVideo.avi,vocoded,noVideo,sp07,Ad,We,2,0,2,flow/blocks/NVocInAudio_NoVideo_A.csv,,,,,,,,,0,0,0,0,0,4,4,29,,,,,,,,,-0.4486111111111111,0.07361111111111111,1,0,0,4.636132200000247,call2,-0.027777777777777776,-0.30694444444444446,1,0,0,5.38691209999979,colour4,0.4,0.09166666666666666,1,0,0,6.14014109999971,number2,False,True,True,36,1,2019_Nov_19_1404,MA_Theta_Exp,3.0.7,60.04494964927724,
video/Experiment/zh_sp01_Ti_Ge_3_NVocInAudio_NoVideo.avi,vocoded,noVideo,sp01,Ti,Ge,3,0,2,flow/blocks/NVocInAudio_NoVideo_A.csv,,,,,,,,,0,0,0,0,0,5,5,18,,,,,,,,,-0.44722222222222224,-0.12361111111111112,1,0,0,5.068439300000136,call3,0.04027777777777778,0.38472222222222224,1,0,0,5.804816299999402,colour1,0.4041666666666667,-0.09583333333333334,1,0,0,6.585814799999753,number3,True,True,True,36,1,2019_Nov_19_1404,MA_Theta_Exp,3.0.7,60.04494964927724,
video/Experiment/zh_sp07_Ad_We_3_NVocInAudio_NoVideo.avi,vocoded,noVideo,sp07,Ad,We,3,0,2,flow/blocks/NVocInAudio_NoVideo_A.csv,,,,,,,,,0,0,0,0,0,6,6,30,,,,,,,,,-0.44722222222222224,0.37083333333333335,1,0,0,4.339683600000171,call1,0.075,-0.3486111111111111,1,0,0,5.244884699999602,colour4,0.43333333333333335,-0.1638888888888889,1,0,0,5.901239499999974,number3,True,True,True,36,1,2019_Nov_19_1404,MA_Theta_Exp,3.0.7,60.04494964927724,
video/Experiment/zh_sp01_Ti_Gr_4_NVocInAudio_NoVideo.avi,vocoded,noVideo,sp01,Ti,Gr,4,0,2,flow/blocks/NVocInAudio_NoVideo_A.csv,,,,,,,,,0,0,0,0,0,7,7,7,,,,,,,,,-0.4041666666666667,-0.04027777777777778,1,0,0,5.2898684000001595,call3,0.016666666666666666,0.11666666666666667,1,0,0,5.919901300000674,colour2,0.42083333333333334,-0.3236111111111111,1,0,0,6.584581799999796,number4,True,True,True,36,1,2019_Nov_19_1404,MA_Theta_Exp,3.0.7,60.04494964927724,
video/Experiment/zh_sp01_Dr_Gr_2_NVocInAudio_NoVideo.avi,vocoded,noVideo,sp01,Dr,Gr,2,0,2,flow/blocks/NVocInAudio_NoVideo_A.csv,,,,,,,,,0,0,0,0,0,8,8,5,,,,,,,,,-0.41388888888888886,0.1,1,0,0,5.188224900000023,call2,-0.008333333333333333,0.09722222222222222,1,0,0,5.760591399999612,colour2,0.4708333333333333,0.08888888888888889,1,0,0,6.326746100000491,number2,True,True,True,36,1,2019_Nov_19_1404,MA_Theta_Exp,3.0.7,60.04494964927724,
video/Experiment/zh_sp01_Dr_Ge_1_NVocInAudio_NoVideo.avi,vocoded,noVideo,sp01,Dr,Ge,1,0,2,flow/blocks/NVocInAudio_NoVideo_A.csv,,,,,,,,,0,0,0,0,0,9,9,0,,,,,,,,,-0.42777777777777776,0.1388888888888889,1,0,0,5.530669700000544,call2,0.008333333333333333,0.31666666666666665,1,0,0,7.190641599999253,colour1,0.42777777777777776,0.3194444444444444,1,0,0,7.702193099999931,number1,True,True,True,36,1,2019_Nov_19_1404,MA_Theta_Exp,3.0.7,60.04494964927724,
video/Experiment/zh_sp07_Un_We_4_NVocInAudio_NoVideo.avi,vocoded,noVideo,sp07,Un,We,4,0,2,flow/blocks/NVocInAudio_NoVideo_A.csv,,,,,,,,,0,0,0,0,0,10,10,15,,,,,,,,,-0.4027777777777778,-0.2722222222222222,1,0,0,4.720628800000668,call4,-0.04861111111111111,-0.31805555555555554,1,0,0,5.285380500000429,colour4,0.3680555555555556,-0.33055555555555555,1,0,0,5.816152399999737,number4,True,True,True,36,1,2019_Nov_19_1404,MA_Theta_Exp,3.0.7,60.04494964927724,
video/Experiment/zh_sp01_Dr_Gr_3_NVocInAudio_NoVideo.avi,vocoded,noVideo,sp01,Dr,Gr,3,0,2,flow/blocks/NVocInAudio_NoVideo_A.csv,,,,,,,,,0,0,0,0,0,11,11,6,,,,,,,,,-0.34444444444444444,0.07222222222222222,1,0,0,5.419855199999802,call2,0.05694444444444444,0.06111111111111111,1,0,0,6.257614299999659,colour2,0.38472222222222224,-0.10277777777777777,1,0,0,6.968070400000215,number3,True,True,True,36,1,2019_Nov_19_1404,MA_Theta_Exp,3.0.7,60.04494964927724,
video/Experiment/zh_sp01_Ti_Ge_1_NVocInAudio_NoVideo.avi,vocoded,noVideo,sp01,Ti,Ge,1,0,2,flow/blocks/NVocInAudio_NoVideo_A.csv,,,,,,,,,0,0,0,0,0,12,12,16,,,,,,,,,-0.42083333333333334,-0.1625,1,0,0,5.444755499999701,call3,0.006944444444444444,0.35833333333333334,1,0,0,6.117164400000547,colour1,0.45416666666666666,0.3138888888888889,1,0,0,6.667002699999102,number1,True,True,True,36,1,2019_Nov_19_1404,MA_Theta_Exp,3.0.7,60.04494964927724,
video/Experiment/zh_sp01_Dr_Ro_2_NVocInAudio_NoVideo.avi,vocoded,noVideo,sp01,Dr,Ro,2,0,2,flow/blocks/NVocInAudio_NoVideo_A.csv,,,,,,,,,0,0,0,0,0,13,13,9,,,,,,,,,-0.36666666666666664,0.05555555555555555,1,0,0,5.3935042000002795,call2,0.034722222222222224,-0.12361111111111112,1,0,0,5.995421300000089,colour3,0.4597222222222222,0.12777777777777777,1,0,0,6.842728700000407,number2,True,True,True,36,1,2019_Nov_19_1404,MA_Theta_Exp,3.0.7,60.04494964927724,
video/Experiment/zh_sp07_Dr_Ro_4_NVocInAudio_NoVideo.avi,vocoded,noVideo,sp07,Dr,Ro,4,0,2,flow/blocks/NVocInAudio_NoVideo_A.csv,,,,,,,,,0,0,0,0,0,14,14,27,,,,,,,,,-0.46944444444444444,0.09722222222222222,1,0,0,5.2991679000006116,call2,0.06527777777777778,-0.11944444444444445,1,0,0,6.965503600000375,colour3,0.37222222222222223,-0.30694444444444446,1,0,0,7.94415730000037,number4,True,True,True,36,1,2019_Nov_19_1404,MA_Theta_Exp,3.0.7,60.04494964927724,
video/Experiment/zh_sp07_Un_Gr_1_NVocInAudio_NoVideo.avi,vocoded,noVideo,sp07,Un,Gr,1,0,2,flow/blocks/NVocInAudio_NoVideo_A.csv,,,,,,,,,0,0,0,0,0,15,15,20,,,,,,,,,-0.4444444444444444,-0.3138888888888889,1,0,0,4.868216599999869,call4,-0.034722222222222224,0.09722222222222222,1,0,0,5.4524664999999,colour2,0.39444444444444443,0.2986111111111111,1,0,0,6.084294400000545,number1,True,True,True,36,1,2019_Nov_19_1404,MA_Theta_Exp,3.0.7,60.04494964927724,
video/Experiment/zh_sp01_Un_Ro_3_NVocInAudio_NoVideo.avi,vocoded,noVideo,sp01,Un,Ro,3,0,2,flow/blocks/NVocInAudio_NoVideo_A.csv,,,,,,,,,0,0,0,0,0,16,16,26,,,,,,,,,-0.3819444444444444,-0.2611111111111111,1,0,0,5.1040146000004825,call4,0.006944444444444444,-0.12777777777777777,1,0,0,5.690927099999499,colour3,0.40694444444444444,-0.11666666666666667,1,0,0,6.407342399999834,number3,True,True,True,36,1,2019_Nov_19_1404,MA_Theta_Exp,3.0.7,60.04494964927724,
video/Experiment/zh_sp01_Ad_Gr_1_NVocInAudio_NoVideo.avi,vocoded,noVideo,sp01,Ad,Gr,1,0,2,flow/blocks/NVocInAudio_NoVideo_A.csv,,,,,,,,,0,0,0,0,0,17,17,4,,,,,,,,,-0.43333333333333335,-0.30416666666666664,1,0,0,6.5015199999998,call4,-0.002777777777777778,0.10833333333333334,1,0,0,7.183455500000491,colour2,0.38472222222222224,0.26805555555555555,1,0,0,8.57114719999936,number1,False,True,True,36,1,2019_Nov_19_1404,MA_Theta_Exp,3.0.7,60.04494964927724,
video/Experiment/zh_sp07_Ti_Ro_2_NVocInAudio_NoVideo.avi,vocoded,noVideo,sp07,Ti,Ro,2,0,2,flow/blocks/NVocInAudio_NoVideo_A.csv,,,,,,,,,0,0,0,0,0,18,18,25,,,,,,,,,-0.35694444444444445,-0.1527777777777778,1,0,0,4.602473900000405,call3,0.034722222222222224,-0.1,1,0,0,5.421797599999991,colour3,0.4666666666666667,0.11388888888888889,1,0,0,5.987919299999703,number2,True,True,True,36,1,2019_Nov_19_1404,MA_Theta_Exp,3.0.7,60.04494964927724,
video/Experiment/zh_sp07_Un_Ge_3_NVocInAudio_NoVideo.avi,vocoded,noVideo,sp07,Un,Ge,3,0,2,flow/blocks/NVocInAudio_NoVideo_A.csv,,,,,,,,,0,0,0,0,0,19,19,2,,,,,,,,,-0.41805555555555557,-0.35138888888888886,1,0,0,4.415335699999559,call4,-0.04027777777777778,0.35833333333333334,1,0,0,5.21241160000136,colour1,0.4305555555555556,-0.16666666666666666,1,0,0,6.407521199998882,number3,True,True,True,36,1,2019_Nov_19_1404,MA_Theta_Exp,3.0.7,60.04494964927724,
video/Experiment/zh_sp07_Ad_Ro_1_NVocInAudio_NoVideo.avi,vocoded,noVideo,sp07,Ad,Ro,1,0,2,flow/blocks/NVocInAudio_NoVideo_A.csv,,,,,,,,,0,0,0,0,0,20,20,8,,,,,,,,,-0.45416666666666666,0.3625,1,0,0,4.6176310000009835,call1,0.05694444444444444,-0.0763888888888889,1,0,0,5.766610599999694,colour3,0.3819444444444444,0.30972222222222223,1,0,0,6.532799200000227,number1,True,True,True,36,1,2019_Nov_19_1404,MA_Theta_Exp,3.0.7,60.04494964927724,
video/Experiment/zh_sp01_Un_Ge_2_NVocInAudio_NoVideo.avi,vocoded,noVideo,sp01,Un,Ge,2,0,2,flow/blocks/NVocInAudio_NoVideo_A.csv,,,,,,,,,0,0,0,0,0,21,21,17,,,,,,,,,-0.4444444444444444,-0.35,1,0,0,5.144350900000063,call4,0.02361111111111111,0.3111111111111111,1,0,0,6.149427499998637,colour1,0.42777777777777776,0.07916666666666666,1,0,0,6.956575399999565,number2,True,True,True,36,1,2019_Nov_19_1404,MA_Theta_Exp,3.0.7,60.04494964927724,
video/Experiment/zh_sp07_Un_Ro_1_NVocInAudio_NoVideo.avi,vocoded,noVideo,sp07,Un,Ro,1,0,2,flow/blocks/NVocInAudio_NoVideo_A.csv,,,,,,,,,0,0,0,0,0,22,22,24,,,,,,,,,-0.3736111111111111,-0.28888888888888886,1,0,0,4.6367960999996285,call4,0.0,-0.10833333333333334,1,0,0,5.201397299999371,colour3,0.38472222222222224,0.32222222222222224,1,0,0,5.984610800000155,number1,True,True,True,36,1,2019_Nov_19_1404,MA_Theta_Exp,3.0.7,60.04494964927724,
video/Experiment/zh_sp07_Dr_We_2_NVocInAudio_NoVideo.avi,vocoded,noVideo,sp07,Dr,We,2,0,2,flow/blocks/NVocInAudio_NoVideo_A.csv,,,,,,,,,0,0,0,0,0,23,23,13,,,,,,,,,-0.43472222222222223,0.07777777777777778,1,0,0,4.875024200000553,call2,0.005555555555555556,-0.33055555555555555,1,0,0,5.841293299999961,colour4,0.38333333333333336,0.11666666666666667,1,0,0,6.51290009999866,number2,True,True,True,36,1,2019_Nov_19_1404,MA_Theta_Exp,3.0.7,60.04494964927724,
video/Experiment/zh_sp07_Ti_Ge_4_NVocInAudio_NoVideo.avi,vocoded,noVideo,sp07,Ti,Ge,4,0,2,flow/blocks/NVocInAudio_NoVideo_A.csv,,,,,,,,,0,0,0,0,0,24,24,3,,,,,,,,,-0.42777777777777776,-0.15555555555555556,1,0,0,4.3943511999987095,call3,0.07916666666666666,0.3597222222222222,1,0,0,5.148187599999801,colour1,0.4166666666666667,-0.30833333333333335,1,0,0,5.913734800000384,number4,True,True,True,36,1,2019_Nov_19_1404,MA_Theta_Exp,3.0.7,60.04494964927724,
video/Experiment/zh_sp07_Un_We_1_NVocInAudio_NoVideo.avi,vocoded,noVideo,sp07,Un,We,1,0,2,flow/blocks/NVocInAudio_NoVideo_A.csv,,,,,,,,,0,0,0,0,0,25,25,28,,,,,,,,,-0.37916666666666665,-0.30972222222222223,1,0,0,4.5867508000010275,call4,-0.03888888888888889,-0.3541666666666667,1,0,0,5.1700366999994,colour4,0.3541666666666667,0.31527777777777777,1,0,0,5.8539376000007906,number1,True,True,True,36,1,2019_Nov_19_1404,MA_Theta_Exp,3.0.7,60.04494964927724,
video/Experiment/zh_sp01_Ad_Ro_4_NVocInAudio_NoVideo.avi,vocoded,noVideo,sp01,Ad,Ro,4,0,2,flow/blocks/NVocInAudio_NoVideo_A.csv,,,,,,,,,0,0,0,0,0,26,26,11,,,,,,,,,-0.38472222222222224,0.10972222222222222,1,0,0,9.982411799999682,call2,-0.020833333333333332,-0.3194444444444444,1,0,0,11.28819189999922,colour4,0.40694444444444444,-0.31527777777777777,1,0,0,12.069838599998548,number4,False,False,True,36,1,2019_Nov_19_1404,MA_Theta_Exp,3.0.7,60.04494964927724,
video/Experiment/zh_sp07_Ti_Ge_2_NVocInAudio_NoVideo.avi,vocoded,noVideo,sp07,Ti,Ge,2,0,2,flow/blocks/NVocInAudio_NoVideo_A.csv,,,,,,,,,0,0,0,0,0,27,27,1,,,,,,,,,-0.3527777777777778,-0.08472222222222223,1,0,0,4.718650800001342,call3,-0.04583333333333333,0.2791666666666667,1,0,0,5.364102600000479,colour1,0.34305555555555556,0.09305555555555556,1,0,0,5.85033250000015,number2,True,True,True,36,1,2019_Nov_19_1404,MA_Theta_Exp,3.0.7,60.04494964927724,
video/Experiment/zh_sp01_Ad_We_1_NVocInAudio_NoVideo.avi,vocoded,noVideo,sp01,Ad,We,1,0,2,flow/blocks/NVocInAudio_NoVideo_A.csv,,,,,,,,,0,0,0,0,0,28,28,12,,,,,,,,,-0.3888888888888889,0.3138888888888889,1,0,0,5.096254599999156,call1,-0.03194444444444444,-0.35138888888888886,1,0,0,6.135901800000283,colour4,0.39166666666666666,0.3111111111111111,1,0,0,6.865796300000511,number1,True,True,True,36,1,2019_Nov_19_1404,MA_Theta_Exp,3.0.7,60.04494964927724,
video/Experiment/zh_sp01_Ad_Gr_2_NVocInAudio_NoVideo.avi,vocoded,noVideo,sp01,Ad,Gr,2,0,2,flow/blocks/NVocInAudio_NoVideo_A.csv,,,,,,,,,0,0,0,0,0,29,29,21,,,,,,,,,-0.43194444444444446,0.2875,1,0,0,5.076628400000118,call1,-0.022222222222222223,0.1486111111111111,1,0,0,5.906045499999891,colour2,0.425,0.07361111111111111,1,0,0,6.435691200000292,number2,True,True,True,36,1,2019_Nov_19_1404,MA_Theta_Exp,3.0.7,60.04494964927724,
video/Experiment/zh_sp07_Dr_Gr_4_NVocInAudio_NoVideo.avi,vocoded,noVideo,sp07,Dr,Gr,4,0,2,flow/blocks/NVocInAudio_NoVideo_A.csv,,,,,,,,,0,0,0,0,0,30,30,23,,,,,,,,,-0.44027777777777777,0.12777777777777777,1,0,0,4.601528400000461,call2,-0.03333333333333333,0.09305555555555556,1,0,0,5.120317500000965,colour2,0.39166666666666666,-0.3375,1,0,0,5.88009989999955,number4,True,True,True,36,1,2019_Nov_19_1404,MA_Theta_Exp,3.0.7,60.04494964927724,
video/Experiment/zh_sp07_Ad_Gr_3_NVocInAudio_NoVideo.avi,vocoded,noVideo,sp07,Ad,Gr,3,0,2,flow/blocks/NVocInAudio_NoVideo_A.csv,,,,,,,,,0,0,0,0,0,31,31,22,,,,,,,,,-0.39861111111111114,0.35138888888888886,1,0,0,4.728663399999277,call1,-0.001388888888888889,0.09583333333333334,1,0,0,5.508769199999733,colour2,0.39444444444444443,-0.1125,1,0,0,6.526270400001522,number3,True,True,True,36,1,2019_Nov_19_1404,MA_Theta_Exp,3.0.7,60.04494964927724,
video/Experiment/zh_sp01_Dr_We_1_NoThetaInAudio_GlobalThetaInVideo.avi,noTheta,plusVideo,sp01,Dr,We,1,1,3,flow/blocks/NoThetaInAudio_GlobalThetaInVideo_B.csv,,,,,,,,,0,1,1,1,0,0,0,28,,,,,,,,,-0.37777777777777777,0.4041666666666667,1,0,0,5.219249499999933,call1,0.034722222222222224,-0.3125,1,0,0,6.333373399998891,colour4,0.4152777777777778,0.2861111111111111,1,0,0,7.049538600000233,number1,False,True,True,36,1,2019_Nov_19_1404,MA_Theta_Exp,3.0.7,60.04494964927724,
video/Experiment/zh_sp07_Ti_Gr_2_NoThetaInAudio_GlobalThetaInVideo.avi,noTheta,plusVideo,sp07,Ti,Gr,2,1,3,flow/blocks/NoThetaInAudio_GlobalThetaInVideo_B.csv,,,,,,,,,0,1,1,1,0,1,1,21,,,,,,,,,-0.3875,0.3111111111111111,1,0,0,6.3163411000005,call1,0.020833333333333332,0.12777777777777777,1,0,0,6.9527393999997,colour2,0.41944444444444445,0.35138888888888886,1,0,0,7.5515701999993325,number1,False,True,False,36,1,2019_Nov_19_1404,MA_Theta_Exp,3.0.7,60.04494964927724,
video/Experiment/zh_sp07_Ad_Ro_3_NoThetaInAudio_GlobalThetaInVideo.avi,noTheta,plusVideo,sp07,Ad,Ro,3,1,3,flow/blocks/NoThetaInAudio_GlobalThetaInVideo_B.csv,,,,,,,,,0,1,1,1,0,2,2,10,,,,,,,,,-0.4388888888888889,0.30694444444444446,1,0,0,4.526151899999604,call1,0.05277777777777778,-0.12777777777777777,1,0,0,5.429833299998791,colour3,0.4236111111111111,-0.10555555555555556,1,0,0,5.862567599999238,number3,True,True,True,36,1,2019_Nov_19_1404,MA_Theta_Exp,3.0.7,60.04494964927724,
video/Experiment/zh_sp01_Ti_Ro_4_NoThetaInAudio_GlobalThetaInVideo.avi,noTheta,plusVideo,sp01,Ti,Ro,4,1,3,flow/blocks/NoThetaInAudio_GlobalThetaInVideo_B.csv,,,,,,,,,0,1,1,1,0,3,3,11,,,,,,,,,-0.3611111111111111,0.28888888888888886,1,0,0,7.647420699999202,call1,0.0,0.08055555555555556,1,0,0,8.24619840000014,colour2,0.4444444444444444,-0.14444444444444443,1,0,0,9.199858999998469,number3,False,False,False,36,1,2019_Nov_19_1404,MA_Theta_Exp,3.0.7,60.04494964927724,
video/Experiment/zh_sp01_Dr_Ge_2_NoThetaInAudio_GlobalThetaInVideo.avi,noTheta,plusVideo,sp01,Dr,Ge,2,1,3,flow/blocks/NoThetaInAudio_GlobalThetaInVideo_B.csv,,,,,,,,,0,1,1,1,0,4,4,17,,,,,,,,,0.0375,-0.09444444444444444,1,0,0,5.237959000000046,call2,0.029166666666666667,-0.15,1,0,0,8.238467500001207,colour3,0.425,0.15138888888888888,1,0,0,8.724485400000049,number2,True,False,True,36,1,2019_Nov_19_1404,MA_Theta_Exp,3.0.7,60.04494964927724,
video/Experiment/zh_sp07_Dr_Gr_1_NoThetaInAudio_GlobalThetaInVideo.avi,noTheta,plusVideo,sp07,Dr,Gr,1,1,3,flow/blocks/NoThetaInAudio_GlobalThetaInVideo_B.csv,,,,,,,,,0,1,1,1,0,5,5,20,,,,,,,,,-0.3888888888888889,0.1388888888888889,1,0,0,4.582194599999639,call2,-0.034722222222222224,0.10694444444444444,1,0,0,5.008474799999021,colour2,0.44027777777777777,0.33194444444444443,1,0,0,5.491556300001321,number1,True,True,True,36,1,2019_Nov_19_1404,MA_Theta_Exp,3.0.7,60.04494964927724,
video/Experiment/zh_sp07_Un_Gr_3_NoThetaInAudio_GlobalThetaInVideo.avi,noTheta,plusVideo,sp07,Un,Gr,3,1,3,flow/blocks/NoThetaInAudio_GlobalThetaInVideo_B.csv,,,,,,,,,0,1,1,1,0,6,6,6,,,,,,,,,-0.40694444444444444,0.1,1,0,0,5.1727217999996356,call2,0.022222222222222223,0.08194444444444444,1,0,0,5.812874200000806,colour2,0.43333333333333335,-0.13333333333333333,1,0,0,6.399739500000578,number3,False,True,True,36,1,2019_Nov_19_1404,MA_Theta_Exp,3.0.7,60.04494964927724,
video/Experiment/zh_sp07_Dr_Ro_1_NoThetaInAudio_GlobalThetaInVideo.avi,noTheta,plusVideo,sp07,Dr,Ro,1,1,3,flow/blocks/NoThetaInAudio_GlobalThetaInVideo_B.csv,,,,,,,,,0,1,1,1,0,7,7,24,,,,,,,,,-0.44722222222222224,0.06527777777777778,1,0,0,4.320799999999508,call2,-0.004166666666666667,-0.15,1,0,0,4.873292299998866,colour3,0.4041666666666667,0.3458333333333333,1,0,0,5.542704800000138,number1,True,True,True,36,1,2019_Nov_19_1404,MA_Theta_Exp,3.0.7,60.04494964927724,
video/Experiment/zh_sp07_Un_Ro_2_NoThetaInAudio_GlobalThetaInVideo.avi,noTheta,plusVideo,sp07,Un,Ro,2,1,3,flow/blocks/NoThetaInAudio_GlobalThetaInVideo_B.csv,,,,,,,,,0,1,1,1,0,8,8,9,,,,,,,,,-0.44027777777777777,-0.37916666666666665,1,0,0,4.549499699998705,call4,0.07361111111111111,0.15138888888888888,1,0,0,5.6469200999999885,colour2,0.4111111111111111,0.325,1,0,0,6.130840499999977,number1,True,False,False,36,1,2019_Nov_19_1404,MA_Theta_Exp,3.0.7,60.04494964927724,
video/Experiment/zh_sp07_Dr_We_3_NoThetaInAudio_GlobalThetaInVideo.avi,noTheta,plusVideo,sp07,Dr,We,3,1,3,flow/blocks/NoThetaInAudio_GlobalThetaInVideo_B.csv,,,,,,,,,0,1,1,1,0,9,9,14,,,,,,,,,-0.43472222222222223,0.3277777777777778,1,0,0,4.442298300000402,call1,-0.02638888888888889,-0.11527777777777778,1,0,0,5.593268899998293,colour3,0.04722222222222222,-0.2777777777777778,1,0,0,7.445144600000276,number3,False,False,True,36,1,2019_Nov_19_1404,MA_Theta_Exp,3.0.7,60.04494964927724,
video/Experiment/zh_sp01_Ti_We_3_NoThetaInAudio_GlobalThetaInVideo.avi,noTheta,plusVideo,sp01,Ti,We,3,1,3,flow/blocks/NoThetaInAudio_GlobalThetaInVideo_B.csv,,,,,,,,,0,1,1,1,0,10,10,30,,,,,,,,,-0.38472222222222224,0.3375,1,0,0,7.7459720999995625,call1,0.027777777777777776,-0.35833333333333334,1,0,0,11.645507100000032,colour4,0.3819444444444444,-0.13055555555555556,1,0,0,12.184780099998534,number3,False,True,True,36,1,2019_Nov_19_1404,MA_Theta_Exp,3.0.7,60.04494964927724,
video/Experiment/zh_sp01_Un_Gr_2_NoThetaInAudio_GlobalThetaInVideo.avi,noTheta,plusVideo,sp01,Un,Gr,2,1,3,flow/blocks/NoThetaInAudio_GlobalThetaInVideo_B.csv,,,,,,,,,0,1,1,1,0,11,11,5,,,,,,,,,-0.4527777777777778,-0.325,1,0,0,5.543812799998705,call4,-0.015277777777777777,0.2708333333333333,1,0,0,11.328156900000977,colour1,0.3902777777777778,0.0763888888888889,1,0,0,11.926110099999278,number2,True,False,True,36,1,2019_Nov_19_1404,MA_Theta_Exp,3.0.7,60.04494964927724,
video/Experiment/zh_sp01_Ad_Ge_3_NoThetaInAudio_GlobalThetaInVideo.avi,noTheta,plusVideo,sp01,Ad,Ge,3,1,3,flow/blocks/NoThetaInAudio_GlobalThetaInVideo_B.csv,,,,,,,,,0,1,1,1,0,12,12,18,,,,,,,,,-0.4305555555555556,0.32222222222222224,1,0,0,5.056705200000579,call1,-0.002777777777777778,0.23472222222222222,1,0,0,7.7832087999995565,colour1,0.3638888888888889,-0.09444444444444444,1,0,0,8.491639699999723,number3,True,True,True,36,1,2019_Nov_19_1404,MA_Theta_Exp,3.0.7,60.04494964927724,
video/Experiment/zh_sp01_Ad_Ge_2_NoThetaInAudio_GlobalThetaInVideo.avi,noTheta,plusVideo,sp01,Ad,Ge,2,1,3,flow/blocks/NoThetaInAudio_GlobalThetaInVideo_B.csv,,,,,,,,,0,1,1,1,0,13,13,1,,,,,,,,,-0.41944444444444445,0.2986111111111111,1,0,0,5.4725097000009555,call1,-0.05,0.2763888888888889,1,0,0,5.935451100000137,colour1,0.3680555555555556,0.12777777777777777,1,0,0,6.440426400000433,number2,True,True,True,36,1,2019_Nov_19_1404,MA_Theta_Exp,3.0.7,60.04494964927724,
video/Experiment/zh_sp07_Ti_Gr_3_NoThetaInAudio_GlobalThetaInVideo.avi,noTheta,plusVideo,sp07,Ti,Gr,3,1,3,flow/blocks/NoThetaInAudio_GlobalThetaInVideo_B.csv,,,,,,,,,0,1,1,1,0,14,14,22,,,,,,,,,-0.38472222222222224,0.1,1,0,0,6.141653399999996,call2,-0.0125,0.1111111111111111,1,0,0,6.559355100000175,colour2,0.3736111111111111,-0.09166666666666666,1,0,0,7.0767847999995865,number3,False,True,True,36,1,2019_Nov_19_1404,MA_Theta_Exp,3.0.7,60.04494964927724,
video/Experiment/zh_sp01_Dr_Ro_3_NoThetaInAudio_GlobalThetaInVideo.avi,noTheta,plusVideo,sp01,Dr,Ro,3,1,3,flow/blocks/NoThetaInAudio_GlobalThetaInVideo_B.csv,,,,,,,,,0,1,1,1,0,15,15,26,,,,,,,,,-0.38472222222222224,-0.3597222222222222,1,0,0,6.855582300000606,call4,-0.016666666666666666,0.32083333333333336,1,0,0,7.5261869999994815,colour1,0.4888888888888889,-0.13472222222222222,1,0,0,8.17744169999969,number3,False,False,True,36,1,2019_Nov_19_1404,MA_Theta_Exp,3.0.7,60.04494964927724,
video/Experiment/zh_sp01_Un_Ge_1_NoThetaInAudio_GlobalThetaInVideo.avi,noTheta,plusVideo,sp01,Un,Ge,1,1,3,flow/blocks/NoThetaInAudio_GlobalThetaInVideo_B.csv,,,,,,,,,0,1,1,1,0,16,16,0,,,,,,,,,-0.35,-0.29444444444444445,1,0,0,5.158360100000209,call4,-0.002777777777777778,-0.13472222222222222,1,0,0,5.666729599999599,colour3,0.41944444444444445,0.3527777777777778,1,0,0,6.219293899999684,number1,True,False,True,36,1,2019_Nov_19_1404,MA_Theta_Exp,3.0.7,60.04494964927724,
video/Experiment/zh_sp07_Ad_Gr_4_NoThetaInAudio_GlobalThetaInVideo.avi,noTheta,plusVideo,sp07,Ad,Gr,4,1,3,flow/blocks/NoThetaInAudio_GlobalThetaInVideo_B.csv,,,,,,,,,0,1,1,1,0,17,17,7,,,,,,,,,-0.38472222222222224,0.09444444444444444,1,0,0,6.870326700000078,call2,0.002777777777777778,-0.12083333333333333,1,0,0,8.748369299999467,colour3,0.4222222222222222,-0.11527777777777778,1,0,0,9.337691100001393,number3,False,False,False,36,1,2019_Nov_19_1404,MA_Theta_Exp,3.0.7,60.04494964927724,
video/Experiment/zh_sp01_Un_Ro_4_NoThetaInAudio_GlobalThetaInVideo.avi,noTheta,plusVideo,sp01,Un,Ro,4,1,3,flow/blocks/NoThetaInAudio_GlobalThetaInVideo_B.csv,,,,,,,,,0,1,1,1,0,18,18,27,,,,,,,,,-0.41388888888888886,-0.3333333333333333,1,0,0,5.129181100001006,call4,0.09027777777777778,-0.07083333333333333,1,0,0,8.29429700000037,colour3,0.3638888888888889,-0.12222222222222222,1,0,0,9.76389030000064,number3,True,True,False,36,1,2019_Nov_19_1404,MA_Theta_Exp,3.0.7,60.04494964927724,
video/Experiment/zh_sp07_Ad_We_4_NoThetaInAudio_GlobalThetaInVideo.avi,noTheta,plusVideo,sp07,Ad,We,4,1,3,flow/blocks/NoThetaInAudio_GlobalThetaInVideo_B.csv,,,,,,,,,0,1,1,1,0,19,19,31,,,,,,,,,-0.37222222222222223,-0.31527777777777777,1,0,0,6.1002829000008205,call4,0.06111111111111111,-0.07916666666666666,1,0,0,8.534959800001161,colour3,0.4361111111111111,-0.1125,1,0,0,9.08923490000052,number3,False,False,False,36,1,2019_Nov_19_1404,MA_Theta_Exp,3.0.7,60.04494964927724,
video/Experiment/zh_sp01_Ad_Ge_4_NoThetaInAudio_GlobalThetaInVideo.avi,noTheta,plusVideo,sp01,Ad,Ge,4,1,3,flow/blocks/NoThetaInAudio_GlobalThetaInVideo_B.csv,,,,,,,,,0,1,1,1,0,20,20,3,,,,,,,,,-0.3958333333333333,0.3347222222222222,1,0,0,5.007541799999672,call1,0.013888888888888888,0.31527777777777777,1,0,0,5.533599899999899,colour1,0.3763888888888889,-0.31527777777777777,1,0,0,6.186333499999819,number4,True,True,True,36,1,2019_Nov_19_1404,MA_Theta_Exp,3.0.7,60.04494964927724,
video/Experiment/zh_sp07_Ad_Ro_2_NoThetaInAudio_GlobalThetaInVideo.avi,noTheta,plusVideo,sp07,Ad,Ro,2,1,3,flow/blocks/NoThetaInAudio_GlobalThetaInVideo_B.csv,,,,,,,,,0,1,1,1,0,21,21,25,,,,,,,,,-0.41944444444444445,0.3472222222222222,1,0,0,4.601973900000303,call1,0.04027777777777778,-0.15694444444444444,1,0,0,5.850715300000957,colour3,0.44722222222222224,0.09166666666666666,1,0,0,11.820187899998928,number2,True,True,True,36,1,2019_Nov_19_1404,MA_Theta_Exp,3.0.7,60.04494964927724,
video/Experiment/zh_sp01_Dr_Ge_3_NoThetaInAudio_GlobalThetaInVideo.avi,noTheta,plusVideo,sp01,Dr,Ge,3,1,3,flow/blocks/NoThetaInAudio_GlobalThetaInVideo_B.csv,,,,,,,,,0,1,1,1,0,22,22,2,,,,,,,,,-0.40694444444444444,-0.29583333333333334,1,0,0,5.024765100000877,call4,0.05555555555555555,0.375,1,0,0,5.974003799999991,colour1,0.4388888888888889,-0.04722222222222222,1,0,0,6.657603999999992,number3,False,True,True,36,1,2019_Nov_19_1404,MA_Theta_Exp,3.0.7,60.04494964927724,
video/Experiment/zh_sp01_Un_We_2_NoThetaInAudio_GlobalThetaInVideo.avi,noTheta,plusVideo,sp01,Un,We,2,1,3,flow/blocks/NoThetaInAudio_GlobalThetaInVideo_B.csv,,,,,,,,,0,1,1,1,0,23,23,13,,,,,,,,,-0.39861111111111114,-0.3111111111111111,1,0,0,5.922743699999046,call4,-0.019444444444444445,-0.32916666666666666,1,0,0,6.505003599999327,colour4,0.41805555555555557,0.11944444444444445,1,0,0,9.400716199999806,number2,True,True,True,36,1,2019_Nov_19_1404,MA_Theta_Exp,3.0.7,60.04494964927724,
video/Experiment/zh_sp07_Ad_Ge_1_NoThetaInAudio_GlobalThetaInVideo.avi,noTheta,plusVideo,sp07,Ad,Ge,1,1,3,flow/blocks/NoThetaInAudio_GlobalThetaInVideo_B.csv,,,,,,,,,0,1,1,1,0,24,24,16,,,,,,,,,-0.39166666666666666,0.2777777777777778,1,0,0,4.6159619000009116,call1,0.006944444444444444,0.2708333333333333,1,0,0,5.109299399999145,colour1,0.3888888888888889,0.3375,1,0,0,5.614003999999113,number1,True,True,True,36,1,2019_Nov_19_1404,MA_Theta_Exp,3.0.7,60.04494964927724,
video/Experiment/zh_sp07_Ti_Gr_1_NoThetaInAudio_GlobalThetaInVideo.avi,noTheta,plusVideo,sp07,Ti,Gr,1,1,3,flow/blocks/NoThetaInAudio_GlobalThetaInVideo_B.csv,,,,,,,,,0,1,1,1,0,25,25,4,,,,,,,,,-0.4527777777777778,-0.15555555555555556,1,0,0,4.3258903000005375,call3,-0.06805555555555555,0.09444444444444444,1,0,0,4.780350699998962,colour2,0.33055555555555555,0.3375,1,0,0,5.259323999998742,number1,True,True,True,36,1,2019_Nov_19_1404,MA_Theta_Exp,3.0.7,60.04494964927724,
video/Experiment/zh_sp07_Dr_We_4_NoThetaInAudio_GlobalThetaInVideo.avi,noTheta,plusVideo,sp07,Dr,We,4,1,3,flow/blocks/NoThetaInAudio_GlobalThetaInVideo_B.csv,,,,,,,,,0,1,1,1,0,26,26,15,,,,,,,,,-0.4305555555555556,-0.1,1,0,0,5.046613200000138,call3,-0.018055555555555554,-0.3277777777777778,1,0,0,6.13008230000014,colour4,0.4027777777777778,-0.09722222222222222,1,0,0,7.400940999999875,number3,False,True,False,36,1,2019_Nov_19_1404,MA_Theta_Exp,3.0.7,60.04494964927724,
video/Experiment/zh_sp01_Ti_We_1_NoThetaInAudio_GlobalThetaInVideo.avi,noTheta,plusVideo,sp01,Ti,We,1,1,3,flow/blocks/NoThetaInAudio_GlobalThetaInVideo_B.csv,,,,,,,,,0,1,1,1,0,27,27,12,,,,,,,,,-0.3972222222222222,-0.11666666666666667,1,0,0,5.930922900000951,call3,-0.018055555555555554,-0.3111111111111111,1,0,0,6.433036000000357,colour4,0.37083333333333335,0.33055555555555555,1,0,0,7.0861733999990975,number1,True,True,True,36,1,2019_Nov_19_1404,MA_Theta_Exp,3.0.7,60.04494964927724,
video/Experiment/zh_sp07_Un_Ge_4_NoThetaInAudio_GlobalThetaInVideo.avi,noTheta,plusVideo,sp07,Un,Ge,4,1,3,flow/blocks/NoThetaInAudio_GlobalThetaInVideo_B.csv,,,,,,,,,0,1,1,1,0,28,28,19,,,,,,,,,-0.41388888888888886,-0.3611111111111111,1,0,0,4.315427499999714,call4,0.015277777777777777,0.31805555555555554,1,0,0,4.948626899998999,colour1,0.375,-0.13333333333333333,1,0,0,5.499717200000305,number3,True,True,False,36,1,2019_Nov_19_1404,MA_Theta_Exp,3.0.7,60.04494964927724,
video/Experiment/zh_sp07_Ti_We_2_NoThetaInAudio_GlobalThetaInVideo.avi,noTheta,plusVideo,sp07,Ti,We,2,1,3,flow/blocks/NoThetaInAudio_GlobalThetaInVideo_B.csv,,,,,,,,,0,1,1,1,0,29,29,29,,,,,,,,,-0.39861111111111114,0.1375,1,0,0,6.13655049999943,call2,-0.006944444444444444,-0.3194444444444444,1,0,0,6.874046799999633,colour4,0.42083333333333334,0.3,1,0,0,7.562886400000934,number1,False,True,False,36,1,2019_Nov_19_1404,MA_Theta_Exp,3.0.7,60.04494964927724,
video/Experiment/zh_sp01_Ti_Ro_1_NoThetaInAudio_GlobalThetaInVideo.avi,noTheta,plusVideo,sp01,Ti,Ro,1,1,3,flow/blocks/NoThetaInAudio_GlobalThetaInVideo_B.csv,,,,,,,,,0,1,1,1,0,30,30,8,,,,,,,,,-0.42083333333333334,-0.10277777777777777,1,0,0,5.086299299999155,call3,0.03333333333333333,-0.1,1,0,0,5.65310860000136,colour3,0.39861111111111114,0.325,1,0,0,6.168665500001225,number1,True,True,True,36,1,2019_Nov_19_1404,MA_Theta_Exp,3.0.7,60.04494964927724,
video/Experiment/zh_sp01_Un_Gr_4_NoThetaInAudio_GlobalThetaInVideo.avi,noTheta,plusVideo,sp01,Un,Gr,4,1,3,flow/blocks/NoThetaInAudio_GlobalThetaInVideo_B.csv,,,,,,,,,0,1,1,1,0,31,31,23,,,,,,,,,-0.4125,-0.31666666666666665,1,0,0,4.894249000000855,call4,0.002777777777777778,0.09583333333333334,1,0,0,5.665619200000947,colour2,0.37916666666666665,-0.3125,1,0,0,6.203108899999279,number4,True,True,True,36,1,2019_Nov_19_1404,MA_Theta_Exp,3.0.7,60.04494964927724,
video/Experiment/zh_sp01_Un_We_1_GlobalTheta_NoVideo.avi,globalTheta,noVideo,sp01,Un,We,1,2,5,flow/blocks/GlobalTheta_NoVideo_A.csv,,,,,,,,,0,2,2,2,0,0,0,28,,,,,,,,,-0.39166666666666666,-0.3375,1,0,0,5.126000799999019,call4,-0.025,-0.30694444444444446,1,0,0,5.597257100000206,colour4,0.36944444444444446,0.34305555555555556,1,0,0,6.2458163000010245,number1,True,True,True,36,1,2019_Nov_19_1404,MA_Theta_Exp,3.0.7,60.04494964927724,
video/Experiment/zh_sp01_Ti_Ro_3_GlobalTheta_NoVideo.avi,globalTheta,noVideo,sp01,Ti,Ro,3,2,5,flow/blocks/GlobalTheta_NoVideo_A.csv,,,,,,,,,0,2,2,2,0,1,1,10,,,,,,,,,-0.33055555555555555,-0.3013888888888889,1,0,0,4.796206699998947,call4,0.029166666666666667,-0.10555555555555556,1,0,0,5.345042000000831,colour3,0.4527777777777778,-0.08055555555555556,1,0,0,5.9466255999996065,number3,False,True,True,36,1,2019_Nov_19_1404,MA_Theta_Exp,3.0.7,60.04494964927724,
video/Experiment/zh_sp01_Un_We_3_GlobalTheta_NoVideo.avi,globalTheta,noVideo,sp01,Un,We,3,2,5,flow/blocks/GlobalTheta_NoVideo_A.csv,,,,,,,,,0,2,2,2,0,2,2,14,,,,,,,,,-0.4305555555555556,-0.3111111111111111,1,0,0,4.718526700000439,call4,-0.025,-0.3263888888888889,1,0,0,5.155103999999483,colour4,0.39861111111111114,-0.1,1,0,0,5.587912100001631,number3,True,True,True,36,1,2019_Nov_19_1404,MA_Theta_Exp,3.0.7,60.04494964927724,
video/Experiment/zh_sp07_Ti_Ge_2_GlobalTheta_NoVideo.avi,globalTheta,noVideo,sp07,Ti,Ge,2,2,5,flow/blocks/GlobalTheta_NoVideo_A.csv,,,,,,,,,0,2,2,2,0,3,3,1,,,,,,,,,-0.44166666666666665,-0.30833333333333335,1,0,0,5.727701799998613,call4,-0.013888888888888888,0.37916666666666665,1,0,0,6.358599199998935,colour1,0.4597222222222222,0.2875,1,0,0,6.8273601999990206,number1,False,True,False,36,1,2019_Nov_19_1404,MA_Theta_Exp,3.0.7,60.04494964927724,
video/Experiment/zh_sp01_Ti_Ge_1_GlobalTheta_NoVideo.avi,globalTheta,noVideo,sp01,Ti,Ge,1,2,5,flow/blocks/GlobalTheta_NoVideo_A.csv,,,,,,,,,0,2,2,2,0,4,4,16,,,,,,,,,-0.39861111111111114,-0.08194444444444444,1,0,0,5.090978399999585,call3,-0.02638888888888889,0.29444444444444445,1,0,0,5.621703400000115,colour1,0.3736111111111111,0.3125,1,0,0,6.120956299999307,number1,True,True,True,36,1,2019_Nov_19_1404,MA_Theta_Exp,3.0.7,60.04494964927724,
video/Experiment/zh_sp07_Dr_Ge_1_GlobalTheta_NoVideo.avi,globalTheta,noVideo,sp07,Dr,Ge,1,2,5,flow/blocks/GlobalTheta_NoVideo_A.csv,,,,,,,,,0,2,2,2,0,5,5,0,,,,,,,,,-0.35833333333333334,-0.2791666666666667,1,0,0,6.235504700000092,call4,0.030555555555555555,0.33611111111111114,1,0,0,6.97108339999977,colour1,0.37083333333333335,0.2986111111111111,1,0,0,7.420272800000021,number1,False,True,True,36,1,2019_Nov_19_1404,MA_Theta_Exp,3.0.7,60.04494964927724,
video/Experiment/zh_sp01_Dr_Gr_2_GlobalTheta_NoVideo.avi,globalTheta,noVideo,sp01,Dr,Gr,2,2,5,flow/blocks/GlobalTheta_NoVideo_A.csv,,,,,,,,,0,2,2,2,0,6,6,5,,,,,,,,,-0.37777777777777777,-0.3148148148148148,1,0,0,5.034582899999805,call4,0.08055555555555556,0.09351851851851851,1,0,0,5.5294826999997895,colour2,0.43472222222222223,0.33101851851851855,1,0,0,5.99871340000027,number1,False,True,False,36,1,2019_Nov_19_1404,MA_Theta_Exp,3.0.7,60.04494964927724,
video/Experiment/zh_sp07_Un_Ro_1_GlobalTheta_NoVideo.avi,globalTheta,noVideo,sp07,Un,Ro,1,2,5,flow/blocks/GlobalTheta_NoVideo_A.csv,,,,,,,,,0,2,2,2,0,7,7,24,,,,,,,,,-0.4236111111111111,-0.33425925925925926,1,0,0,5.527531100000488,call4,0.011111111111111112,0.08518518518518518,1,0,0,6.090393500000573,colour2,0.3527777777777778,0.2671296296296296,1,0,0,8.45575110000027,number1,True,False,True,36,1,2019_Nov_19_1404,MA_Theta_Exp,3.0.7,60.04494964927724,
video/Experiment/zh_sp07_Un_Ge_3_GlobalTheta_NoVideo.avi,globalTheta,noVideo,sp07,Un,Ge,3,2,5,flow/blocks/GlobalTheta_NoVideo_A.csv,,,,,,,,,0,2,2,2,0,8,8,2,,,,,,,,,-0.4444444444444444,-0.08287037037037037,1,0,0,4.4048211999997875,call3,-0.011111111111111112,0.33240740740740743,1,0,0,5.088964599999599,colour1,0.3958333333333333,-0.08842592592592592,1,0,0,5.7070291,number3,False,True,True,36,1,2019_Nov_19_1404,MA_Theta_Exp,3.0.7,60.04494964927724,
video/Experiment/zh_sp01_Ad_We_2_GlobalTheta_NoVideo.avi,globalTheta,noVideo,sp01,Ad,We,2,2,5,flow/blocks/GlobalTheta_NoVideo_A.csv,,,,,,,,,0,2,2,2,0,9,9,29,,,,,,,,,-0.3486111111111111,0.3212962962962963,1,0,0,5.904299599998922,call1,0.001388888888888889,-0.32175925925925924,1,0,0,6.619209800001045,colour4,0.37083333333333335,0.31574074074074077,1,0,0,7.271795399999974,number1,True,True,False,36,1,2019_Nov_19_1404,MA_Theta_Exp,3.0.7,60.04494964927724,
video/Experiment/zh_sp01_Dr_Gr_3_GlobalTheta_NoVideo.avi,globalTheta,noVideo,sp01,Dr,Gr,3,2,5,flow/blocks/GlobalTheta_NoVideo_A.csv,,,,,,,,,0,2,2,2,0,10,10,6,,,,,,,,,-0.4527777777777778,0.10324074074074074,1,0,0,4.923380000000179,call2,0.0,0.12129629629629629,1,0,0,5.642535000000862,colour2,0.37222222222222223,-0.11064814814814815,1,0,0,6.123103100000662,number3,True,True,True,36,1,2019_Nov_19_1404,MA_Theta_Exp,3.0.7,60.04494964927724,
video/Experiment/zh_sp07_Ti_Ge_4_GlobalTheta_NoVideo.avi,globalTheta,noVideo,sp07,Ti,Ge,4,2,5,flow/blocks/GlobalTheta_NoVideo_A.csv,,,,,,,,,0,2,2,2,0,11,11,3,,,,,,,,,-0.4097222222222222,-0.1287037037037037,1,0,0,4.432688599999892,call3,0.015277777777777777,0.33796296296296297,1,0,0,5.018008300001384,colour1,0.4263888888888889,-0.37175925925925923,1,0,0,5.749626499999067,number4,True,True,True,36,1,2019_Nov_19_1404,MA_Theta_Exp,3.0.7,60.04494964927724,
video/Experiment/zh_sp07_Ti_Ro_2_GlobalTheta_NoVideo.avi,globalTheta,noVideo,sp07,Ti,Ro,2,2,5,flow/blocks/GlobalTheta_NoVideo_A.csv,,,,,,,,,0,2,2,2,0,12,12,25,,,,,,,,,-0.4166666666666667,-0.08981481481481482,1,0,0,4.825584100000924,call3,0.02361111111111111,0.29074074074074074,1,0,0,5.457772499999919,colour1,0.39444444444444443,0.31712962962962965,1,0,0,5.875990500000626,number1,True,False,False,36,1,2019_Nov_19_1404,MA_Theta_Exp,3.0.7,60.04494964927724,
video/Experiment/zh_sp07_Ti_We_4_GlobalTheta_NoVideo.avi,globalTheta,noVideo,sp07,Ti,We,4,2,5,flow/blocks/GlobalTheta_NoVideo_A.csv,,,,,,,,,0,2,2,2,0,13,13,31,,,,,,,,,-0.41388888888888886,-0.07314814814814814,1,0,0,4.488161900000705,call3,-0.05555555555555555,-0.2800925925925926,1,0,0,4.938143700001092,colour4,0.3458333333333333,-0.36203703703703705,1,0,0,5.375316700001349,number4,True,True,True,36,1,2019_Nov_19_1404,MA_Theta_Exp,3.0.7,60.04494964927724,
video/Experiment/zh_sp07_Un_Gr_1_GlobalTheta_NoVideo.avi,globalTheta,noVideo,sp07,Un,Gr,1,2,5,flow/blocks/GlobalTheta_NoVideo_A.csv,,,,,,,,,0,2,2,2,0,14,14,20,,,,,,,,,-0.375,-0.07175925925925926,1,0,0,4.826854799999637,call3,-0.05694444444444444,0.09768518518518518,1,0,0,5.56062380000003,colour2,0.4111111111111111,0.3060185185185185,1,0,0,6.0387909000000946,number1,False,True,True,36,1,2019_Nov_19_1404,MA_Theta_Exp,3.0.7,60.04494964927724,
video/Experiment/zh_sp01_Un_Ge_2_GlobalTheta_NoVideo.avi,globalTheta,noVideo,sp01,Un,Ge,2,2,5,flow/blocks/GlobalTheta_NoVideo_A.csv,,,,,,,,,0,2,2,2,0,15,15,17,,,,,,,,,-0.42916666666666664,0.11435185185185186,1,0,0,4.901361599999291,call2,-0.001388888888888889,0.2935185185185185,1,0,0,5.412021399999503,colour1,0.40555555555555556,0.2726851851851852,1,0,0,5.878276399998867,number1,False,True,False,36,1,2019_Nov_19_1404,MA_Theta_Exp,3.0.7,60.04494964927724,
video/Experiment/zh_sp01_Dr_We_2_GlobalTheta_NoVideo.avi,globalTheta,noVideo,sp01,Dr,We,2,2,5,flow/blocks/GlobalTheta_NoVideo_A.csv,,,,,,,,,0,2,2,2,0,16,16,13,,,,,,,,,-0.36944444444444446,0.12962962962962962,1,0,0,4.977022899998701,call2,-0.0125,-0.274537037037037,1,0,0,5.514077899999393,colour4,0.43333333333333335,0.14074074074074075,1,0,0,6.358279300000504,number2,True,True,True,36,1,2019_Nov_19_1404,MA_Theta_Exp,3.0.7,60.04494964927724,
video/Experiment/zh_sp07_Dr_Gr_4_GlobalTheta_NoVideo.avi,globalTheta,noVideo,sp07,Dr,Gr,4,2,5,flow/blocks/GlobalTheta_NoVideo_A.csv,,,,,,,,,0,2,2,2,0,17,17,23,,,,,,,,,-0.45416666666666666,0.11435185185185186,1,0,0,4.266419100000348,call2,0.016666666666666666,0.1087962962962963,1,0,0,4.715987899999163,colour2,0.40694444444444444,-0.14537037037037037,1,0,0,5.1615670999999566,number3,True,True,False,36,1,2019_Nov_19_1404,MA_Theta_Exp,3.0.7,60.04494964927724,
video/Experiment/zh_sp07_Dr_Ro_2_GlobalTheta_NoVideo.avi,globalTheta,noVideo,sp07,Dr,Ro,2,2,5,flow/blocks/GlobalTheta_NoVideo_A.csv,,,,,,,,,0,2,2,2,0,18,18,9,,,,,,,,,-0.4222222222222222,0.08657407407407407,1,0,0,5.016562999999223,call2,0.015277777777777777,0.1087962962962963,1,0,0,5.519110700000965,colour2,0.33055555555555555,0.2962962962962963,1,0,0,6.183160200000202,number1,True,False,False,36,1,2019_Nov_19_1404,MA_Theta_Exp,3.0.7,60.04494964927724,
video/Experiment/zh_sp07_Ad_Gr_2_GlobalTheta_NoVideo.avi,globalTheta,noVideo,sp07,Ad,Gr,2,2,5,flow/blocks/GlobalTheta_NoVideo_A.csv,,,,,,,,,0,2,2,2,0,19,19,21,,,,,,,,,-0.42083333333333334,0.3435185185185185,1,0,0,4.339369899998928,call1,-0.013888888888888888,0.10601851851851851,1,0,0,4.792448700000023,colour2,0.4027777777777778,0.3060185185185185,1,0,0,5.292206000000078,number1,True,True,False,36,1,2019_Nov_19_1404,MA_Theta_Exp,3.0.7,60.04494964927724,
video/Experiment/zh_sp01_Ad_We_3_GlobalTheta_NoVideo.avi,globalTheta,noVideo,sp01,Ad,We,3,2,5,flow/blocks/GlobalTheta_NoVideo_A.csv,,,,,,,,,0,2,2,2,0,20,20,30,,,,,,,,,-0.36944444444444446,0.3282407407407407,1,0,0,4.776922099999865,call1,0.05555555555555555,-0.4009259259259259,1,0,0,5.550246300001163,colour4,0.38055555555555554,-0.1300925925925926,1,0,0,6.103562199999942,number3,True,True,True,36,1,2019_Nov_19_1404,MA_Theta_Exp,3.0.7,60.04494964927724,
video/Experiment/zh_sp07_Ad_Gr_3_GlobalTheta_NoVideo.avi,globalTheta,noVideo,sp07,Ad,Gr,3,2,5,flow/blocks/GlobalTheta_NoVideo_A.csv,,,,,,,,,0,2,2,2,0,21,21,22,,,,,,,,,-0.41388888888888886,0.2671296296296296,1,0,0,5.299658899999486,call1,0.016666666666666666,0.033796296296296297,1,0,0,5.770009699999719,colour2,0.4027777777777778,-0.11064814814814815,1,0,0,6.203309699998499,number3,True,True,True,36,1,2019_Nov_19_1404,MA_Theta_Exp,3.0.7,60.04494964927724,
video/Experiment/zh_sp01_Dr_Ge_4_GlobalTheta_NoVideo.avi,globalTheta,noVideo,sp01,Dr,Ge,4,2,5,flow/blocks/GlobalTheta_NoVideo_A.csv,,,,,,,,,0,2,2,2,0,22,22,19,,,,,,,,,-0.38472222222222224,0.06296296296296296,1,0,0,4.725156000000425,call2,-0.002777777777777778,0.3726851851851852,1,0,0,5.658509200000481,colour1,0.4222222222222222,-0.3537037037037037,1,0,0,6.528830299999754,number4,True,True,True,36,1,2019_Nov_19_1404,MA_Theta_Exp,3.0.7,60.04494964927724,
video/Experiment/zh_sp01_Ad_Ro_4_GlobalTheta_NoVideo.avi,globalTheta,noVideo,sp01,Ad,Ro,4,2,5,flow/blocks/GlobalTheta_NoVideo_A.csv,,,,,,,,,0,2,2,2,0,23,23,11,,,,,,,,,-0.4388888888888889,0.287962962962963,1,0,0,6.184059600000182,call1,0.030555555555555555,0.10601851851851851,1,0,0,10.097444900000482,colour2,0.4166666666666667,-0.37453703703703706,1,0,0,10.963884999999209,number4,True,False,True,36,1,2019_Nov_19_1404,MA_Theta_Exp,3.0.7,60.04494964927724,
video/Experiment/zh_sp01_Un_Ro_3_GlobalTheta_NoVideo.avi,globalTheta,noVideo,sp01,Un,Ro,3,2,5,flow/blocks/GlobalTheta_NoVideo_A.csv,,,,,,,,,0,2,2,2,0,24,24,26,,,,,,,,,-0.3958333333333333,-0.30092592592592593,1,0,0,6.295286399999895,call4,0.04583333333333333,-0.10092592592592593,1,0,0,9.68213040000046,colour3,0.4097222222222222,-0.1439814814814815,1,0,0,10.115711800001009,number3,True,True,True,36,1,2019_Nov_19_1404,MA_Theta_Exp,3.0.7,60.04494964927724,
video/Experiment/zh_sp07_Ad_Ro_1_GlobalTheta_NoVideo.avi,globalTheta,noVideo,sp07,Ad,Ro,1,2,5,flow/blocks/GlobalTheta_NoVideo_A.csv,,,,,,,,,0,2,2,2,0,25,25,8,,,,,,,,,-0.3527777777777778,0.32407407407407407,1,0,0,5.636280099999567,call1,-0.041666666666666664,-0.1425925925925926,1,0,0,6.537059899999804,colour3,0.35694444444444445,0.32407407407407407,1,0,0,7.2269983000005595,number1,True,True,True,36,1,2019_Nov_19_1404,MA_Theta_Exp,3.0.7,60.04494964927724,
video/Experiment/zh_sp01_Dr_Ro_4_GlobalTheta_NoVideo.avi,globalTheta,noVideo,sp01,Dr,Ro,4,2,5,flow/blocks/GlobalTheta_NoVideo_A.csv,,,,,,,,,0,2,2,2,0,26,26,27,,,,,,,,,-0.4041666666666667,0.10740740740740741,1,0,0,4.800804099999368,call2,-0.001388888888888889,-0.09537037037037037,1,0,0,5.22366570000122,colour3,0.36527777777777776,-0.27037037037037037,1,0,0,5.62078560000009,number4,True,True,True,36,1,2019_Nov_19_1404,MA_Theta_Exp,3.0.7,60.04494964927724,
video/Experiment/zh_sp07_Ad_Gr_1_GlobalTheta_NoVideo.avi,globalTheta,noVideo,sp07,Ad,Gr,1,2,5,flow/blocks/GlobalTheta_NoVideo_A.csv,,,,,,,,,0,2,2,2,0,27,27,4,,,,,,,,,-0.39861111111111114,0.35324074074074074,1,0,0,4.776995199999874,call1,0.0125,0.06157407407407407,1,0,0,5.203240999999252,colour2,0.3888888888888889,0.35324074074074074,1,0,0,5.750636200000372,number1,True,True,True,36,1,2019_Nov_19_1404,MA_Theta_Exp,3.0.7,60.04494964927724,
video/Experiment/zh_sp01_Ti_Ge_3_GlobalTheta_NoVideo.avi,globalTheta,noVideo,sp01,Ti,Ge,3,2,5,flow/blocks/GlobalTheta_NoVideo_A.csv,,,,,,,,,0,2,2,2,0,28,28,18,,,,,,,,,-0.4,-0.1287037037037037,1,0,0,4.92572250000012,call3,0.008333333333333333,-0.13703703703703704,1,0,0,5.313715799999045,colour3,0.43472222222222223,-0.12314814814814815,1,0,0,6.263551100000768,number3,True,False,True,36,1,2019_Nov_19_1404,MA_Theta_Exp,3.0.7,60.04494964927724,
video/Experiment/zh_sp07_Ti_Gr_4_GlobalTheta_NoVideo.avi,globalTheta,noVideo,sp07,Ti,Gr,4,2,5,flow/blocks/GlobalTheta_NoVideo_A.csv,,,,,,,,,0,2,2,2,0,29,29,7,,,,,,,,,-0.3958333333333333,-0.08842592592592592,1,0,0,4.455232899999828,call3,-0.013888888888888888,0.06296296296296296,1,0,0,5.057658800000354,colour2,0.38055555555555554,-0.10092592592592593,1,0,0,5.5381484999998065,number3,True,True,False,36,1,2019_Nov_19_1404,MA_Theta_Exp,3.0.7,60.04494964927724,
video/Experiment/zh_sp01_Ad_We_1_GlobalTheta_NoVideo.avi,globalTheta,noVideo,sp01,Ad,We,1,2,5,flow/blocks/GlobalTheta_NoVideo_A.csv,,,,,,,,,0,2,2,2,0,30,30,12,,,,,,,,,-0.3875,0.31851851851851853,1,0,0,5.780047000000195,call1,0.03333333333333333,-0.3439814814814815,1,0,0,6.532890000000407,colour4,0.3902777777777778,0.3449074074074074,1,0,0,7.193159899999955,number1,True,True,True,36,1,2019_Nov_19_1404,MA_Theta_Exp,3.0.7,60.04494964927724,
video/Experiment/zh_sp07_Un_We_4_GlobalTheta_NoVideo.avi,globalTheta,noVideo,sp07,Un,We,4,2,5,flow/blocks/GlobalTheta_NoVideo_A.csv,,,,,,,,,0,2,2,2,0,31,31,15,,,,,,,,,-0.37777777777777777,0.2810185185185185,1,0,0,7.152134299998579,call1,0.05,-0.2828703703703704,1,0,0,8.032192399999985,colour4,0.38472222222222224,-0.0412037037037037,1,0,0,8.563876700000037,number3,False,True,False,36,1,2019_Nov_19_1404,MA_Theta_Exp,3.0.7,60.04494964927724,
video/Experiment/zh_sp07_Dr_We_4_NVocInAudio_GlobalThetaInVideo.avi,vocoded,plusVideo,sp07,Dr,We,4,3,1,flow/blocks/NVocInAudio_GlobalThetaInVideo_B.csv,,,,,,,,,0,3,3,3,0,0,0,15,,,,,,,,,-0.42777777777777776,0.1699074074074074,1,0,0,4.528705799999443,call2,0.0,-0.3300925925925926,1,0,0,5.242272700001195,colour4,0.37083333333333335,-0.3787037037037037,1,0,0,5.628507499999614,number4,True,True,True,36,1,2019_Nov_19_1404,MA_Theta_Exp,3.0.7,60.04494964927724,
video/Experiment/zh_sp07_Un_We_2_NVocInAudio_GlobalThetaInVideo.avi,vocoded,plusVideo,sp07,Un,We,2,3,1,flow/blocks/NVocInAudio_GlobalThetaInVideo_B.csv,,,,,,,,,0,3,3,3,0,1,1,13,,,,,,,,,-0.38333333333333336,-0.30648148148148147,1,0,0,4.3725911999990785,call4,-0.005555555555555556,-0.32314814814814813,1,0,0,4.772295300001133,colour4,0.37222222222222223,0.13796296296296295,1,0,0,5.32874880000054,number2,True,True,True,36,1,2019_Nov_19_1404,MA_Theta_Exp,3.0.7,60.04494964927724,
video/Experiment/zh_sp07_Un_Ge_4_NVocInAudio_GlobalThetaInVideo.avi,vocoded,plusVideo,sp07,Un,Ge,4,3,1,flow/blocks/NVocInAudio_GlobalThetaInVideo_B.csv,,,,,,,,,0,3,3,3,0,2,2,19,,,,,,,,,-0.4152777777777778,-0.3050925925925926,1,0,0,4.494002600000385,call4,-0.019444444444444445,0.33240740740740743,1,0,0,5.925609399999303,colour1,0.3888888888888889,-0.36064814814814816,1,0,0,6.9460468999986915,number4,True,True,True,36,1,2019_Nov_19_1404,MA_Theta_Exp,3.0.7,60.04494964927724,
video/Experiment/zh_sp01_Ti_Gr_1_NVocInAudio_GlobalThetaInVideo.avi,vocoded,plusVideo,sp01,Ti,Gr,1,3,1,flow/blocks/NVocInAudio_GlobalThetaInVideo_B.csv,,,,,,,,,0,3,3,3,0,3,3,4,,,,,,,,,-0.3402777777777778,-0.12453703703703704,1,0,0,5.155634400000054,call3,-0.0125,0.09074074074074075,1,0,0,5.650980200000049,colour2,0.4847222222222222,0.32546296296296295,1,0,0,6.182667699999001,number1,True,True,True,36,1,2019_Nov_19_1404,MA_Theta_Exp,3.0.7,60.04494964927724,
video/Experiment/zh_sp01_Ti_Ro_4_NVocInAudio_GlobalThetaInVideo.avi,vocoded,plusVideo,sp01,Ti,Ro,4,3,1,flow/blocks/NVocInAudio_GlobalThetaInVideo_B.csv,,,,,,,,,0,3,3,3,0,4,4,11,,,,,,,,,-0.45555555555555555,-0.09675925925925925,1,0,0,5.259722699998747,call3,-0.041666666666666664,-0.06342592592592593,1,0,0,5.838737799998853,colour3,0.44305555555555554,-0.3148148148148148,1,0,0,6.621881999999459,number4,True,True,True,36,1,2019_Nov_19_1404,MA_Theta_Exp,3.0.7,60.04494964927724,
video/Experiment/zh_sp07_Ti_Ro_1_NVocInAudio_GlobalThetaInVideo.avi,vocoded,plusVideo,sp07,Ti,Ro,1,3,1,flow/blocks/NVocInAudio_GlobalThetaInVideo_B.csv,,,,,,,,,0,3,3,3,0,5,5,8,,,,,,,,,-0.4125,-0.08564814814814815,1,0,0,4.693348599999808,call3,-0.05555555555555555,-0.1050925925925926,1,0,0,5.242278600000645,colour3,0.39166666666666666,0.3296296296296296,1,0,0,5.8782816999992065,number1,True,True,True,36,1,2019_Nov_19_1404,MA_Theta_Exp,3.0.7,60.04494964927724,
video/Experiment/zh_sp01_Ad_Ge_2_NVocInAudio_GlobalThetaInVideo.avi,vocoded,plusVideo,sp01,Ad,Ge,2,3,1,flow/blocks/NVocInAudio_GlobalThetaInVideo_B.csv,,,,,,,,,0,3,3,3,0,6,6,1,,,,,,,,,-0.4125,0.2657407407407407,1,0,0,5.113127399999939,call1,-0.0875,0.29212962962962963,1,0,0,5.530478000000585,colour1,0.3736111111111111,0.09212962962962963,1,0,0,6.062305699999342,number2,True,True,True,36,1,2019_Nov_19_1404,MA_Theta_Exp,3.0.7,60.04494964927724,
video/Experiment/zh_sp07_Ad_Ge_1_NVocInAudio_GlobalThetaInVideo.avi,vocoded,plusVideo,sp07,Ad,Ge,1,3,1,flow/blocks/NVocInAudio_GlobalThetaInVideo_B.csv,,,,,,,,,0,3,3,3,0,7,7,16,,,,,,,,,-0.46111111111111114,0.30324074074074076,1,0,0,4.46450250000089,call1,0.03611111111111111,0.3143518518518518,1,0,0,5.019900499999494,colour1,0.425,0.32407407407407407,1,0,0,5.581463700000313,number1,True,True,True,36,1,2019_Nov_19_1404,MA_Theta_Exp,3.0.7,60.04494964927724,
video/Experiment/zh_sp01_Dr_Ge_3_NVocInAudio_GlobalThetaInVideo.avi,vocoded,plusVideo,sp01,Dr,Ge,3,3,1,flow/blocks/NVocInAudio_GlobalThetaInVideo_B.csv,,,,,,,,,0,3,3,3,0,8,8,2,,,,,,,,,-0.44305555555555554,0.05462962962962963,1,0,0,4.998394000000189,call2,-0.04583333333333333,0.287962962962963,1,0,0,5.631748699999662,colour1,0.425,-0.09675925925925925,1,0,0,6.311020799999824,number3,True,True,True,36,1,2019_Nov_19_1404,MA_Theta_Exp,3.0.7,60.04494964927724,
video/Experiment/zh_sp07_Ad_We_4_NVocInAudio_GlobalThetaInVideo.avi,vocoded,plusVideo,sp07,Ad,We,4,3,1,flow/blocks/NVocInAudio_GlobalThetaInVideo_B.csv,,,,,,,,,0,3,3,3,0,9,9,31,,,,,,,,,-0.35,0.2726851851851852,1,0,0,5.536481900000581,call1,0.005555555555555556,-0.37175925925925923,1,0,0,7.340705399999933,colour4,0.4041666666666667,-0.37592592592592594,1,0,0,8.057404699999097,number4,True,True,True,36,1,2019_Nov_19_1404,MA_Theta_Exp,3.0.7,60.04494964927724,
video/Experiment/zh_sp07_Dr_Ro_3_NVocInAudio_GlobalThetaInVideo.avi,vocoded,plusVideo,sp07,Dr,Ro,3,3,1,flow/blocks/NVocInAudio_GlobalThetaInVideo_B.csv,,,,,,,,,0,3,3,3,0,10,10,26,,,,,,,,,-0.4513888888888889,0.09768518518518518,1,0,0,4.511893700000655,call2,0.027777777777777776,-0.1439814814814815,1,0,0,6.372193700000935,colour3,0.38472222222222224,-0.12453703703703704,1,0,0,7.593457100001615,number3,True,True,True,36,1,2019_Nov_19_1404,MA_Theta_Exp,3.0.7,60.04494964927724,
video/Experiment/zh_sp07_Un_Gr_3_NVocInAudio_GlobalThetaInVideo.avi,vocoded,plusVideo,sp07,Un,Gr,3,3,1,flow/blocks/NVocInAudio_GlobalThetaInVideo_B.csv,,,,,,,,,0,3,3,3,0,11,11,6,,,,,,,,,-0.3861111111111111,-0.31342592592592594,1,0,0,4.410063199999058,call4,-0.03888888888888889,0.11296296296296296,1,0,0,5.010572199998933,colour2,0.36666666666666664,-0.13287037037037036,1,0,0,5.528101800000513,number3,True,True,True,36,1,2019_Nov_19_1404,MA_Theta_Exp,3.0.7,60.04494964927724,
video/Experiment/zh_sp01_Un_Ro_4_NVocInAudio_GlobalThetaInVideo.avi,vocoded,plusVideo,sp01,Un,Ro,4,3,1,flow/blocks/NVocInAudio_GlobalThetaInVideo_B.csv,,,,,,,,,0,3,3,3,0,12,12,27,,,,,,,,,-0.36944444444444446,-0.3578703703703704,1,0,0,6.254730100001325,call4,-0.05277777777777778,-0.14953703703703702,1,0,0,7.023198799999591,colour3,0.38472222222222224,-0.35648148148148145,1,0,0,7.805067399998734,number4,True,True,True,36,1,2019_Nov_19_1404,MA_Theta_Exp,3.0.7,60.04494964927724,
video/Experiment/zh_sp07_Ti_We_2_NVocInAudio_GlobalThetaInVideo.avi,vocoded,plusVideo,sp07,Ti,We,2,3,1,flow/blocks/NVocInAudio_GlobalThetaInVideo_B.csv,,,,,,,,,0,3,3,3,0,13,13,29,,,,,,,,,-0.40555555555555556,-0.10231481481481482,1,0,0,4.465313400000014,call3,0.03194444444444444,-0.2675925925925926,1,0,0,5.196935300000405,colour4,0.36666666666666664,0.06435185185185185,1,0,0,6.964877500000512,number2,True,True,True,36,1,2019_Nov_19_1404,MA_Theta_Exp,3.0.7,60.04494964927724,
video/Experiment/zh_sp07_Un_Gr_2_NVocInAudio_GlobalThetaInVideo.avi,vocoded,plusVideo,sp07,Un,Gr,2,3,1,flow/blocks/NVocInAudio_GlobalThetaInVideo_B.csv,,,,,,,,,0,3,3,3,0,14,14,5,,,,,,,,,-0.4375,-0.3106481481481482,1,0,0,4.96638399999938,call4,0.02638888888888889,0.09768518518518518,1,0,0,5.877812700000504,colour2,0.37777777777777777,0.11990740740740741,1,0,0,6.312178599999243,number2,True,True,True,36,1,2019_Nov_19_1404,MA_Theta_Exp,3.0.7,60.04494964927724,
video/Experiment/zh_sp01_Un_Gr_4_NVocInAudio_GlobalThetaInVideo.avi,vocoded,plusVideo,sp01,Un,Gr,4,3,1,flow/blocks/NVocInAudio_GlobalThetaInVideo_B.csv,,,,,,,,,0,3,3,3,0,15,15,23,,,,,,,,,-0.3527777777777778,-0.28564814814814815,1,0,0,4.926396799999566,call4,0.0375,0.10740740740740741,1,0,0,5.424670099999275,colour2,0.42916666666666664,-0.35509259259259257,1,0,0,6.029724399999395,number4,True,True,True,36,1,2019_Nov_19_1404,MA_Theta_Exp,3.0.7,60.04494964927724,
video/Experiment/zh_sp07_Dr_Gr_1_NVocInAudio_GlobalThetaInVideo.avi,vocoded,plusVideo,sp07,Dr,Gr,1,3,1,flow/blocks/NVocInAudio_GlobalThetaInVideo_B.csv,,,,,,,,,0,3,3,3,0,16,16,20,,,,,,,,,-0.3541666666666667,-0.3023148148148148,1,0,0,5.642974400001549,call4,0.0,0.05324074074074074,1,0,0,6.14380170000004,colour2,0.39861111111111114,0.3351851851851852,1,0,0,6.7260877000007895,number1,False,True,True,36,1,2019_Nov_19_1404,MA_Theta_Exp,3.0.7,60.04494964927724,
video/Experiment/zh_sp01_Ad_Ge_4_NVocInAudio_GlobalThetaInVideo.avi,vocoded,plusVideo,sp01,Ad,Ge,4,3,1,flow/blocks/NVocInAudio_GlobalThetaInVideo_B.csv,,,,,,,,,0,3,3,3,0,17,17,3,,,,,,,,,-0.3638888888888889,0.3365740740740741,1,0,0,5.077553800001624,call1,0.004166666666666667,0.28935185185185186,1,0,0,6.125356500000635,colour1,0.4638888888888889,-0.3523148148148148,1,0,0,6.897052100001019,number4,True,True,True,36,1,2019_Nov_19_1404,MA_Theta_Exp,3.0.7,60.04494964927724,
video/Experiment/zh_sp01_Dr_We_1_NVocInAudio_GlobalThetaInVideo.avi,vocoded,plusVideo,sp01,Dr,We,1,3,1,flow/blocks/NVocInAudio_GlobalThetaInVideo_B.csv,,,,,,,,,0,3,3,3,0,18,18,28,,,,,,,,,-0.36527777777777776,0.12546296296296297,1,0,0,5.588340099999186,call2,0.03333333333333333,-0.2814814814814815,1,0,0,6.273015699998723,colour4,0.39861111111111114,0.31712962962962965,1,0,0,6.92347940000036,number1,True,True,True,36,1,2019_Nov_19_1404,MA_Theta_Exp,3.0.7,60.04494964927724,
video/Experiment/zh_sp01_Ti_Gr_3_NVocInAudio_GlobalThetaInVideo.avi,vocoded,plusVideo,sp01,Ti,Gr,3,3,1,flow/blocks/NVocInAudio_GlobalThetaInVideo_B.csv,,,,,,,,,0,3,3,3,0,19,19,22,,,,,,,,,-0.44722222222222224,-0.09814814814814815,1,0,0,4.915699400000449,call3,-0.044444444444444446,0.12546296296296297,1,0,0,5.426943599999504,colour2,0.3472222222222222,-0.0787037037037037,1,0,0,5.926349999999729,number3,True,True,True,36,1,2019_Nov_19_1404,MA_Theta_Exp,3.0.7,60.04494964927724,
video/Experiment/zh_sp01_Ad_Ge_3_NVocInAudio_GlobalThetaInVideo.avi,vocoded,plusVideo,sp01,Ad,Ge,3,3,1,flow/blocks/NVocInAudio_GlobalThetaInVideo_B.csv,,,,,,,,,0,3,3,3,0,20,20,18,,,,,,,,,-0.4125,0.3365740740740741,1,0,0,6.050230400000146,call1,0.005555555555555556,0.31157407407407406,1,0,0,6.705157999998846,colour1,0.44583333333333336,-0.12314814814814815,1,0,0,7.601823699998931,number3,True,True,True,36,1,2019_Nov_19_1404,MA_Theta_Exp,3.0.7,60.04494964927724,
video/Experiment/zh_sp07_Un_Ro_2_NVocInAudio_GlobalThetaInVideo.avi,vocoded,plusVideo,sp07,Un,Ro,2,3,1,flow/blocks/NVocInAudio_GlobalThetaInVideo_B.csv,,,,,,,,,0,3,3,3,0,21,21,9,,,,,,,,,-0.38333333333333336,-0.3023148148148148,1,0,0,4.5383463999987725,call4,-0.041666666666666664,0.31296296296296294,1,0,0,6.252423699999781,colour1,0.37083333333333335,0.08101851851851852,1,0,0,7.803626700000677,number2,True,False,True,36,1,2019_Nov_19_1404,MA_Theta_Exp,3.0.7,60.04494964927724,
video/Experiment/zh_sp07_Dr_Ge_2_NVocInAudio_GlobalThetaInVideo.avi,vocoded,plusVideo,sp07,Dr,Ge,2,3,1,flow/blocks/NVocInAudio_GlobalThetaInVideo_B.csv,,,,,,,,,0,3,3,3,0,22,22,17,,,,,,,,,-0.4305555555555556,0.10740740740740741,1,0,0,5.686300899998969,call2,0.02638888888888889,0.36018518518518516,1,0,0,6.369157700000869,colour1,0.40555555555555556,0.07407407407407407,1,0,0,6.936044199999742,number2,True,True,True,36,1,2019_Nov_19_1404,MA_Theta_Exp,3.0.7,60.04494964927724,
video/Experiment/zh_sp01_Ti_Gr_2_NVocInAudio_GlobalThetaInVideo.avi,vocoded,plusVideo,sp01,Ti,Gr,2,3,1,flow/blocks/NVocInAudio_GlobalThetaInVideo_B.csv,,,,,,,,,0,3,3,3,0,23,23,21,,,,,,,,,-0.36527777777777776,-0.16620370370370371,1,0,0,5.249051600001621,call3,0.05277777777777778,0.12407407407407407,1,0,0,6.170395200000712,colour2,0.37777777777777777,0.12268518518518519,1,0,0,6.681697399999393,number2,True,True,True,36,1,2019_Nov_19_1404,MA_Theta_Exp,3.0.7,60.04494964927724,
video/Experiment/zh_sp01_Ad_Ro_3_NVocInAudio_GlobalThetaInVideo.avi,vocoded,plusVideo,sp01,Ad,Ro,3,3,1,flow/blocks/NVocInAudio_GlobalThetaInVideo_B.csv,,,,,,,,,0,3,3,3,0,24,24,10,,,,,,,,,-0.42083333333333334,0.2726851851851852,1,0,0,5.194146800000453,call1,-0.013888888888888888,-0.1537037037037037,1,0,0,5.775615499998821,colour3,0.42916666666666664,-0.10648148148148148,1,0,0,6.458904200000688,number3,True,True,True,36,1,2019_Nov_19_1404,MA_Theta_Exp,3.0.7,60.04494964927724,
video/Experiment/zh_sp01_Ad_Gr_4_NVocInAudio_GlobalThetaInVideo.avi,vocoded,plusVideo,sp01,Ad,Gr,4,3,1,flow/blocks/NVocInAudio_GlobalThetaInVideo_B.csv,,,,,,,,,0,3,3,3,0,25,25,7,,,,,,,,,-0.4722222222222222,0.3449074074074074,1,0,0,5.315554000000702,call1,0.041666666666666664,0.0587962962962963,1,0,0,5.8989922999990085,colour2,0.4527777777777778,-0.28425925925925927,1,0,0,6.68821299999945,number4,True,True,True,36,1,2019_Nov_19_1404,MA_Theta_Exp,3.0.7,60.04494964927724,
video/Experiment/zh_sp07_Ti_We_1_NVocInAudio_GlobalThetaInVideo.avi,vocoded,plusVideo,sp07,Ti,We,1,3,1,flow/blocks/NVocInAudio_GlobalThetaInVideo_B.csv,,,,,,,,,0,3,3,3,0,26,26,12,,,,,,,,,-0.4152777777777778,-0.14953703703703702,1,0,0,4.852525500000411,call3,-0.07222222222222222,-0.3509259259259259,1,0,0,5.787275399999999,colour4,0.35138888888888886,0.2810185185185185,1,0,0,6.669526300000143,number1,True,True,True,36,1,2019_Nov_19_1404,MA_Theta_Exp,3.0.7,60.04494964927724,
video/Experiment/zh_sp01_Un_Ge_1_NVocInAudio_GlobalThetaInVideo.avi,vocoded,plusVideo,sp01,Un,Ge,1,3,1,flow/blocks/NVocInAudio_GlobalThetaInVideo_B.csv,,,,,,,,,0,3,3,3,0,27,27,0,,,,,,,,,-0.35694444444444445,-0.32175925925925924,1,0,0,5.177451400000791,call4,0.059722222222222225,0.35185185185185186,1,0,0,6.126895299999887,colour1,0.3055555555555556,0.33240740740740743,1,0,0,6.81097150000096,number1,True,True,True,36,1,2019_Nov_19_1404,MA_Theta_Exp,3.0.7,60.04494964927724,
video/Experiment/zh_sp01_Dr_Ro_1_NVocInAudio_GlobalThetaInVideo.avi,vocoded,plusVideo,sp01,Dr,Ro,1,3,1,flow/blocks/NVocInAudio_GlobalThetaInVideo_B.csv,,,,,,,,,0,3,3,3,0,28,28,24,,,,,,,,,-0.4263888888888889,0.07546296296296297,1,0,0,5.117053699999815,call2,0.015277777777777777,-0.08842592592592592,1,0,0,5.7365565999989485,colour3,0.4111111111111111,0.29907407407407405,1,0,0,6.317163100000471,number1,True,True,True,36,1,2019_Nov_19_1404,MA_Theta_Exp,3.0.7,60.04494964927724,
video/Experiment/zh_sp01_Ti_We_3_NVocInAudio_GlobalThetaInVideo.avi,vocoded,plusVideo,sp01,Ti,We,3,3,1,flow/blocks/NVocInAudio_GlobalThetaInVideo_B.csv,,,,,,,,,0,3,3,3,0,29,29,30,,,,,,,,,-0.4027777777777778,-0.09537037037037037,1,0,0,5.2027852999999595,call3,0.005555555555555556,-0.28425925925925927,1,0,0,6.020023099999889,colour4,0.37083333333333335,-0.09675925925925925,1,0,0,6.568943500000387,number3,True,True,True,36,1,2019_Nov_19_1404,MA_Theta_Exp,3.0.7,60.04494964927724,
video/Experiment/zh_sp07_Ad_Ro_2_NVocInAudio_GlobalThetaInVideo.avi,vocoded,plusVideo,sp07,Ad,Ro,2,3,1,flow/blocks/NVocInAudio_GlobalThetaInVideo_B.csv,,,,,,,,,0,3,3,3,0,30,30,25,,,,,,,,,-0.4388888888888889,0.3143518518518518,1,0,0,4.8794952999996895,call1,0.008333333333333333,-0.09814814814814815,1,0,0,5.543161199999304,colour3,0.44027777777777777,0.06435185185185185,1,0,0,6.199324699999124,number2,True,True,True,36,1,2019_Nov_19_1404,MA_Theta_Exp,3.0.7,60.04494964927724,
video/Experiment/zh_sp07_Dr_We_3_NVocInAudio_GlobalThetaInVideo.avi,vocoded,plusVideo,sp07,Dr,We,3,3,1,flow/blocks/NVocInAudio_GlobalThetaInVideo_B.csv,,,,,,,,,0,3,3,3,0,31,31,14,,,,,,,,,-0.4027777777777778,0.08101851851851852,1,0,0,4.841483199999857,call2,0.04583333333333333,-0.26064814814814813,1,0,0,5.422954900001059,colour4,0.42083333333333334,-0.15648148148148147,1,0,0,5.976911300000211,number3,True,True,True,36,1,2019_Nov_19_1404,MA_Theta_Exp,3.0.7,60.04494964927724,
video/Experiment/zh_sp01_Ti_We_4_NoThetaInAudio_NoVideo.avi,noTheta,noVideo,sp01,Ti,We,4,4,4,flow/blocks/NoThetaInAudio_NoVideo_A.csv,,,,,,,,,0,4,4,4,0,0,0,31,,,,,,,,,-0.35138888888888886,-0.17314814814814813,1,0,0,5.194217199999912,call3,0.0763888888888889,-0.36898148148148147,1,0,0,5.879074200000105,colour4,0.43472222222222223,-0.30925925925925923,1,0,0,6.40425359999972,number4,True,True,True,36,1,2019_Nov_19_1404,MA_Theta_Exp,3.0.7,60.04494964927724,
video/Experiment/zh_sp07_Ad_Gr_2_NoThetaInAudio_NoVideo.avi,noTheta,noVideo,sp07,Ad,Gr,2,4,4,flow/blocks/NoThetaInAudio_NoVideo_A.csv,,,,,,,,,0,4,4,4,0,1,1,21,,,,,,,,,-0.4013888888888889,0.37546296296296294,1,0,0,4.365282099999604,call1,0.009722222222222222,0.16435185185185186,1,0,0,4.86692740000035,colour2,0.4027777777777778,0.3726851851851852,1,0,0,5.331134599999132,number1,True,True,False,36,1,2019_Nov_19_1404,MA_Theta_Exp,3.0.7,60.04494964927724,
video/Experiment/zh_sp07_Dr_Ge_4_NoThetaInAudio_NoVideo.avi,noTheta,noVideo,sp07,Dr,Ge,4,4,4,flow/blocks/NoThetaInAudio_NoVideo_A.csv,,,,,,,,,0,4,4,4,0,2,2,19,,,,,,,,,-0.3972222222222222,0.2833333333333333,1,0,0,4.620312999999442,call1,0.009722222222222222,0.3125,1,0,0,5.070295100000294,colour1,0.38333333333333336,-0.3680555555555556,1,0,0,5.703359299999647,number4,False,True,True,36,1,2019_Nov_19_1404,MA_Theta_Exp,3.0.7,60.04494964927724,
video/Experiment/zh_sp07_Un_Ge_3_NoThetaInAudio_NoVideo.avi,noTheta,noVideo,sp07,Un,Ge,3,4,4,flow/blocks/NoThetaInAudio_NoVideo_A.csv,,,,,,,,,0,4,4,4,0,3,3,2,,,,,,,,,-0.4041666666666667,-0.31805555555555554,1,0,0,7.362366999999722,call4,-0.030555555555555555,0.35833333333333334,1,0,0,8.361712300000363,colour1,0.4263888888888889,-0.13472222222222222,1,0,0,9.115422700000636,number3,True,True,True,36,1,2019_Nov_19_1404,MA_Theta_Exp,3.0.7,60.04494964927724,
video/Experiment/zh_sp01_Ad_Gr_1_NoThetaInAudio_NoVideo.avi,noTheta,noVideo,sp01,Ad,Gr,1,4,4,flow/blocks/NoThetaInAudio_NoVideo_A.csv,,,,,,,,,0,4,4,4,0,4,4,4,,,,,,,,,-0.4125,0.3194444444444444,1,0,0,5.280929200000173,call1,0.002777777777777778,0.06527777777777778,1,0,0,5.734872999999425,colour2,0.33194444444444443,0.30694444444444446,1,0,0,6.164146200000687,number1,True,True,True,36,1,2019_Nov_19_1404,MA_Theta_Exp,3.0.7,60.04494964927724,
video/Experiment/zh_sp01_Un_We_4_NoThetaInAudio_NoVideo.avi,noTheta,noVideo,sp01,Un,We,4,4,4,flow/blocks/NoThetaInAudio_NoVideo_A.csv,,,,,,,,,0,4,4,4,0,5,5,15,,,,,,,,,-0.46805555555555556,-0.3375,1,0,0,5.148989399998754,call4,-0.0125,-0.30694444444444446,1,0,0,5.865032099998643,colour4,0.4027777777777778,-0.30416666666666664,1,0,0,6.384783999999854,number4,True,True,True,36,1,2019_Nov_19_1404,MA_Theta_Exp,3.0.7,60.04494964927724,
video/Experiment/zh_sp07_Dr_Gr_2_NoThetaInAudio_NoVideo.avi,noTheta,noVideo,sp07,Dr,Gr,2,4,4,flow/blocks/NoThetaInAudio_NoVideo_A.csv,,,,,,,,,0,4,4,4,0,6,6,5,,,,,,,,,-0.44305555555555554,-0.31805555555555554,1,0,0,4.762970200001291,call4,-0.0375,0.08194444444444444,1,0,0,5.430238900000404,colour2,0.4305555555555556,0.28888888888888886,1,0,0,6.0519650999995065,number1,False,True,False,36,1,2019_Nov_19_1404,MA_Theta_Exp,3.0.7,60.04494964927724,
video/Experiment/zh_sp01_Ad_Ro_1_NoThetaInAudio_NoVideo.avi,noTheta,noVideo,sp01,Ad,Ro,1,4,4,flow/blocks/NoThetaInAudio_NoVideo_A.csv,,,,,,,,,0,4,4,4,0,7,7,8,,,,,,,,,-0.44027777777777777,0.31805555555555554,1,0,0,5.347971099999995,call1,0.025,0.058333333333333334,1,0,0,6.063728299999639,colour2,0.33611111111111114,0.24722222222222223,1,0,0,6.832804800000304,number1,True,False,True,36,1,2019_Nov_19_1404,MA_Theta_Exp,3.0.7,60.04494964927724,
video/Experiment/zh_sp01_Dr_We_2_NoThetaInAudio_NoVideo.avi,noTheta,noVideo,sp01,Dr,We,2,4,4,flow/blocks/NoThetaInAudio_NoVideo_A.csv,,,,,,,,,0,4,4,4,0,8,8,13,,,,,,,,,-0.4,-0.3111111111111111,1,0,0,6.118271900000764,call4,0.009722222222222222,-0.3263888888888889,1,0,0,6.534540099999504,colour4,0.42777777777777776,0.11527777777777778,1,0,0,9.117741000000024,number2,False,True,True,36,1,2019_Nov_19_1404,MA_Theta_Exp,3.0.7,60.04494964927724,
video/Experiment/zh_sp07_Dr_Ro_4_NoThetaInAudio_NoVideo.avi,noTheta,noVideo,sp07,Dr,Ro,4,4,4,flow/blocks/NoThetaInAudio_NoVideo_A.csv,,,,,,,,,0,4,4,4,0,9,9,27,,,,,,,,,-0.3333333333333333,0.28888888888888886,1,0,0,4.434289999999237,call1,-0.027777777777777776,-0.0763888888888889,1,0,0,4.987977099999625,colour3,0.3680555555555556,-0.325,1,0,0,5.48580419999962,number4,False,True,True,36,1,2019_Nov_19_1404,MA_Theta_Exp,3.0.7,60.04494964927724,
video/Experiment/zh_sp07_Ti_Ge_3_NoThetaInAudio_NoVideo.avi,noTheta,noVideo,sp07,Ti,Ge,3,4,4,flow/blocks/NoThetaInAudio_NoVideo_A.csv,,,,,,,,,0,4,4,4,0,10,10,18,,,,,,,,,-0.4263888888888889,-0.06666666666666667,1,0,0,4.312297700000272,call3,0.025,0.35555555555555557,1,0,0,4.908788200000345,colour1,0.35138888888888886,-0.09305555555555556,1,0,0,5.49261419999857,number3,True,True,True,36,1,2019_Nov_19_1404,MA_Theta_Exp,3.0.7,60.04494964927724,
video/Experiment/zh_sp01_Un_Gr_1_NoThetaInAudio_NoVideo.avi,noTheta,noVideo,sp01,Un,Gr,1,4,4,flow/blocks/NoThetaInAudio_NoVideo_A.csv,,,,,,,,,0,4,4,4,0,11,11,20,,,,,,,,,-0.42083333333333334,-0.35138888888888886,1,0,0,6.115673500000412,call4,-0.05555555555555555,0.04583333333333333,1,0,0,6.715467899999567,colour2,0.4166666666666667,0.2875,1,0,0,7.201823100000183,number1,True,True,True,36,1,2019_Nov_19_1404,MA_Theta_Exp,3.0.7,60.04494964927724,
video/Experiment/zh_sp01_Dr_Gr_3_NoThetaInAudio_NoVideo.avi,noTheta,noVideo,sp01,Dr,Gr,3,4,4,flow/blocks/NoThetaInAudio_NoVideo_A.csv,,,,,,,,,0,4,4,4,0,12,12,6,,,,,,,,,-0.36944444444444446,0.09305555555555556,1,0,0,4.854862199999843,call2,0.004166666666666667,0.1,1,0,0,5.27467710000019,colour2,0.33611111111111114,-0.1111111111111111,1,0,0,5.729841000000306,number3,True,True,True,36,1,2019_Nov_19_1404,MA_Theta_Exp,3.0.7,60.04494964927724,
video/Experiment/zh_sp07_Ti_Gr_4_NoThetaInAudio_NoVideo.avi,noTheta,noVideo,sp07,Ti,Gr,4,4,4,flow/blocks/NoThetaInAudio_NoVideo_A.csv,,,,,,,,,0,4,4,4,0,13,13,7,,,,,,,,,-0.37083333333333335,-0.09305555555555556,1,0,0,4.62467469999865,call3,-0.05416666666666667,0.08194444444444444,1,0,0,5.011603099999775,colour2,0.3472222222222222,-0.2763888888888889,1,0,0,5.477919500001008,number4,True,True,True,36,1,2019_Nov_19_1404,MA_Theta_Exp,3.0.7,60.04494964927724,
video/Experiment/zh_sp01_Ti_Ge_1_NoThetaInAudio_NoVideo.avi,noTheta,noVideo,sp01,Ti,Ge,1,4,4,flow/blocks/NoThetaInAudio_NoVideo_A.csv,,,,,,,,,0,4,4,4,0,14,14,16,,,,,,,,,-0.3625,-0.12916666666666668,1,0,0,5.201351800000339,call3,-0.009722222222222222,0.32222222222222224,1,0,0,5.718522699999085,colour1,0.3055555555555556,0.2777777777777778,1,0,0,6.1278241999989405,number1,True,True,True,36,1,2019_Nov_19_1404,MA_Theta_Exp,3.0.7,60.04494964927724,
video/Experiment/zh_sp07_Ti_Ro_2_NoThetaInAudio_NoVideo.avi,noTheta,noVideo,sp07,Ti,Ro,2,4,4,flow/blocks/NoThetaInAudio_NoVideo_A.csv,,,,,,,,,0,4,4,4,0,15,15,25,,,,,,,,,-0.4222222222222222,-0.12916666666666668,1,0,0,4.370923100001164,call3,0.025,-0.12083333333333333,1,0,0,4.772833900000478,colour3,0.3638888888888889,0.2763888888888889,1,0,0,5.325702600001023,number1,True,True,False,36,1,2019_Nov_19_1404,MA_Theta_Exp,3.0.7,60.04494964927724,
video/Experiment/zh_sp07_Un_We_1_NoThetaInAudio_NoVideo.avi,noTheta,noVideo,sp07,Un,We,1,4,4,flow/blocks/NoThetaInAudio_NoVideo_A.csv,,,,,,,,,0,4,4,4,0,16,16,28,,,,,,,,,-0.4791666666666667,-0.36666666666666664,1,0,0,4.259571000000506,call4,0.06666666666666667,-0.29305555555555557,1,0,0,4.743290000000343,colour4,0.3819444444444444,0.3402777777777778,1,0,0,5.3593502000003355,number1,True,True,True,36,1,2019_Nov_19_1404,MA_Theta_Exp,3.0.7,60.04494964927724,
video/Experiment/zh_sp01_Ad_We_1_NoThetaInAudio_NoVideo.avi,noTheta,noVideo,sp01,Ad,We,1,4,4,flow/blocks/NoThetaInAudio_NoVideo_A.csv,,,,,,,,,0,4,4,4,0,17,17,12,,,,,,,,,-0.38472222222222224,0.35,1,0,0,5.01052720000007,call1,-0.034722222222222224,-0.27361111111111114,1,0,0,5.781893499999569,colour4,0.37916666666666665,0.2972222222222222,1,0,0,6.466405999999552,number1,True,True,True,36,1,2019_Nov_19_1404,MA_Theta_Exp,3.0.7,60.04494964927724,
video/Experiment/zh_sp07_Ti_Ge_4_NoThetaInAudio_NoVideo.avi,noTheta,noVideo,sp07,Ti,Ge,4,4,4,flow/blocks/NoThetaInAudio_NoVideo_A.csv,,,,,,,,,0,4,4,4,0,18,18,3,,,,,,,,,-0.44722222222222224,-0.09166666666666666,1,0,0,4.866648200000782,call3,-0.030555555555555555,0.30416666666666664,1,0,0,7.45110989999921,colour1,0.40694444444444444,-0.3,1,0,0,8.146908499998972,number4,True,True,True,36,1,2019_Nov_19_1404,MA_Theta_Exp,3.0.7,60.04494964927724,
video/Experiment/zh_sp07_Ti_Ro_3_NoThetaInAudio_NoVideo.avi,noTheta,noVideo,sp07,Ti,Ro,3,4,4,flow/blocks/NoThetaInAudio_NoVideo_A.csv,,,,,,,,,0,4,4,4,0,19,19,10,,,,,,,,,-0.35833333333333334,-0.18194444444444444,1,0,0,4.436052999999447,call3,-0.022222222222222223,-0.07361111111111111,1,0,0,4.9349115999993955,colour3,0.3680555555555556,-0.08333333333333333,1,0,0,5.3846512000000075,number3,True,True,True,36,1,2019_Nov_19_1404,MA_Theta_Exp,3.0.7,60.04494964927724,
video/Experiment/zh_sp01_Dr_Gr_4_NoThetaInAudio_NoVideo.avi,noTheta,noVideo,sp01,Dr,Gr,4,4,4,flow/blocks/NoThetaInAudio_NoVideo_A.csv,,,,,,,,,0,4,4,4,0,20,20,23,,,,,,,,,-0.39861111111111114,-0.32222222222222224,1,0,0,6.05869999999959,call4,0.05277777777777778,0.07361111111111111,1,0,0,6.6232792000009795,colour2,0.38472222222222224,-0.29583333333333334,1,0,0,7.506351699999868,number4,False,True,True,36,1,2019_Nov_19_1404,MA_Theta_Exp,3.0.7,60.04494964927724,
video/Experiment/zh_sp07_Dr_Ge_1_NoThetaInAudio_NoVideo.avi,noTheta,noVideo,sp07,Dr,Ge,1,4,4,flow/blocks/NoThetaInAudio_NoVideo_A.csv,,,,,,,,,0,4,4,4,0,21,21,0,,,,,,,,,-0.37083333333333335,0.2791666666666667,1,0,0,4.53753560000041,call1,0.05277777777777778,0.29583333333333334,1,0,0,4.927946800000427,colour1,0.3888888888888889,0.31666666666666665,1,0,0,5.325765199999296,number1,False,True,True,36,1,2019_Nov_19_1404,MA_Theta_Exp,3.0.7,60.04494964927724,
video/Experiment/zh_sp01_Ad_Gr_3_NoThetaInAudio_NoVideo.avi,noTheta,noVideo,sp01,Ad,Gr,3,4,4,flow/blocks/NoThetaInAudio_NoVideo_A.csv,,,,,,,,,0,4,4,4,0,22,22,22,,,,,,,,,-0.4111111111111111,0.31666666666666665,1,0,0,5.176943799999208,call1,0.011111111111111112,0.07361111111111111,1,0,0,5.63725759999943,colour2,0.35555555555555557,-0.09861111111111111,1,0,0,6.238225299999613,number3,True,True,True,36,1,2019_Nov_19_1404,MA_Theta_Exp,3.0.7,60.04494964927724,
video/Experiment/zh_sp01_Ad_We_3_NoThetaInAudio_NoVideo.avi,noTheta,noVideo,sp01,Ad,We,3,4,4,flow/blocks/NoThetaInAudio_NoVideo_A.csv,,,,,,,,,0,4,4,4,0,23,23,30,,,,,,,,,-0.44166666666666665,0.3611111111111111,1,0,0,4.905634500000815,call1,-0.013888888888888888,-0.3013888888888889,1,0,0,5.6767001999996864,colour4,0.3902777777777778,-0.14166666666666666,1,0,0,6.459157500001311,number3,True,True,True,36,1,2019_Nov_19_1404,MA_Theta_Exp,3.0.7,60.04494964927724,
video/Experiment/zh_sp01_Un_Ro_1_NoThetaInAudio_NoVideo.avi,noTheta,noVideo,sp01,Un,Ro,1,4,4,flow/blocks/NoThetaInAudio_NoVideo_A.csv,,,,,,,,,0,4,4,4,0,24,24,24,,,,,,,,,-0.40694444444444444,-0.30972222222222223,1,0,0,5.040037499999016,call4,-0.03333333333333333,-0.09166666666666666,1,0,0,5.573509299998477,colour3,0.31805555555555554,0.35555555555555557,1,0,0,6.241357999999309,number1,True,True,True,36,1,2019_Nov_19_1404,MA_Theta_Exp,3.0.7,60.04494964927724,
video/Experiment/zh_sp01_Dr_Ro_2_NoThetaInAudio_NoVideo.avi,noTheta,noVideo,sp01,Dr,Ro,2,4,4,flow/blocks/NoThetaInAudio_NoVideo_A.csv,,,,,,,,,0,4,4,4,0,25,25,9,,,,,,,,,-0.35138888888888886,-0.3333333333333333,1,0,0,5.096300100000008,call4,0.02361111111111111,-0.1361111111111111,1,0,0,5.57658900000024,colour3,0.4125,0.10277777777777777,1,0,0,6.410715800000617,number2,False,True,True,36,1,2019_Nov_19_1404,MA_Theta_Exp,3.0.7,60.04494964927724,
video/Experiment/zh_sp01_Un_Ro_3_NoThetaInAudio_NoVideo.avi,noTheta,noVideo,sp01,Un,Ro,3,4,4,flow/blocks/NoThetaInAudio_NoVideo_A.csv,,,,,,,,,0,4,4,4,0,26,26,26,,,,,,,,,-0.4305555555555556,-0.3263888888888889,1,0,0,4.952057599999534,call4,0.059722222222222225,-0.12083333333333333,1,0,0,5.527546100000109,colour3,0.3819444444444444,-0.10972222222222222,1,0,0,5.988497899999857,number3,True,True,True,36,1,2019_Nov_19_1404,MA_Theta_Exp,3.0.7,60.04494964927724,
video/Experiment/zh_sp07_Ad_We_2_NoThetaInAudio_NoVideo.avi,noTheta,noVideo,sp07,Ad,We,2,4,4,flow/blocks/NoThetaInAudio_NoVideo_A.csv,,,,,,,,,0,4,4,4,0,27,27,29,,,,,,,,,-0.3597222222222222,-0.28888888888888886,1,0,0,9.121840000001612,call4,0.07361111111111111,-0.325,1,0,0,10.201237799999944,colour4,0.3972222222222222,0.3055555555555556,1,0,0,10.89133319999928,number1,False,True,False,36,1,2019_Nov_19_1404,MA_Theta_Exp,3.0.7,60.04494964927724,
video/Experiment/zh_sp07_Ti_Ge_2_NoThetaInAudio_NoVideo.avi,noTheta,noVideo,sp07,Ti,Ge,2,4,4,flow/blocks/NoThetaInAudio_NoVideo_A.csv,,,,,,,,,0,4,4,4,0,28,28,1,,,,,,,,,-0.4166666666666667,-0.14583333333333334,1,0,0,4.5055554999999,call3,-0.008333333333333333,0.25416666666666665,1,0,0,5.218038199998773,colour1,0.3888888888888889,0.3333333333333333,1,0,0,5.656888999999865,number1,True,True,False,36,1,2019_Nov_19_1404,MA_Theta_Exp,3.0.7,60.04494964927724,
video/Experiment/zh_sp01_Un_We_3_NoThetaInAudio_NoVideo.avi,noTheta,noVideo,sp01,Un,We,3,4,4,flow/blocks/NoThetaInAudio_NoVideo_A.csv,,,,,,,,,0,4,4,4,0,29,29,14,,,,,,,,,-0.4125,-0.3347222222222222,1,0,0,5.730958800000735,call4,-0.013888888888888888,-0.3125,1,0,0,6.148026499999105,colour4,0.37222222222222223,-0.044444444444444446,1,0,0,6.6862290000008215,number3,True,True,True,36,1,2019_Nov_19_1404,MA_Theta_Exp,3.0.7,60.04494964927724,
video/Experiment/zh_sp07_Ad_Ro_4_NoThetaInAudio_NoVideo.avi,noTheta,noVideo,sp07,Ad,Ro,4,4,4,flow/blocks/NoThetaInAudio_NoVideo_A.csv,,,,,,,,,0,4,4,4,0,30,30,11,,,,,,,,,-0.4486111111111111,0.2833333333333333,1,0,0,5.95901640000011,call1,-0.009722222222222222,-0.043055555555555555,1,0,0,6.793044800000644,colour3,0.4305555555555556,-0.2861111111111111,1,0,0,7.38109760000043,number4,True,True,True,36,1,2019_Nov_19_1404,MA_Theta_Exp,3.0.7,60.04494964927724,
video/Experiment/zh_sp07_Un_Ge_2_NoThetaInAudio_NoVideo.avi,noTheta,noVideo,sp07,Un,Ge,2,4,4,flow/blocks/NoThetaInAudio_NoVideo_A.csv,,,,,,,,,0,4,4,4,0,31,31,17,,,,,,,,,-0.4222222222222222,0.35138888888888886,1,0,0,4.782831700000315,call1,-0.02361111111111111,0.2902777777777778,1,0,0,5.301531700000851,colour1,0.3625,0.33611111111111114,1,0,0,6.019676600000821,number1,False,True,False,36,1,2019_Nov_19_1404,MA_Theta_Exp,3.0.7,60.04494964927724,
video/Experiment/zh_sp01_Un_Ge_1_NVocInAudio_GlobalThetaInVideo.avi,vocoded,plusVideo,sp01,Un,Ge,1,0,1,flow/blocks/NVocInAudio_GlobalThetaInVideo_B.csv,,,,,,,,,,,,,,,,,0,0,0,0,0,0,0,0,-0.3958333333333333,0.14583333333333334,1,0,0,5.492210200000045,call2,-0.0375,0.24166666666666667,1,0,0,6.4425826000006055,colour1,0.4263888888888889,0.29444444444444445,1,0,0,7.310995899999398,number1,False,True,True,36,1,2019_Nov_19_1404,MA_Theta_Exp,3.0.7,60.04494964927724,
video/Experiment/zh_sp07_Ti_We_1_NVocInAudio_GlobalThetaInVideo.avi,vocoded,plusVideo,sp07,Ti,We,1,0,1,flow/blocks/NVocInAudio_GlobalThetaInVideo_B.csv,,,,,,,,,,,,,,,,,0,0,0,0,0,1,1,12,-0.4097222222222222,-0.1125,1,0,0,4.280377800001588,call3,-0.011111111111111112,-0.3111111111111111,1,0,0,4.79962549999982,colour4,0.36666666666666664,0.24722222222222223,1,0,0,5.316116399999373,number1,True,True,True,36,1,2019_Nov_19_1404,MA_Theta_Exp,3.0.7,60.04494964927724,
video/Experiment/zh_sp07_Dr_Gr_1_NVocInAudio_GlobalThetaInVideo.avi,vocoded,plusVideo,sp07,Dr,Gr,1,0,1,flow/blocks/NVocInAudio_GlobalThetaInVideo_B.csv,,,,,,,,,,,,,,,,,0,0,0,0,0,2,2,20,-0.3680555555555556,0.12083333333333333,1,0,0,4.618454999999813,call2,-0.075,0.13333333333333333,1,0,0,5.19742579999911,colour2,0.38472222222222224,0.3333333333333333,1,0,0,6.266930199999479,number1,True,True,True,36,1,2019_Nov_19_1404,MA_Theta_Exp,3.0.7,60.04494964927724,
video/Experiment/zh_sp01_Dr_We_1_NVocInAudio_GlobalThetaInVideo.avi,vocoded,plusVideo,sp01,Dr,We,1,0,1,flow/blocks/NVocInAudio_GlobalThetaInVideo_B.csv,,,,,,,,,,,,,,,,,0,0,0,0,0,3,3,28,-0.45694444444444443,0.11805555555555555,1,0,0,5.673881799999435,call2,0.015277777777777777,-0.28888888888888886,1,0,0,6.407330200001525,colour4,0.38472222222222224,0.3277777777777778,1,0,0,7.04646159999902,number1,True,True,True,36,1,2019_Nov_19_1404,MA_Theta_Exp,3.0.7,60.04494964927724,
video/Experiment/zh_sp01_Ti_Gr_2_NVocInAudio_GlobalThetaInVideo.avi,vocoded,plusVideo,sp01,Ti,Gr,2,0,1,flow/blocks/NVocInAudio_GlobalThetaInVideo_B.csv,,,,,,,,,,,,,,,,,0,0,0,0,0,4,4,21,-0.45416666666666666,-0.08472222222222223,1,0,0,5.103791899999123,call3,-0.034722222222222224,0.08888888888888889,1,0,0,5.550235799999427,colour2,0.4,0.06805555555555555,1,0,0,6.036141800001133,number2,True,True,True,36,1,2019_Nov_19_1404,MA_Theta_Exp,3.0.7,60.04494964927724,
video/Experiment/zh_sp01_Ad_Gr_4_NVocInAudio_GlobalThetaInVideo.avi,vocoded,plusVideo,sp01,Ad,Gr,4,0,1,flow/blocks/NVocInAudio_GlobalThetaInVideo_B.csv,,,,,,,,,,,,,,,,,0,0,0,0,0,5,5,7,-0.3638888888888889,0.2791666666666667,1,0,0,5.286317199999758,call1,0.001388888888888889,0.15,1,0,0,5.802407500001209,colour2,0.4638888888888889,-0.30833333333333335,1,0,0,6.536182599998938,number4,True,True,True,36,1,2019_Nov_19_1404,MA_Theta_Exp,3.0.7,60.04494964927724,
video/Experiment/zh_sp01_Ti_Gr_3_NVocInAudio_GlobalThetaInVideo.avi,vocoded,plusVideo,sp01,Ti,Gr,3,0,1,flow/blocks/NVocInAudio_GlobalThetaInVideo_B.csv,,,,,,,,,,,,,,,,,0,0,0,0,0,6,6,22,-0.3472222222222222,-0.12222222222222222,1,0,0,4.7749452000007295,call3,0.08055555555555556,0.09444444444444444,1,0,0,5.293579000001046,colour2,0.37777777777777777,-0.09444444444444444,1,0,0,5.742079999999987,number3,True,True,True,36,1,2019_Nov_19_1404,MA_Theta_Exp,3.0.7,60.04494964927724,
video/Experiment/zh_sp07_Un_Gr_2_NVocInAudio_GlobalThetaInVideo.avi,vocoded,plusVideo,sp07,Un,Gr,2,0,1,flow/blocks/NVocInAudio_GlobalThetaInVideo_B.csv,,,,,,,,,,,,,,,,,0,0,0,0,0,7,7,5,-0.3597222222222222,-0.2791666666666667,1,0,0,6.267963000000236,call4,0.030555555555555555,0.075,1,0,0,6.765699100000347,colour2,0.3888888888888889,0.07222222222222222,1,0,0,7.14677920000031,number2,True,True,True,36,1,2019_Nov_19_1404,MA_Theta_Exp,3.0.7,60.04494964927724,
video/Experiment/zh_sp07_Dr_Ro_3_NVocInAudio_GlobalThetaInVideo.avi,vocoded,plusVideo,sp07,Dr,Ro,3,0,1,flow/blocks/NVocInAudio_GlobalThetaInVideo_B.csv,,,,,,,,,,,,,,,,,0,0,0,0,0,8,8,26,-0.43472222222222223,0.05694444444444444,1,0,0,4.641233700000157,call2,0.0625,-0.08472222222222223,1,0,0,5.126274499998544,colour3,0.4888888888888889,-0.13472222222222222,1,0,0,5.523877800000264,number3,True,True,True,36,1,2019_Nov_19_1404,MA_Theta_Exp,3.0.7,60.04494964927724,
video/Experiment/zh_sp07_Dr_We_4_NVocInAudio_GlobalThetaInVideo.avi,vocoded,plusVideo,sp07,Dr,We,4,0,1,flow/blocks/NVocInAudio_GlobalThetaInVideo_B.csv,,,,,,,,,,,,,,,,,0,0,0,0,0,9,9,15,-0.3638888888888889,0.07222222222222222,1,0,0,4.62994450000042,call2,-0.04722222222222222,-0.3111111111111111,1,0,0,5.326866900000823,colour4,0.4166666666666667,-0.37083333333333335,1,0,0,6.141398499999923,number4,True,True,True,36,1,2019_Nov_19_1404,MA_Theta_Exp,3.0.7,60.04494964927724,
video/Experiment/zh_sp07_Un_Ro_2_NVocInAudio_GlobalThetaInVideo.avi,vocoded,plusVideo,sp07,Un,Ro,2,0,1,flow/blocks/NVocInAudio_GlobalThetaInVideo_B.csv,,,,,,,,,,,,,,,,,0,0,0,0,0,10,10,9,-0.31805555555555554,-0.29444444444444445,1,0,0,4.442264699999214,call4,0.0375,-0.12361111111111112,1,0,0,4.991279500000019,colour3,0.4097222222222222,0.18472222222222223,1,0,0,5.492354299998624,number2,True,True,True,36,1,2019_Nov_19_1404,MA_Theta_Exp,3.0.7,60.04494964927724,
video/Experiment/zh_sp07_Un_We_2_NVocInAudio_GlobalThetaInVideo.avi,vocoded,plusVideo,sp07,Un,We,2,0,1,flow/blocks/NVocInAudio_GlobalThetaInVideo_B.csv,,,,,,,,,,,,,,,,,0,0,0,0,0,11,11,13,-0.39305555555555555,-0.3277777777777778,1,0,0,4.3017789000005,call4,-0.06111111111111111,-0.35555555555555557,1,0,0,4.75230190000002,colour4,0.34305555555555556,0.041666666666666664,1,0,0,5.301618999999846,number2,True,True,True,36,1,2019_Nov_19_1404,MA_Theta_Exp,3.0.7,60.04494964927724,
video/Experiment/zh_sp01_Ad_Ge_2_NVocInAudio_GlobalThetaInVideo.avi,vocoded,plusVideo,sp01,Ad,Ge,2,0,1,flow/blocks/NVocInAudio_GlobalThetaInVideo_B.csv,,,,,,,,,,,,,,,,,0,0,0,0,0,12,12,1,-0.42083333333333334,0.3263888888888889,1,0,0,5.139798299998802,call1,-0.011111111111111112,0.33611111111111114,1,0,0,5.623680900000181,colour1,0.46805555555555556,0.016666666666666666,1,0,0,6.259113399999478,number2,True,True,True,36,1,2019_Nov_19_1404,MA_Theta_Exp,3.0.7,60.04494964927724,
video/Experiment/zh_sp01_Ad_Ge_3_NVocInAudio_GlobalThetaInVideo.avi,vocoded,plusVideo,sp01,Ad,Ge,3,0,1,flow/blocks/NVocInAudio_GlobalThetaInVideo_B.csv,,,,,,,,,,,,,,,,,0,0,0,0,0,13,13,18,-0.4027777777777778,0.27361111111111114,1,0,0,5.015938799999276,call1,-0.020833333333333332,0.30416666666666664,1,0,0,5.490181900000607,colour1,0.4305555555555556,-0.15694444444444444,1,0,0,6.266193999999814,number3,True,True,True,36,1,2019_Nov_19_1404,MA_Theta_Exp,3.0.7,60.04494964927724,
video/Experiment/zh_sp01_Ti_Gr_1_NVocInAudio_GlobalThetaInVideo.avi,vocoded,plusVideo,sp01,Ti,Gr,1,0,1,flow/blocks/NVocInAudio_GlobalThetaInVideo_B.csv,,,,,,,,,,,,,,,,,0,0,0,0,0,14,14,4,-0.4263888888888889,-0.15,1,0,0,5.483073199999126,call3,0.018055555555555554,0.07361111111111111,1,0,0,7.049034499999834,colour2,0.41388888888888886,0.31805555555555554,1,0,0,8.401047800000015,number1,True,True,True,36,1,2019_Nov_19_1404,MA_Theta_Exp,3.0.7,60.04494964927724,
video/Experiment/zh_sp07_Ti_We_2_NVocInAudio_GlobalThetaInVideo.avi,vocoded,plusVideo,sp07,Ti,We,2,0,1,flow/blocks/NVocInAudio_GlobalThetaInVideo_B.csv,,,,,,,,,,,,,,,,,0,0,0,0,0,15,15,29,-0.38472222222222224,-0.13472222222222222,1,0,0,4.901704399999289,call3,-0.001388888888888889,-0.3597222222222222,1,0,0,6.529745800000455,colour4,0.48055555555555557,0.11527777777777778,1,0,0,7.344889399999374,number2,True,True,True,36,1,2019_Nov_19_1404,MA_Theta_Exp,3.0.7,60.04494964927724,
video/Experiment/zh_sp07_Dr_We_3_NVocInAudio_GlobalThetaInVideo.avi,vocoded,plusVideo,sp07,Dr,We,3,0,1,flow/blocks/NVocInAudio_GlobalThetaInVideo_B.csv,,,,,,,,,,,,,,,,,0,0,0,0,0,16,16,14,-0.41388888888888886,0.08472222222222223,1,0,0,4.4530536999991455,call2,-0.025,-0.33055555555555555,1,0,0,5.4700126000007,colour4,0.39305555555555555,-0.1111111111111111,1,0,0,5.960817899998801,number3,True,True,True,36,1,2019_Nov_19_1404,MA_Theta_Exp,3.0.7,60.04494964927724,
video/Experiment/zh_sp07_Dr_Ge_2_NVocInAudio_GlobalThetaInVideo.avi,vocoded,plusVideo,sp07,Dr,Ge,2,0,1,flow/blocks/NVocInAudio_GlobalThetaInVideo_B.csv,,,,,,,,,,,,,,,,,0,0,0,0,0,17,17,17,-0.3861111111111111,0.12361111111111112,1,0,0,5.007255900000018,call2,0.013888888888888888,0.30972222222222223,1,0,0,5.593299299998762,colour1,0.4236111111111111,0.04861111111111111,1,0,0,6.573120799999742,number2,True,True,True,36,1,2019_Nov_19_1404,MA_Theta_Exp,3.0.7,60.04494964927724,
video/Experiment/zh_sp07_Un_Gr_3_NVocInAudio_GlobalThetaInVideo.avi,vocoded,plusVideo,sp07,Un,Gr,3,0,1,flow/blocks/NVocInAudio_GlobalThetaInVideo_B.csv,,,,,,,,,,,,,,,,,0,0,0,0,0,18,18,6,-0.3527777777777778,-0.375,1,0,0,5.696101400000771,call4,0.041666666666666664,0.1,1,0,0,6.325353800000812,colour2,0.4,-0.13055555555555556,1,0,0,6.926733600001171,number3,True,True,True,36,1,2019_Nov_19_1404,MA_Theta_Exp,3.0.7,60.04494964927724,
video/Experiment/zh_sp01_Dr_Ro_1_NVocInAudio_GlobalThetaInVideo.avi,vocoded,plusVideo,sp01,Dr,Ro,1,0,1,flow/blocks/NVocInAudio_GlobalThetaInVideo_B.csv,,,,,,,,,,,,,,,,,0,0,0,0,0,19,19,24,-0.4388888888888889,0.10972222222222222,1,0,0,5.252168000000893,call2,0.03194444444444444,-0.13194444444444445,1,0,0,5.943225600000005,colour3,0.3861111111111111,0.3263888888888889,1,0,0,7.474399400000038,number1,True,True,True,36,1,2019_Nov_19_1404,MA_Theta_Exp,3.0.7,60.04494964927724,
video/Experiment/zh_sp01_Dr_Ge_3_NVocInAudio_GlobalThetaInVideo.avi,vocoded,plusVideo,sp01,Dr,Ge,3,0,1,flow/blocks/NVocInAudio_GlobalThetaInVideo_B.csv,,,,,,,,,,,,,,,,,0,0,0,0,0,20,20,2,-0.4125,0.10138888888888889,1,0,0,5.038916399998925,call2,-0.013888888888888888,0.2569444444444444,1,0,0,5.604802399999244,colour1,0.3458333333333333,-0.1625,1,0,0,6.210299500000474,number3,True,True,True,36,1,2019_Nov_19_1404,MA_Theta_Exp,3.0.7,60.04494964927724,
video/Experiment/zh_sp01_Ti_We_3_NVocInAudio_GlobalThetaInVideo.avi,vocoded,plusVideo,sp01,Ti,We,3,0,1,flow/blocks/NVocInAudio_GlobalThetaInVideo_B.csv,,,,,,,,,,,,,,,,,0,0,0,0,0,21,21,30,-0.3902777777777778,-0.1111111111111111,1,0,0,4.885831399999006,call3,0.030555555555555555,-0.325,1,0,0,5.35196950000136,colour4,0.3763888888888889,-0.12222222222222222,1,0,0,5.840397500000108,number3,True,True,True,36,1,2019_Nov_19_1404,MA_Theta_Exp,3.0.7,60.04494964927724,
video/Experiment/zh_sp01_Ad_Ro_3_NVocInAudio_GlobalThetaInVideo.avi,vocoded,plusVideo,sp01,Ad,Ro,3,0,1,flow/blocks/NVocInAudio_GlobalThetaInVideo_B.csv,,,,,,,,,,,,,,,,,0,0,0,0,0,22,22,10,-0.4,0.2986111111111111,1,0,0,4.914325399999143,call1,-0.03333333333333333,-0.08472222222222223,1,0,0,5.486140400000295,colour3,0.4027777777777778,-0.10694444444444444,1,0,0,5.916460800001005,number3,True,True,True,36,1,2019_Nov_19_1404,MA_Theta_Exp,3.0.7,60.04494964927724,
video/Experiment/zh_sp07_Ad_Ro_2_NVocInAudio_GlobalThetaInVideo.avi,vocoded,plusVideo,sp07,Ad,Ro,2,0,1,flow/blocks/NVocInAudio_GlobalThetaInVideo_B.csv,,,,,,,,,,,,,,,,,0,0,0,0,0,23,23,25,-0.41805555555555557,0.2791666666666667,1,0,0,4.604678499999864,call1,-0.06388888888888888,-0.06666666666666667,1,0,0,5.1021142000008695,colour3,0.41388888888888886,0.12638888888888888,1,0,0,5.572611800000232,number2,True,True,True,36,1,2019_Nov_19_1404,MA_Theta_Exp,3.0.7,60.04494964927724,
video/Experiment/zh_sp01_Ti_Ro_4_NVocInAudio_GlobalThetaInVideo.avi,vocoded,plusVideo,sp01,Ti,Ro,4,0,1,flow/blocks/NVocInAudio_GlobalThetaInVideo_B.csv,,,,,,,,,,,,,,,,,0,0,0,0,0,24,24,11,-0.3680555555555556,-0.11805555555555555,1,0,0,4.970722699999897,call3,0.02361111111111111,-0.10694444444444444,1,0,0,5.653994500000408,colour3,0.4027777777777778,-0.35694444444444445,1,0,0,6.365237899999556,number4,True,True,True,36,1,2019_Nov_19_1404,MA_Theta_Exp,3.0.7,60.04494964927724,
video/Experiment/zh_sp07_Ad_Ge_1_NVocInAudio_GlobalThetaInVideo.avi,vocoded,plusVideo,sp07,Ad,Ge,1,0,1,flow/blocks/NVocInAudio_GlobalThetaInVideo_B.csv,,,,,,,,,,,,,,,,,0,0,0,0,0,25,25,16,-0.4152777777777778,0.2916666666666667,1,0,0,4.568720299999768,call1,-0.04583333333333333,0.2916666666666667,1,0,0,5.077697400000034,colour1,0.35694444444444445,0.2972222222222222,1,0,0,5.842304100000547,number1,True,True,True,36,1,2019_Nov_19_1404,MA_Theta_Exp,3.0.7,60.04494964927724,
video/Experiment/zh_sp01_Ad_Ge_4_NVocInAudio_GlobalThetaInVideo.avi,vocoded,plusVideo,sp01,Ad,Ge,4,0,1,flow/blocks/NVocInAudio_GlobalThetaInVideo_B.csv,,,,,,,,,,,,,,,,,0,0,0,0,0,26,26,3,-0.3111111111111111,0.3013888888888889,1,0,0,4.874932499998977,call1,0.05,0.25972222222222224,1,0,0,5.282847200000106,colour1,0.39305555555555555,-0.30833333333333335,1,0,0,6.002966100000776,number4,True,True,True,36,1,2019_Nov_19_1404,MA_Theta_Exp,3.0.7,60.04494964927724,
video/Experiment/zh_sp01_Un_Gr_4_NVocInAudio_GlobalThetaInVideo.avi,vocoded,plusVideo,sp01,Un,Gr,4,0,1,flow/blocks/NVocInAudio_GlobalThetaInVideo_B.csv,,,,,,,,,,,,,,,,,0,0,0,0,0,27,27,23,-0.375,-0.3013888888888889,1,0,0,6.540941499999462,call4,-0.018055555555555554,0.0625,1,0,0,7.073896199999581,colour2,0.3527777777777778,-0.3736111111111111,1,0,0,7.6128394000006665,number4,True,True,True,36,1,2019_Nov_19_1404,MA_Theta_Exp,3.0.7,60.04494964927724,
video/Experiment/zh_sp07_Ti_Ro_1_NVocInAudio_GlobalThetaInVideo.avi,vocoded,plusVideo,sp07,Ti,Ro,1,0,1,flow/blocks/NVocInAudio_GlobalThetaInVideo_B.csv,,,,,,,,,,,,,,,,,0,0,0,0,0,28,28,8,-0.38472222222222224,-0.09583333333333334,1,0,0,5.014816799999608,call3,0.0125,-0.12638888888888888,1,0,0,5.508333899999343,colour3,0.38472222222222224,0.3125,1,0,0,6.0818316000004415,number1,True,True,True,36,1,2019_Nov_19_1404,MA_Theta_Exp,3.0.7,60.04494964927724,
video/Experiment/zh_sp01_Un_Ro_4_NVocInAudio_GlobalThetaInVideo.avi,vocoded,plusVideo,sp01,Un,Ro,4,0,1,flow/blocks/NVocInAudio_GlobalThetaInVideo_B.csv,,,,,,,,,,,,,,,,,0,0,0,0,0,29,29,27,-0.4083333333333333,-0.30416666666666664,1,0,0,5.483340200000384,call4,0.05138888888888889,-0.08888888888888889,1,0,0,5.949009500000102,colour3,0.45555555555555555,-0.2875,1,0,0,6.59935189999851,number4,True,True,True,36,1,2019_Nov_19_1404,MA_Theta_Exp,3.0.7,60.04494964927724,
video/Experiment/zh_sp07_Ad_We_4_NVocInAudio_GlobalThetaInVideo.avi,vocoded,plusVideo,sp07,Ad,We,4,0,1,flow/blocks/NVocInAudio_GlobalThetaInVideo_B.csv,,,,,,,,,,,,,,,,,0,0,0,0,0,30,30,31,-0.44166666666666665,0.2986111111111111,1,0,0,4.644870600001013,call1,0.011111111111111112,-0.29305555555555557,1,0,0,5.361568600001192,colour4,0.43472222222222223,-0.3638888888888889,1,0,0,6.13227949999964,number4,True,True,True,36,1,2019_Nov_19_1404,MA_Theta_Exp,3.0.7,60.04494964927724,
video/Experiment/zh_sp07_Un_Ge_4_NVocInAudio_GlobalThetaInVideo.avi,vocoded,plusVideo,sp07,Un,Ge,4,0,1,flow/blocks/NVocInAudio_GlobalThetaInVideo_B.csv,,,,,,,,,,,,,,,,,0,0,0,0,0,31,31,19,-0.38472222222222224,-0.37916666666666665,1,0,0,4.862510300001304,call4,-0.030555555555555555,0.35138888888888886,1,0,0,5.499637000000803,colour1,0.4375,-0.3486111111111111,1,0,0,6.16695559999971,number4,True,True,True,36,1,2019_Nov_19_1404,MA_Theta_Exp,3.0.7,60.04494964927724,
video/Experiment/zh_sp07_Ti_Ge_2_NoThetaInAudio_NoVideo.avi,noTheta,noVideo,sp07,Ti,Ge,2,1,4,flow/blocks/NoThetaInAudio_NoVideo_A.csv,,,,,,,,,,,,,,,,,0,1,1,1,0,0,0,1,-0.3625,-0.08611111111111111,1,0,0,4.804050400000051,call3,-0.041666666666666664,0.2513888888888889,1,0,0,5.298219899999822,colour1,0.39444444444444443,0.2902777777777778,1,0,0,5.703370100000029,number1,True,True,False,36,1,2019_Nov_19_1404,MA_Theta_Exp,3.0.7,60.04494964927724,
video/Experiment/zh_sp01_Ad_We_3_NoThetaInAudio_NoVideo.avi,noTheta,noVideo,sp01,Ad,We,3,1,4,flow/blocks/NoThetaInAudio_NoVideo_A.csv,,,,,,,,,,,,,,,,,0,1,1,1,0,1,1,30,-0.3527777777777778,0.32222222222222224,1,0,0,5.007028800000626,call1,-0.04722222222222222,-0.31666666666666665,1,0,0,5.7074049999991985,colour4,0.37083333333333335,-0.1,1,0,0,6.094553099999757,number3,True,True,True,36,1,2019_Nov_19_1404,MA_Theta_Exp,3.0.7,60.04494964927724,
video/Experiment/zh_sp07_Ad_Gr_2_NoThetaInAudio_NoVideo.avi,noTheta,noVideo,sp07,Ad,Gr,2,1,4,flow/blocks/NoThetaInAudio_NoVideo_A.csv,,,,,,,,,,,,,,,,,0,1,1,1,0,2,2,21,-0.39305555555555555,0.33611111111111114,1,0,0,4.677202100001523,call1,0.04583333333333333,0.058333333333333334,1,0,0,5.093953399999009,colour2,0.3819444444444444,0.32916666666666666,1,0,0,5.513842000000295,number1,True,True,False,36,1,2019_Nov_19_1404,MA_Theta_Exp,3.0.7,60.04494964927724,
video/Experiment/zh_sp01_Ad_Gr_1_NoThetaInAudio_NoVideo.avi,noTheta,noVideo,sp01,Ad,Gr,1,1,4,flow/blocks/NoThetaInAudio_NoVideo_A.csv,,,,,,,,,,,,,,,,,0,1,1,1,0,3,3,4,-0.3472222222222222,0.34444444444444444,1,0,0,5.233902699999817,call1,0.013888888888888888,0.14444444444444443,1,0,0,5.800459800000681,colour2,0.4722222222222222,0.35833333333333334,1,0,0,6.270248200000424,number1,True,True,True,36,1,2019_Nov_19_1404,MA_Theta_Exp,3.0.7,60.04494964927724,
video/Experiment/zh_sp01_Un_Ro_3_NoThetaInAudio_NoVideo.avi,noTheta,noVideo,sp01,Un,Ro,3,1,4,flow/blocks/NoThetaInAudio_NoVideo_A.csv,,,,,,,,,,,,,,,,,0,1,1,1,0,4,4,26,-0.3638888888888889,-0.28703703703703703,1,0,0,5.280381200000193,call4,0.059722222222222225,-0.08425925925925926,1,0,0,5.893604299999424,colour3,0.37777777777777777,-0.1037037037037037,1,0,0,6.399687400000403,number3,True,True,True,36,1,2019_Nov_19_1404,MA_Theta_Exp,3.0.7,60.04494964927724,
video/Experiment/zh_sp07_Un_We_1_NoThetaInAudio_NoVideo.avi,noTheta,noVideo,sp07,Un,We,1,1,4,flow/blocks/NoThetaInAudio_NoVideo_A.csv,,,,,,,,,,,,,,,,,0,1,1,1,0,5,5,28,-0.3527777777777778,-0.3189814814814815,1,0,0,4.382204999999885,call4,0.03611111111111111,-0.3800925925925926,1,0,0,4.796234999999797,colour4,0.39444444444444443,0.31712962962962965,1,0,0,5.5312446000007185,number1,True,True,True,36,1,2019_Nov_19_1404,MA_Theta_Exp,3.0.7,60.04494964927724,
video/Experiment/zh_sp07_Ti_Ge_4_NoThetaInAudio_NoVideo.avi,noTheta,noVideo,sp07,Ti,Ge,4,1,4,flow/blocks/NoThetaInAudio_NoVideo_A.csv,,,,,,,,,,,,,,,,,0,1,1,1,0,6,6,3,-0.41944444444444445,-0.10925925925925926,1,0,0,5.177952099998947,call3,0.044444444444444446,0.31712962962962965,1,0,0,5.830671599998823,colour1,0.3638888888888889,-0.2175925925925926,1,0,0,6.5528801000000385,number4,True,True,True,36,1,2019_Nov_19_1404,MA_Theta_Exp,3.0.7,60.04494964927724,
video/Experiment/zh_sp01_Ad_Ro_1_NoThetaInAudio_NoVideo.avi,noTheta,noVideo,sp01,Ad,Ro,1,1,4,flow/blocks/NoThetaInAudio_NoVideo_A.csv,,,,,,,,,,,,,,,,,0,1,1,1,0,7,7,8,-0.38472222222222224,0.33240740740740743,1,0,0,5.219342899999901,call1,-0.059722222222222225,-0.06759259259259259,1,0,0,5.737588500000129,colour3,0.39861111111111114,0.32685185185185184,1,0,0,6.240314300001046,number1,True,True,True,36,1,2019_Nov_19_1404,MA_Theta_Exp,3.0.7,60.04494964927724,
video/Experiment/zh_sp01_Ti_Ge_1_NoThetaInAudio_NoVideo.avi,noTheta,noVideo,sp01,Ti,Ge,1,1,4,flow/blocks/NoThetaInAudio_NoVideo_A.csv,,,,,,,,,,,,,,,,,0,1,1,1,0,8,8,16,-0.42916666666666664,-0.11342592592592593,1,0,0,5.4660990000011225,call3,-0.008333333333333333,0.32407407407407407,1,0,0,6.063150800000585,colour1,0.4305555555555556,0.3337962962962963,1,0,0,6.479688499999611,number1,True,True,True,36,1,2019_Nov_19_1404,MA_Theta_Exp,3.0.7,60.04494964927724,
video/Experiment/zh_sp07_Dr_Ge_4_NoThetaInAudio_NoVideo.avi,noTheta,noVideo,sp07,Dr,Ge,4,1,4,flow/blocks/NoThetaInAudio_NoVideo_A.csv,,,,,,,,,,,,,,,,,0,1,1,1,0,9,9,19,-0.38333333333333336,0.31851851851851853,1,0,0,6.119993700000123,call1,0.002777777777777778,0.33935185185185185,1,0,0,6.574410799999896,colour1,0.4125,-0.32037037037037036,1,0,0,7.310085299999628,number4,False,True,True,36,1,2019_Nov_19_1404,MA_Theta_Exp,3.0.7,60.04494964927724,
video/Experiment/zh_sp01_Ad_Gr_3_NoThetaInAudio_NoVideo.avi,noTheta,noVideo,sp01,Ad,Gr,3,1,4,flow/blocks/NoThetaInAudio_NoVideo_A.csv,,,,,,,,,,,,,,,,,0,1,1,1,0,10,10,22,-0.40555555555555556,0.29212962962962963,1,0,0,6.862733500000104,call1,-0.009722222222222222,0.1574074074074074,1,0,0,7.250761100000091,colour2,0.3680555555555556,-0.10231481481481482,1,0,0,8.214569700001448,number3,True,True,True,36,1,2019_Nov_19_1404,MA_Theta_Exp,3.0.7,60.04494964927724,
video/Experiment/zh_sp07_Ti_Ro_2_NoThetaInAudio_NoVideo.avi,noTheta,noVideo,sp07,Ti,Ro,2,1,4,flow/blocks/NoThetaInAudio_NoVideo_A.csv,,,,,,,,,,,,,,,,,0,1,1,1,0,11,11,25,-0.4097222222222222,-0.13148148148148148,1,0,0,4.848778199999288,call3,-0.030555555555555555,-0.0912037037037037,1,0,0,5.54165920000014,colour3,0.3888888888888889,0.287962962962963,1,0,0,6.292194999999992,number1,True,True,False,36,1,2019_Nov_19_1404,MA_Theta_Exp,3.0.7,60.04494964927724,
video/Experiment/zh_sp01_Un_Ro_1_NoThetaInAudio_NoVideo.avi,noTheta,noVideo,sp01,Un,Ro,1,1,4,flow/blocks/NoThetaInAudio_NoVideo_A.csv,,,,,,,,,,,,,,,,,0,1,1,1,0,12,12,24,-0.3625,-0.30648148148148147,1,0,0,6.9117771000001085,call4,0.011111111111111112,-0.13564814814814816,1,0,0,7.5065837999991345,colour3,0.32222222222222224,0.3365740740740741,1,0,0,8.035983199999464,number1,True,True,True,36,1,2019_Nov_19_1404,MA_Theta_Exp,3.0.7,60.04494964927724,
video/Experiment/zh_sp07_Ti_Ro_3_NoThetaInAudio_NoVideo.avi,noTheta,noVideo,sp07,Ti,Ro,3,1,4,flow/blocks/NoThetaInAudio_NoVideo_A.csv,,,,,,,,,,,,,,,,,0,1,1,1,0,13,13,10,-0.38472222222222224,-0.1814814814814815,1,0,0,4.51521590000084,call3,0.09027777777777778,-0.10787037037037037,1,0,0,4.951362100000551,colour3,0.4527777777777778,-0.11898148148148148,1,0,0,6.3648328999988735,number3,True,True,True,36,1,2019_Nov_19_1404,MA_Theta_Exp,3.0.7,60.04494964927724,
