videoFile,condition,video,speaker,callSign,colour,number,seq,id,block,exp.thisRepN,exp.thisTrialN,exp.thisN,exp.thisIndex,training.thisRepN,training.thisTrialN,training.thisN,training.thisIndex,firstHalf.thisRepN,firstHalf.thisTrialN,firstHalf.thisN,firstHalf.thisIndex,blocksA.thisRepN,blocksA.thisTrialN,blocksA.thisN,blocksA.thisIndex,secondHalf.thisRepN,secondHalf.thisTrialN,secondHalf.thisN,secondHalf.thisIndex,blocksB.thisRepN,blocksB.thisTrialN,blocksB.thisN,blocksB.thisIndex,mouseClickOnCall.x,mouseClickOnCall.y,mouseClickOnCall.leftButton,mouseClickOnCall.midButton,mouseClickOnCall.rightButton,mouseClickOnCall.time,mouseClickOnCall.clicked_name,mouseClickOnColour.x,mouseClickOnColour.y,mouseClickOnColour.leftButton,mouseClickOnColour.midButton,mouseClickOnColour.rightButton,mouseClickOnColour.time,mouseClickOnColour.clicked_name,mouseClickOnNumber.x,mouseClickOnNumber.y,mouseClickOnNumber.leftButton,mouseClickOnNumber.midButton,mouseClickOnNumber.rightButton,mouseClickOnNumber.time,mouseClickOnNumber.clicked_name,callSignCorrect,colourCorrect,numberCorrect,participant,order,date,expName,psychopyVersion,frameRate,
video/Training/zh_sp01_Ad_We_4_NVocInAudio_NoVideo.avi,vocoded,noVideo,sp01,Ad,We,4,,,,,,,,0,0,0,0,,,,,,,,,,,,,,,,,-0.41944444444444445,0.3138888888888889,1,0,0,6.339775500000542,call1,0.044444444444444446,-0.3194444444444444,1,0,0,7.4062219000006735,colour4,0.40694444444444444,-0.33611111111111114,1,0,0,7.974376199999824,number4,True,True,True,37,2,2019_Nov_19_1508,MA_Theta_Exp,3.0.7,60.109230493981975,
video/Training/zh_sp07_Ad_Ge_3_NVocInAudio_NoVideo.avi,vocoded,noVideo,sp07,Ad,Ge,3,,,,,,,,0,1,1,1,,,,,,,,,,,,,,,,,-0.39444444444444443,0.3125,1,0,0,4.906482200000028,call1,0.027777777777777776,0.28888888888888886,1,0,0,5.678894500000752,colour1,0.44305555555555554,-0.1125,1,0,0,6.372954899999968,number3,True,True,True,37,2,2019_Nov_19_1508,MA_Theta_Exp,3.0.7,60.109230493981975,
video/Training/zh_sp01_Dr_Ro_3_NVocInAudio_GlobalThetaInVideo.avi,vocoded,plusVideo,sp01,Dr,Ro,3,,,,,,,,0,2,2,2,,,,,,,,,,,,,,,,,-0.38055555555555554,0.13194444444444445,1,0,0,5.4727075999999215,call2,0.002777777777777778,0.32083333333333336,1,0,0,6.443249199999627,colour1,0.3819444444444444,-0.17222222222222222,1,0,0,7.106160700001055,number3,True,False,True,37,2,2019_Nov_19_1508,MA_Theta_Exp,3.0.7,60.109230493981975,
video/Training/zh_sp07_Dr_Gr_4_NVocInAudio_GlobalThetaInVideo.avi,vocoded,plusVideo,sp07,Dr,Gr,4,,,,,,,,0,3,3,3,,,,,,,,,,,,,,,,,-0.3541666666666667,0.13333333333333333,1,0,0,4.872530299999198,call2,-0.02361111111111111,0.10694444444444444,1,0,0,5.339447599999403,colour2,0.4166666666666667,-0.34305555555555556,1,0,0,6.072216799999296,number4,True,True,True,37,2,2019_Nov_19_1508,MA_Theta_Exp,3.0.7,60.109230493981975,
video/Training/zh_sp01_Ti_Gr_2_NoThetaInAudio_NoVideo.avi,noTheta,noVideo,sp01,Ti,Gr,2,,,,,,,,0,4,4,4,,,,,,,,,,,,,,,,,-0.3541666666666667,0.29583333333333334,1,0,0,6.286779599999136,call1,-0.02638888888888889,0.09722222222222222,1,0,0,6.901660199999242,colour2,0.35694444444444445,0.07361111111111111,1,0,0,7.90333229999851,number2,False,True,True,37,2,2019_Nov_19_1508,MA_Theta_Exp,3.0.7,60.109230493981975,
video/Training/zh_sp07_Ti_Ro_1_NoThetaInAudio_NoVideo.avi,noTheta,noVideo,sp07,Ti,Ro,1,,,,,,,,0,5,5,5,,,,,,,,,,,,,,,,,-0.4083333333333333,-0.1,1,0,0,4.638350899998841,call3,-0.008333333333333333,-0.09861111111111111,1,0,0,5.316815000000133,colour3,0.41388888888888886,0.3277777777777778,1,0,0,5.972202900000411,number1,True,True,True,37,2,2019_Nov_19_1508,MA_Theta_Exp,3.0.7,60.109230493981975,
video/Training/zh_sp01_Un_Ge_1_NoThetaInAudio_GlobalThetaInVideo.avi,noTheta,plusVideo,sp01,Un,Ge,1,,,,,,,,0,6,6,6,,,,,,,,,,,,,,,,,-0.3875,-0.32083333333333336,1,0,0,5.471144200000708,call4,-0.008333333333333333,0.3333333333333333,1,0,0,6.387859099999332,colour1,0.4097222222222222,0.29305555555555557,1,0,0,7.027435699999842,number1,True,True,True,37,2,2019_Nov_19_1508,MA_Theta_Exp,3.0.7,60.109230493981975,
video/Training/zh_sp07_Un_We_2_NoThetaInAudio_GlobalThetaInVideo.avi,noTheta,plusVideo,sp07,Un,We,2,,,,,,,,0,7,7,7,,,,,,,,,,,,,,,,,-0.4125,-0.33055555555555555,1,0,0,4.761949600000662,call4,0.011111111111111112,-0.30833333333333335,1,0,0,5.455343300000095,colour4,0.3972222222222222,0.09583333333333334,1,0,0,6.428730499999801,number2,True,True,True,37,2,2019_Nov_19_1508,MA_Theta_Exp,3.0.7,60.109230493981975,
video/Training/zh_sp01_Ad_Ge_1_GlobalTheta_NoVideo.avi,globalTheta,noVideo,sp01,Ad,Ge,1,,,,,,,,0,8,8,8,,,,,,,,,,,,,,,,,-0.3625,0.3236111111111111,1,0,0,5.446690900000249,call1,-0.001388888888888889,0.3388888888888889,1,0,0,6.00273770000058,colour1,0.45416666666666666,0.2986111111111111,1,0,0,6.61987980000049,number1,True,True,True,37,2,2019_Nov_19_1508,MA_Theta_Exp,3.0.7,60.109230493981975,
video/Training/zh_sp07_Ad_Ro_3_GlobalTheta_NoVideo.avi,globalTheta,noVideo,sp07,Ad,Ro,3,,,,,,,,0,9,9,9,,,,,,,,,,,,,,,,,-0.4444444444444444,0.3388888888888889,1,0,0,4.603723000000173,call1,-0.008333333333333333,-0.06666666666666667,1,0,0,5.461993000000803,colour3,0.4,-0.09444444444444444,1,0,0,6.193767099999604,number3,True,True,True,37,2,2019_Nov_19_1508,MA_Theta_Exp,3.0.7,60.109230493981975,
video/Experiment/zh_sp01_Dr_Gr_3_NoThetaInAudio_GlobalThetaInVideo.avi,noTheta,plusVideo,sp01,Dr,Gr,3,0,3,flow/blocks/NoThetaInAudio_GlobalThetaInVideo_A.csv,,,,,,,,,0,0,0,0,0,0,0,6,,,,,,,,,-0.38333333333333336,-0.33055555555555555,1,0,0,6.405211599998438,call4,0.025,0.08888888888888889,1,0,0,7.08915209999941,colour2,0.36527777777777776,-0.075,1,0,0,7.766543600000659,number3,False,True,True,37,2,2019_Nov_19_1508,MA_Theta_Exp,3.0.7,60.109230493981975,
video/Experiment/zh_sp01_Ad_Gr_2_NoThetaInAudio_GlobalThetaInVideo.avi,noTheta,plusVideo,sp01,Ad,Gr,2,0,3,flow/blocks/NoThetaInAudio_GlobalThetaInVideo_A.csv,,,,,,,,,0,0,0,0,0,1,1,21,,,,,,,,,-0.3888888888888889,0.3333333333333333,1,0,0,5.408184699999765,call1,-0.013888888888888888,0.12083333333333333,1,0,0,6.105439199998727,colour2,0.4125,0.0875,1,0,0,7.055693999998766,number2,True,True,True,37,2,2019_Nov_19_1508,MA_Theta_Exp,3.0.7,60.109230493981975,
video/Experiment/zh_sp01_Ti_Ro_2_NoThetaInAudio_GlobalThetaInVideo.avi,noTheta,plusVideo,sp01,Ti,Ro,2,0,3,flow/blocks/NoThetaInAudio_GlobalThetaInVideo_A.csv,,,,,,,,,0,0,0,0,0,2,2,25,,,,,,,,,-0.41944444444444445,-0.11944444444444445,1,0,0,5.506543600000441,call3,0.030555555555555555,0.2986111111111111,1,0,0,6.307643600001029,colour1,0.45,0.09583333333333334,1,0,0,7.564070899999933,number2,True,False,True,37,2,2019_Nov_19_1508,MA_Theta_Exp,3.0.7,60.109230493981975,
video/Experiment/zh_sp07_Ti_Ro_3_NoThetaInAudio_GlobalThetaInVideo.avi,noTheta,plusVideo,sp07,Ti,Ro,3,0,3,flow/blocks/NoThetaInAudio_GlobalThetaInVideo_A.csv,,,,,,,,,0,0,0,0,0,3,3,10,,,,,,,,,-0.4388888888888889,-0.08333333333333333,1,0,0,4.680614000000787,call3,0.0375,-0.07916666666666666,1,0,0,5.580431699998371,colour3,0.34305555555555556,-0.12083333333333333,1,0,0,6.463477499999499,number3,True,True,True,37,2,2019_Nov_19_1508,MA_Theta_Exp,3.0.7,60.109230493981975,
video/Experiment/zh_sp07_Un_We_4_NoThetaInAudio_GlobalThetaInVideo.avi,noTheta,plusVideo,sp07,Un,We,4,0,3,flow/blocks/NoThetaInAudio_GlobalThetaInVideo_A.csv,,,,,,,,,0,0,0,0,0,4,4,15,,,,,,,,,-0.37222222222222223,-0.2847222222222222,1,0,0,4.930196199999045,call4,0.05555555555555555,-0.3,1,0,0,6.412718800000221,colour4,0.34444444444444444,-0.3277777777777778,1,0,0,7.206947000000582,number4,True,True,True,37,2,2019_Nov_19_1508,MA_Theta_Exp,3.0.7,60.109230493981975,
video/Experiment/zh_sp07_Ad_Gr_1_NoThetaInAudio_GlobalThetaInVideo.avi,noTheta,plusVideo,sp07,Ad,Gr,1,0,3,flow/blocks/NoThetaInAudio_GlobalThetaInVideo_A.csv,,,,,,,,,0,0,0,0,0,5,5,4,,,,,,,,,-0.3680555555555556,0.30416666666666664,1,0,0,4.896144199999981,call1,-0.030555555555555555,0.09583333333333334,1,0,0,5.507990500000233,colour2,0.41805555555555557,0.31805555555555554,1,0,0,6.509957399999621,number1,True,True,True,37,2,2019_Nov_19_1508,MA_Theta_Exp,3.0.7,60.109230493981975,
video/Experiment/zh_sp07_Dr_We_2_NoThetaInAudio_GlobalThetaInVideo.avi,noTheta,plusVideo,sp07,Dr,We,2,0,3,flow/blocks/NoThetaInAudio_GlobalThetaInVideo_A.csv,,,,,,,,,0,0,0,0,0,6,6,13,,,,,,,,,-0.35555555555555557,0.30277777777777776,1,0,0,7.948316599999089,call1,-0.002777777777777778,-0.31666666666666665,1,0,0,8.727052099999128,colour4,0.42083333333333334,0.14305555555555555,1,0,0,9.428911700000754,number2,False,True,True,37,2,2019_Nov_19_1508,MA_Theta_Exp,3.0.7,60.109230493981975,
video/Experiment/zh_sp01_Ti_Ge_4_NoThetaInAudio_GlobalThetaInVideo.avi,noTheta,plusVideo,sp01,Ti,Ge,4,0,3,flow/blocks/NoThetaInAudio_GlobalThetaInVideo_A.csv,,,,,,,,,0,0,0,0,0,7,7,3,,,,,,,,,-0.41388888888888886,-0.12222222222222222,1,0,0,5.255062899999757,call3,0.03888888888888889,0.30694444444444446,1,0,0,6.086718099999416,colour1,0.39305555555555555,-0.2861111111111111,1,0,0,7.091153899998972,number4,True,True,True,37,2,2019_Nov_19_1508,MA_Theta_Exp,3.0.7,60.109230493981975,
video/Experiment/zh_sp07_Dr_Gr_4_NoThetaInAudio_GlobalThetaInVideo.avi,noTheta,plusVideo,sp07,Dr,Gr,4,0,3,flow/blocks/NoThetaInAudio_GlobalThetaInVideo_A.csv,,,,,,,,,0,0,0,0,0,8,8,23,,,,,,,,,-0.43333333333333335,0.13472222222222222,1,0,0,4.806818000000931,call2,-0.011111111111111112,0.12361111111111112,1,0,0,5.569198299999698,colour2,0.42916666666666664,-0.3138888888888889,1,0,0,6.286090699999477,number4,True,True,True,37,2,2019_Nov_19_1508,MA_Theta_Exp,3.0.7,60.109230493981975,
video/Experiment/zh_sp07_Ti_Ge_3_NoThetaInAudio_GlobalThetaInVideo.avi,noTheta,plusVideo,sp07,Ti,Ge,3,0,3,flow/blocks/NoThetaInAudio_GlobalThetaInVideo_A.csv,,,,,,,,,0,0,0,0,0,9,9,18,,,,,,,,,-0.3902777777777778,-0.07777777777777778,1,0,0,4.684766700000182,call3,-0.02638888888888889,0.3111111111111111,1,0,0,5.401353299999755,colour1,0.3902777777777778,-0.09583333333333334,1,0,0,6.555034400000295,number3,True,True,True,37,2,2019_Nov_19_1508,MA_Theta_Exp,3.0.7,60.109230493981975,
video/Experiment/zh_sp01_Ad_We_1_NoThetaInAudio_GlobalThetaInVideo.avi,noTheta,plusVideo,sp01,Ad,We,1,0,3,flow/blocks/NoThetaInAudio_GlobalThetaInVideo_A.csv,,,,,,,,,0,0,0,0,0,10,10,12,,,,,,,,,-0.3375,0.3111111111111111,1,0,0,5.175025699998514,call1,-0.044444444444444446,-0.3125,1,0,0,6.078544399999373,colour4,0.4625,0.33611111111111114,1,0,0,6.792758800000229,number1,True,True,True,37,2,2019_Nov_19_1508,MA_Theta_Exp,3.0.7,60.109230493981975,
video/Experiment/zh_sp01_Un_Ro_3_NoThetaInAudio_GlobalThetaInVideo.avi,noTheta,plusVideo,sp01,Un,Ro,3,0,3,flow/blocks/NoThetaInAudio_GlobalThetaInVideo_A.csv,,,,,,,,,0,0,0,0,0,11,11,26,,,,,,,,,-0.4263888888888889,-0.31527777777777777,1,0,0,7.455202299999655,call4,-0.03333333333333333,-0.12638888888888888,1,0,0,8.067892900000516,colour3,0.4263888888888889,-0.13055555555555556,1,0,0,8.65074470000036,number3,True,True,True,37,2,2019_Nov_19_1508,MA_Theta_Exp,3.0.7,60.109230493981975,
video/Experiment/zh_sp07_Ad_We_3_NoThetaInAudio_GlobalThetaInVideo.avi,noTheta,plusVideo,sp07,Ad,We,3,0,3,flow/blocks/NoThetaInAudio_GlobalThetaInVideo_A.csv,,,,,,,,,0,0,0,0,0,12,12,30,,,,,,,,,-0.3763888888888889,0.30694444444444446,1,0,0,4.843411299998479,call1,-0.005555555555555556,-0.3347222222222222,1,0,0,5.622202300000936,colour4,0.40555555555555556,-0.09583333333333334,1,0,0,6.461378399999376,number3,True,True,True,37,2,2019_Nov_19_1508,MA_Theta_Exp,3.0.7,60.109230493981975,
video/Experiment/zh_sp01_Ad_Ro_1_NoThetaInAudio_GlobalThetaInVideo.avi,noTheta,plusVideo,sp01,Ad,Ro,1,0,3,flow/blocks/NoThetaInAudio_GlobalThetaInVideo_A.csv,,,,,,,,,0,0,0,0,0,13,13,8,,,,,,,,,-0.3263888888888889,0.2833333333333333,1,0,0,5.565443499999674,call1,0.025,-0.15555555555555556,1,0,0,6.532655500001056,colour3,0.39444444444444443,0.33055555555555555,1,0,0,7.564281900000424,number1,True,True,True,37,2,2019_Nov_19_1508,MA_Theta_Exp,3.0.7,60.109230493981975,
video/Experiment/zh_sp07_Ti_We_4_NoThetaInAudio_GlobalThetaInVideo.avi,noTheta,plusVideo,sp07,Ti,We,4,0,3,flow/blocks/NoThetaInAudio_GlobalThetaInVideo_A.csv,,,,,,,,,0,0,0,0,0,14,14,31,,,,,,,,,-0.39861111111111114,-0.07777777777777778,1,0,0,4.907080300001326,call3,0.013888888888888888,-0.3111111111111111,1,0,0,5.587641899999653,colour4,0.4305555555555556,-0.3138888888888889,1,0,0,6.371294799999305,number4,True,True,True,37,2,2019_Nov_19_1508,MA_Theta_Exp,3.0.7,60.109230493981975,
video/Experiment/zh_sp01_Ti_Ge_1_NoThetaInAudio_GlobalThetaInVideo.avi,noTheta,plusVideo,sp01,Ti,Ge,1,0,3,flow/blocks/NoThetaInAudio_GlobalThetaInVideo_A.csv,,,,,,,,,0,0,0,0,0,15,15,16,,,,,,,,,-0.3888888888888889,-0.07222222222222222,1,0,0,5.885413800000606,call3,0.04722222222222222,0.2875,1,0,0,6.5665441999990435,colour1,0.4152777777777778,0.2861111111111111,1,0,0,7.249378700000307,number1,True,True,True,37,2,2019_Nov_19_1508,MA_Theta_Exp,3.0.7,60.109230493981975,
video/Experiment/zh_sp07_Ti_Gr_4_NoThetaInAudio_GlobalThetaInVideo.avi,noTheta,plusVideo,sp07,Ti,Gr,4,0,3,flow/blocks/NoThetaInAudio_GlobalThetaInVideo_A.csv,,,,,,,,,0,0,0,0,0,16,16,7,,,,,,,,,-0.4,-0.14166666666666666,1,0,0,5.023999400000321,call3,-0.0125,0.09444444444444444,1,0,0,5.706807599999593,colour2,0.4152777777777778,-0.3111111111111111,1,0,0,6.8691592999985005,number4,True,True,True,37,2,2019_Nov_19_1508,MA_Theta_Exp,3.0.7,60.109230493981975,
video/Experiment/zh_sp07_Un_Ge_3_NoThetaInAudio_GlobalThetaInVideo.avi,noTheta,plusVideo,sp07,Un,Ge,3,0,3,flow/blocks/NoThetaInAudio_GlobalThetaInVideo_A.csv,,,,,,,,,0,0,0,0,0,17,17,2,,,,,,,,,-0.3625,-0.28194444444444444,1,0,0,5.202063400000043,call4,0.027777777777777776,0.3,1,0,0,6.15408430000025,colour1,0.4041666666666667,-0.0875,1,0,0,7.458097599999746,number3,True,True,True,37,2,2019_Nov_19_1508,MA_Theta_Exp,3.0.7,60.109230493981975,
video/Experiment/zh_sp01_Un_Gr_1_NoThetaInAudio_GlobalThetaInVideo.avi,noTheta,plusVideo,sp01,Un,Gr,1,0,3,flow/blocks/NoThetaInAudio_GlobalThetaInVideo_A.csv,,,,,,,,,0,0,0,0,0,18,18,20,,,,,,,,,-0.3819444444444444,-0.32083333333333336,1,0,0,5.420225699999719,call4,0.002777777777777778,0.12083333333333333,1,0,0,6.08291300000019,colour2,0.39305555555555555,0.30972222222222223,1,0,0,6.930607000000236,number1,True,True,True,37,2,2019_Nov_19_1508,MA_Theta_Exp,3.0.7,60.109230493981975,
video/Experiment/zh_sp07_Un_Ge_2_NoThetaInAudio_GlobalThetaInVideo.avi,noTheta,plusVideo,sp07,Un,Ge,2,0,3,flow/blocks/NoThetaInAudio_GlobalThetaInVideo_A.csv,,,,,,,,,0,0,0,0,0,19,19,17,,,,,,,,,-0.3625,-0.2986111111111111,1,0,0,4.913565299999391,call4,0.008333333333333333,0.33055555555555555,1,0,0,5.946791200000007,colour1,0.33055555555555555,0.1125,1,0,0,6.699569399999746,number2,True,True,True,37,2,2019_Nov_19_1508,MA_Theta_Exp,3.0.7,60.109230493981975,
video/Experiment/zh_sp01_Ad_We_2_NoThetaInAudio_GlobalThetaInVideo.avi,noTheta,plusVideo,sp01,Ad,We,2,0,3,flow/blocks/NoThetaInAudio_GlobalThetaInVideo_A.csv,,,,,,,,,0,0,0,0,0,20,20,29,,,,,,,,,-0.3486111111111111,0.30833333333333335,1,0,0,5.441437500001484,call1,0.006944444444444444,-0.3388888888888889,1,0,0,6.1593197000001965,colour4,0.40694444444444444,0.12083333333333333,1,0,0,6.842816300000777,number2,True,True,True,37,2,2019_Nov_19_1508,MA_Theta_Exp,3.0.7,60.109230493981975,
video/Experiment/zh_sp07_Un_We_3_NoThetaInAudio_GlobalThetaInVideo.avi,noTheta,plusVideo,sp07,Un,We,3,0,3,flow/blocks/NoThetaInAudio_GlobalThetaInVideo_A.csv,,,,,,,,,0,0,0,0,0,21,21,14,,,,,,,,,-0.3875,-0.3388888888888889,1,0,0,4.4284890000017185,call4,0.013888888888888888,-0.30833333333333335,1,0,0,5.48533099999986,colour4,0.38333333333333336,-0.10972222222222222,1,0,0,6.628819899999144,number3,True,True,True,37,2,2019_Nov_19_1508,MA_Theta_Exp,3.0.7,60.109230493981975,
video/Experiment/zh_sp01_Dr_Ge_4_NoThetaInAudio_GlobalThetaInVideo.avi,noTheta,plusVideo,sp01,Dr,Ge,4,0,3,flow/blocks/NoThetaInAudio_GlobalThetaInVideo_A.csv,,,,,,,,,0,0,0,0,0,22,22,19,,,,,,,,,-0.4083333333333333,-0.3055555555555556,1,0,0,6.599719699999696,call4,0.0375,0.3,1,0,0,8.431804899999406,colour1,0.4125,-0.36944444444444446,1,0,0,9.231972499999756,number4,False,True,True,37,2,2019_Nov_19_1508,MA_Theta_Exp,3.0.7,60.109230493981975,
video/Experiment/zh_sp01_Un_We_1_NoThetaInAudio_GlobalThetaInVideo.avi,noTheta,plusVideo,sp01,Un,We,1,0,3,flow/blocks/NoThetaInAudio_GlobalThetaInVideo_A.csv,,,,,,,,,0,0,0,0,0,23,23,28,,,,,,,,,-0.4013888888888889,-0.3055555555555556,1,0,0,5.669638899998972,call4,-0.05416666666666667,-0.30694444444444446,1,0,0,6.31760469999972,colour4,0.39305555555555555,0.2875,1,0,0,7.535744900000282,number1,True,True,True,37,2,2019_Nov_19_1508,MA_Theta_Exp,3.0.7,60.109230493981975,
video/Experiment/zh_sp07_Dr_Ro_2_NoThetaInAudio_GlobalThetaInVideo.avi,noTheta,plusVideo,sp07,Dr,Ro,2,0,3,flow/blocks/NoThetaInAudio_GlobalThetaInVideo_A.csv,,,,,,,,,0,0,0,0,0,24,24,9,,,,,,,,,-0.3902777777777778,0.2972222222222222,1,0,0,4.4929857999995875,call1,0.008333333333333333,-0.13194444444444445,1,0,0,5.156081999999515,colour3,0.35694444444444445,0.13055555555555556,1,0,0,5.72525879999921,number2,False,True,True,37,2,2019_Nov_19_1508,MA_Theta_Exp,3.0.7,60.109230493981975,
video/Experiment/zh_sp07_Ti_Ge_2_NoThetaInAudio_GlobalThetaInVideo.avi,noTheta,plusVideo,sp07,Ti,Ge,2,0,3,flow/blocks/NoThetaInAudio_GlobalThetaInVideo_A.csv,,,,,,,,,0,0,0,0,0,25,25,1,,,,,,,,,-0.3958333333333333,-0.14444444444444443,1,0,0,4.85657910000009,call3,-0.006944444444444444,0.3111111111111111,1,0,0,5.589947799999209,colour1,0.36527777777777776,0.10972222222222222,1,0,0,6.261897500000487,number2,True,True,True,37,2,2019_Nov_19_1508,MA_Theta_Exp,3.0.7,60.109230493981975,
video/Experiment/zh_sp01_Ad_Ro_4_NoThetaInAudio_GlobalThetaInVideo.avi,noTheta,plusVideo,sp01,Ad,Ro,4,0,3,flow/blocks/NoThetaInAudio_GlobalThetaInVideo_A.csv,,,,,,,,,0,0,0,0,0,26,26,11,,,,,,,,,-0.4305555555555556,0.2763888888888889,1,0,0,5.7970653000011225,call1,-0.008333333333333333,-0.13194444444444445,1,0,0,6.596323599998868,colour3,0.4652777777777778,-0.3125,1,0,0,7.395772300000317,number4,True,True,True,37,2,2019_Nov_19_1508,MA_Theta_Exp,3.0.7,60.109230493981975,
video/Experiment/zh_sp07_Dr_Gr_2_NoThetaInAudio_GlobalThetaInVideo.avi,noTheta,plusVideo,sp07,Dr,Gr,2,0,3,flow/blocks/NoThetaInAudio_GlobalThetaInVideo_A.csv,,,,,,,,,0,0,0,0,0,27,27,5,,,,,,,,,-0.35694444444444445,0.10277777777777777,1,0,0,5.21513159999995,call2,-0.08472222222222223,0.12083333333333333,1,0,0,5.701705299999958,colour2,0.36944444444444446,0.08333333333333333,1,0,0,6.3829183999987436,number2,True,True,True,37,2,2019_Nov_19_1508,MA_Theta_Exp,3.0.7,60.109230493981975,
video/Experiment/zh_sp01_Dr_Ro_4_NoThetaInAudio_GlobalThetaInVideo.avi,noTheta,plusVideo,sp01,Dr,Ro,4,0,3,flow/blocks/NoThetaInAudio_GlobalThetaInVideo_A.csv,,,,,,,,,0,0,0,0,0,28,28,27,,,,,,,,,-0.3194444444444444,0.08888888888888889,1,0,0,5.073397000000114,call2,0.015277777777777777,-0.0763888888888889,1,0,0,5.656658100000641,colour3,0.4125,-0.36527777777777776,1,0,0,6.189911199999187,number4,True,True,True,37,2,2019_Nov_19_1508,MA_Theta_Exp,3.0.7,60.109230493981975,
video/Experiment/zh_sp07_Dr_Ge_1_NoThetaInAudio_GlobalThetaInVideo.avi,noTheta,plusVideo,sp07,Dr,Ge,1,0,3,flow/blocks/NoThetaInAudio_GlobalThetaInVideo_A.csv,,,,,,,,,0,0,0,0,0,29,29,0,,,,,,,,,-0.39305555555555555,0.07222222222222222,1,0,0,4.779501900000469,call2,0.043055555555555555,0.3194444444444444,1,0,0,5.577475800000684,colour1,0.37777777777777777,0.2902777777777778,1,0,0,6.29636439999922,number1,True,True,True,37,2,2019_Nov_19_1508,MA_Theta_Exp,3.0.7,60.109230493981975,
video/Experiment/zh_sp01_Ad_Gr_3_NoThetaInAudio_GlobalThetaInVideo.avi,noTheta,plusVideo,sp01,Ad,Gr,3,0,3,flow/blocks/NoThetaInAudio_GlobalThetaInVideo_A.csv,,,,,,,,,0,0,0,0,0,30,30,22,,,,,,,,,-0.40694444444444444,0.3013888888888889,1,0,0,5.339485600001353,call1,-0.03333333333333333,0.11944444444444445,1,0,0,6.244523299999855,colour2,0.4097222222222222,-0.12222222222222222,1,0,0,7.134075500000108,number3,True,True,True,37,2,2019_Nov_19_1508,MA_Theta_Exp,3.0.7,60.109230493981975,
video/Experiment/zh_sp01_Un_Ro_1_NoThetaInAudio_GlobalThetaInVideo.avi,noTheta,plusVideo,sp01,Un,Ro,1,0,3,flow/blocks/NoThetaInAudio_GlobalThetaInVideo_A.csv,,,,,,,,,0,0,0,0,0,31,31,24,,,,,,,,,-0.4111111111111111,-0.3125,1,0,0,5.7303850000007515,call4,-0.03888888888888889,-0.11388888888888889,1,0,0,6.230952399999296,colour3,0.4097222222222222,0.3375,1,0,0,6.830036400000608,number1,True,True,True,37,2,2019_Nov_19_1508,MA_Theta_Exp,3.0.7,60.109230493981975,
video/Experiment/zh_sp01_Ad_We_4_GlobalTheta_NoVideo.avi,globalTheta,noVideo,sp01,Ad,We,4,1,5,flow/blocks/GlobalTheta_NoVideo_B.csv,,,,,,,,,0,1,1,1,0,0,0,31,,,,,,,,,-0.375,0.31805555555555554,1,0,0,5.076722300000256,call1,-0.008333333333333333,-0.33055555555555555,1,0,0,5.806408899999951,colour4,0.4222222222222222,-0.35555555555555557,1,0,0,6.280288699999801,number4,True,True,True,37,2,2019_Nov_19_1508,MA_Theta_Exp,3.0.7,60.109230493981975,
video/Experiment/zh_sp01_Ad_Ge_3_GlobalTheta_NoVideo.avi,globalTheta,noVideo,sp01,Ad,Ge,3,1,5,flow/blocks/GlobalTheta_NoVideo_B.csv,,,,,,,,,0,1,1,1,0,1,1,18,,,,,,,,,-0.3541666666666667,0.3236111111111111,1,0,0,4.936605200000486,call1,0.004166666666666667,0.29583333333333334,1,0,0,5.511190900000656,colour1,0.46111111111111114,-0.11527777777777778,1,0,0,6.906184100000246,number3,True,True,True,37,2,2019_Nov_19_1508,MA_Theta_Exp,3.0.7,60.109230493981975,
video/Experiment/zh_sp07_Ti_Gr_1_GlobalTheta_NoVideo.avi,globalTheta,noVideo,sp07,Ti,Gr,1,1,5,flow/blocks/GlobalTheta_NoVideo_B.csv,,,,,,,,,0,1,1,1,0,2,2,4,,,,,,,,,-0.3638888888888889,-0.1125,1,0,0,5.466454099998373,call3,0.013888888888888888,0.3277777777777778,1,0,0,6.185938600001464,colour1,0.3402777777777778,0.26666666666666666,1,0,0,6.951756399999795,number1,True,False,True,37,2,2019_Nov_19_1508,MA_Theta_Exp,3.0.7,60.109230493981975,
video/Experiment/zh_sp07_Dr_Ro_1_GlobalTheta_NoVideo.avi,globalTheta,noVideo,sp07,Dr,Ro,1,1,5,flow/blocks/GlobalTheta_NoVideo_B.csv,,,,,,,,,0,1,1,1,0,3,3,24,,,,,,,,,-0.40555555555555556,0.10555555555555556,1,0,0,4.304585100000622,call2,0.004166666666666667,-0.14444444444444443,1,0,0,4.905430999999226,colour3,0.4236111111111111,0.3138888888888889,1,0,0,5.621182799999588,number1,True,True,True,37,2,2019_Nov_19_1508,MA_Theta_Exp,3.0.7,60.109230493981975,
video/Experiment/zh_sp01_Ti_Gr_2_GlobalTheta_NoVideo.avi,globalTheta,noVideo,sp01,Ti,Gr,2,1,5,flow/blocks/GlobalTheta_NoVideo_B.csv,,,,,,,,,0,1,1,1,0,4,4,21,,,,,,,,,-0.40555555555555556,-0.10416666666666667,1,0,0,5.3924379000000044,call3,-0.029166666666666667,0.12361111111111112,1,0,0,5.958615100000316,colour2,0.4013888888888889,0.08333333333333333,1,0,0,6.558939699998518,number2,True,True,True,37,2,2019_Nov_19_1508,MA_Theta_Exp,3.0.7,60.109230493981975,
video/Experiment/zh_sp07_Dr_Ge_3_GlobalTheta_NoVideo.avi,globalTheta,noVideo,sp07,Dr,Ge,3,1,5,flow/blocks/GlobalTheta_NoVideo_B.csv,,,,,,,,,0,1,1,1,0,5,5,2,,,,,,,,,-0.3888888888888889,0.10277777777777777,1,0,0,4.552359600000273,call2,-0.02361111111111111,0.3013888888888889,1,0,0,5.106548600000679,colour1,0.39166666666666666,-0.125,1,0,0,6.269958600001701,number3,True,True,True,37,2,2019_Nov_19_1508,MA_Theta_Exp,3.0.7,60.109230493981975,
video/Experiment/zh_sp01_Un_Gr_4_GlobalTheta_NoVideo.avi,globalTheta,noVideo,sp01,Un,Gr,4,1,5,flow/blocks/GlobalTheta_NoVideo_B.csv,,,,,,,,,0,1,1,1,0,6,6,23,,,,,,,,,-0.38472222222222224,-0.3,1,0,0,5.029581999999209,call4,-0.011111111111111112,0.08055555555555556,1,0,0,5.565542799999093,colour2,0.37083333333333335,-0.3402777777777778,1,0,0,6.145918799998981,number4,True,True,True,37,2,2019_Nov_19_1508,MA_Theta_Exp,3.0.7,60.109230493981975,
video/Experiment/zh_sp01_Un_Gr_3_GlobalTheta_NoVideo.avi,globalTheta,noVideo,sp01,Un,Gr,3,1,5,flow/blocks/GlobalTheta_NoVideo_B.csv,,,,,,,,,0,1,1,1,0,7,7,6,,,,,,,,,-0.4305555555555556,-0.3055555555555556,1,0,0,4.942150299999412,call4,-0.002777777777777778,0.11944444444444445,1,0,0,5.580752100000609,colour2,0.42916666666666664,-0.1361111111111111,1,0,0,6.132036599999992,number3,True,True,True,37,2,2019_Nov_19_1508,MA_Theta_Exp,3.0.7,60.109230493981975,
video/Experiment/zh_sp01_Un_Ro_4_GlobalTheta_NoVideo.avi,globalTheta,noVideo,sp01,Un,Ro,4,1,5,flow/blocks/GlobalTheta_NoVideo_B.csv,,,,,,,,,0,1,1,1,0,8,8,27,,,,,,,,,-0.43194444444444446,-0.3236111111111111,1,0,0,5.116426500000671,call4,0.020833333333333332,-0.08333333333333333,1,0,0,5.6668086999998195,colour3,0.3972222222222222,-0.3458333333333333,1,0,0,6.211782400001539,number4,True,True,True,37,2,2019_Nov_19_1508,MA_Theta_Exp,3.0.7,60.109230493981975,
video/Experiment/zh_sp01_Dr_We_1_GlobalTheta_NoVideo.avi,globalTheta,noVideo,sp01,Dr,We,1,1,5,flow/blocks/GlobalTheta_NoVideo_B.csv,,,,,,,,,0,1,1,1,0,9,9,28,,,,,,,,,-0.39444444444444443,0.09305555555555556,1,0,0,6.297912399999404,call2,0.08055555555555556,-0.37222222222222223,1,0,0,8.096999899998991,colour4,0.37916666666666665,0.3263888888888889,1,0,0,9.53318340000078,number1,True,True,True,37,2,2019_Nov_19_1508,MA_Theta_Exp,3.0.7,60.109230493981975,
video/Experiment/zh_sp07_Dr_Ge_2_GlobalTheta_NoVideo.avi,globalTheta,noVideo,sp07,Dr,Ge,2,1,5,flow/blocks/GlobalTheta_NoVideo_B.csv,,,,,,,,,0,1,1,1,0,10,10,17,,,,,,,,,-0.35555555555555557,0.07222222222222222,1,0,0,4.384297399999923,call2,0.020833333333333332,0.31527777777777777,1,0,0,4.982744300001286,colour1,0.38055555555555554,0.3013888888888889,1,0,0,6.701384199999666,number1,True,True,False,37,2,2019_Nov_19_1508,MA_Theta_Exp,3.0.7,60.109230493981975,
video/Experiment/zh_sp01_Un_Ge_1_GlobalTheta_NoVideo.avi,globalTheta,noVideo,sp01,Un,Ge,1,1,5,flow/blocks/GlobalTheta_NoVideo_B.csv,,,,,,,,,0,1,1,1,0,11,11,0,,,,,,,,,-0.3875,0.08611111111111111,1,0,0,5.260112699999809,call2,0.02361111111111111,0.2833333333333333,1,0,0,6.194399500000145,colour1,0.4111111111111111,0.2916666666666667,1,0,0,6.838976499999262,number1,False,True,True,37,2,2019_Nov_19_1508,MA_Theta_Exp,3.0.7,60.109230493981975,
video/Experiment/zh_sp01_Ad_Ro_3_GlobalTheta_NoVideo.avi,globalTheta,noVideo,sp01,Ad,Ro,3,1,5,flow/blocks/GlobalTheta_NoVideo_B.csv,,,,,,,,,0,1,1,1,0,12,12,10,,,,,,,,,-0.4111111111111111,0.30416666666666664,1,0,0,5.019953799999712,call1,-0.020833333333333332,0.30416666666666664,1,0,0,5.665653199999724,colour1,0.4263888888888889,-0.12916666666666668,1,0,0,6.756047999999282,number3,True,False,True,37,2,2019_Nov_19_1508,MA_Theta_Exp,3.0.7,60.109230493981975,
video/Experiment/zh_sp07_Ti_We_3_GlobalTheta_NoVideo.avi,globalTheta,noVideo,sp07,Ti,We,3,1,5,flow/blocks/GlobalTheta_NoVideo_B.csv,,,,,,,,,0,1,1,1,0,13,13,30,,,,,,,,,-0.42916666666666664,-0.1361111111111111,1,0,0,4.512121499999921,call3,0.0,-0.3194444444444444,1,0,0,5.398338999999396,colour4,0.35833333333333334,-0.13055555555555556,1,0,0,6.160157600001185,number3,True,True,True,37,2,2019_Nov_19_1508,MA_Theta_Exp,3.0.7,60.109230493981975,
video/Experiment/zh_sp01_Ad_Ge_1_GlobalTheta_NoVideo.avi,globalTheta,noVideo,sp01,Ad,Ge,1,1,5,flow/blocks/GlobalTheta_NoVideo_B.csv,,,,,,,,,0,1,1,1,0,14,14,16,,,,,,,,,-0.42916666666666664,0.2833333333333333,1,0,0,4.991226500000266,call1,-0.05555555555555555,0.3125,1,0,0,5.706857499999387,colour1,0.4222222222222222,0.2916666666666667,1,0,0,6.875229200000831,number1,True,True,True,37,2,2019_Nov_19_1508,MA_Theta_Exp,3.0.7,60.109230493981975,
video/Experiment/zh_sp01_Un_Ro_2_GlobalTheta_NoVideo.avi,globalTheta,noVideo,sp01,Un,Ro,2,1,5,flow/blocks/GlobalTheta_NoVideo_B.csv,,,,,,,,,0,1,1,1,0,15,15,9,,,,,,,,,-0.40555555555555556,-0.3138888888888889,1,0,0,5.161528900000121,call4,0.03888888888888889,-0.09305555555555556,1,0,0,5.84717400000045,colour3,0.3611111111111111,0.10277777777777777,1,0,0,6.679765299999417,number2,True,True,True,37,2,2019_Nov_19_1508,MA_Theta_Exp,3.0.7,60.109230493981975,
video/Experiment/zh_sp07_Un_Gr_2_GlobalTheta_NoVideo.avi,globalTheta,noVideo,sp07,Un,Gr,2,1,5,flow/blocks/GlobalTheta_NoVideo_B.csv,,,,,,,,,0,1,1,1,0,16,16,5,,,,,,,,,-0.4236111111111111,-0.3333333333333333,1,0,0,4.9468149000003905,call4,0.008333333333333333,0.08888888888888889,1,0,0,5.645603000000847,colour2,0.4097222222222222,0.09444444444444444,1,0,0,6.352264299999661,number2,True,True,True,37,2,2019_Nov_19_1508,MA_Theta_Exp,3.0.7,60.109230493981975,
video/Experiment/zh_sp07_Dr_Ro_3_GlobalTheta_NoVideo.avi,globalTheta,noVideo,sp07,Dr,Ro,3,1,5,flow/blocks/GlobalTheta_NoVideo_B.csv,,,,,,,,,0,1,1,1,0,17,17,26,,,,,,,,,-0.4027777777777778,0.2833333333333333,1,0,0,5.205296500000259,call1,-0.029166666666666667,-0.09583333333333334,1,0,0,5.76865110000108,colour3,0.3597222222222222,-0.09305555555555556,1,0,0,6.253333900000143,number3,False,True,True,37,2,2019_Nov_19_1508,MA_Theta_Exp,3.0.7,60.109230493981975,
video/Experiment/zh_sp01_Ad_Ge_4_GlobalTheta_NoVideo.avi,globalTheta,noVideo,sp01,Ad,Ge,4,1,5,flow/blocks/GlobalTheta_NoVideo_B.csv,,,,,,,,,0,1,1,1,0,18,18,3,,,,,,,,,-0.36944444444444446,0.26805555555555555,1,0,0,5.134274699999878,call1,-0.016666666666666666,0.3125,1,0,0,5.766288099999656,colour1,0.375,-0.3541666666666667,1,0,0,6.654061199998978,number4,True,True,True,37,2,2019_Nov_19_1508,MA_Theta_Exp,3.0.7,60.109230493981975,
video/Experiment/zh_sp07_Ad_Ro_2_GlobalTheta_NoVideo.avi,globalTheta,noVideo,sp07,Ad,Ro,2,1,5,flow/blocks/GlobalTheta_NoVideo_B.csv,,,,,,,,,0,1,1,1,0,19,19,25,,,,,,,,,-0.3486111111111111,0.32222222222222224,1,0,0,4.2571126999991975,call1,-0.011111111111111112,0.30972222222222223,1,0,0,5.347742900001322,colour1,0.3888888888888889,0.10694444444444444,1,0,0,6.329056499998842,number2,True,False,True,37,2,2019_Nov_19_1508,MA_Theta_Exp,3.0.7,60.109230493981975,
video/Experiment/zh_sp07_Ti_Ro_1_GlobalTheta_NoVideo.avi,globalTheta,noVideo,sp07,Ti,Ro,1,1,5,flow/blocks/GlobalTheta_NoVideo_B.csv,,,,,,,,,0,1,1,1,0,20,20,8,,,,,,,,,-0.4013888888888889,-0.3055555555555556,1,0,0,4.901599499999065,call4,0.0125,0.30694444444444446,1,0,0,5.934445299999425,colour1,0.3458333333333333,0.30277777777777776,1,0,0,6.322408100000757,number1,False,False,True,37,2,2019_Nov_19_1508,MA_Theta_Exp,3.0.7,60.109230493981975,
video/Experiment/zh_sp07_Ti_We_2_GlobalTheta_NoVideo.avi,globalTheta,noVideo,sp07,Ti,We,2,1,5,flow/blocks/GlobalTheta_NoVideo_B.csv,,,,,,,,,0,1,1,1,0,21,21,29,,,,,,,,,-0.4097222222222222,-0.08888888888888889,1,0,0,5.638832999999067,call3,0.030555555555555555,-0.3,1,0,0,6.237037599999894,colour4,0.3736111111111111,-0.33055555555555555,1,0,0,9.309876799999984,number4,True,True,False,37,2,2019_Nov_19_1508,MA_Theta_Exp,3.0.7,60.109230493981975,
video/Experiment/zh_sp01_Dr_Gr_1_GlobalTheta_NoVideo.avi,globalTheta,noVideo,sp01,Dr,Gr,1,1,5,flow/blocks/GlobalTheta_NoVideo_B.csv,,,,,,,,,0,1,1,1,0,22,22,20,,,,,,,,,-0.3263888888888889,-0.3416666666666667,1,0,0,5.226637699999628,call4,0.027777777777777776,0.10972222222222222,1,0,0,5.941366700000799,colour2,0.40555555555555556,0.32222222222222224,1,0,0,6.480912200000603,number1,False,True,True,37,2,2019_Nov_19_1508,MA_Theta_Exp,3.0.7,60.109230493981975,
video/Experiment/zh_sp07_Ti_Ro_4_GlobalTheta_NoVideo.avi,globalTheta,noVideo,sp07,Ti,Ro,4,1,5,flow/blocks/GlobalTheta_NoVideo_B.csv,,,,,,,,,0,1,1,1,0,23,23,11,,,,,,,,,-0.4305555555555556,-0.12777777777777777,1,0,0,4.335406700000021,call3,-0.06805555555555555,-0.10694444444444444,1,0,0,4.98655940000026,colour3,0.4,-0.31666666666666665,1,0,0,5.742061299999477,number4,True,True,True,37,2,2019_Nov_19_1508,MA_Theta_Exp,3.0.7,60.109230493981975,
video/Experiment/zh_sp07_Dr_We_3_GlobalTheta_NoVideo.avi,globalTheta,noVideo,sp07,Dr,We,3,1,5,flow/blocks/GlobalTheta_NoVideo_B.csv,,,,,,,,,0,1,1,1,0,24,24,14,,,,,,,,,-0.41805555555555557,0.08472222222222223,1,0,0,4.434976000000461,call2,0.013888888888888888,-0.30416666666666664,1,0,0,5.051651100000527,colour4,0.3958333333333333,-0.12222222222222222,1,0,0,5.555366000000504,number3,True,True,True,37,2,2019_Nov_19_1508,MA_Theta_Exp,3.0.7,60.109230493981975,
video/Experiment/zh_sp07_Dr_We_4_GlobalTheta_NoVideo.avi,globalTheta,noVideo,sp07,Dr,We,4,1,5,flow/blocks/GlobalTheta_NoVideo_B.csv,,,,,,,,,0,1,1,1,0,25,25,15,,,,,,,,,-0.3763888888888889,0.3125,1,0,0,4.369054500000857,call1,-0.008333333333333333,-0.29305555555555557,1,0,0,5.18019490000006,colour4,0.43194444444444446,-0.31805555555555554,1,0,0,5.930350700000417,number4,False,True,True,37,2,2019_Nov_19_1508,MA_Theta_Exp,3.0.7,60.109230493981975,
video/Experiment/zh_sp01_Un_We_2_GlobalTheta_NoVideo.avi,globalTheta,noVideo,sp01,Un,We,2,1,5,flow/blocks/GlobalTheta_NoVideo_B.csv,,,,,,,,,0,1,1,1,0,26,26,13,,,,,,,,,-0.4111111111111111,-0.31666666666666665,1,0,0,5.068366100000276,call4,-0.005555555555555556,-0.325,1,0,0,5.590465299999778,colour4,0.3888888888888889,0.15833333333333333,1,0,0,6.356438599999819,number2,True,True,True,37,2,2019_Nov_19_1508,MA_Theta_Exp,3.0.7,60.109230493981975,
video/Experiment/zh_sp07_Un_Ge_4_GlobalTheta_NoVideo.avi,globalTheta,noVideo,sp07,Un,Ge,4,1,5,flow/blocks/GlobalTheta_NoVideo_B.csv,,,,,,,,,0,1,1,1,0,27,27,19,,,,,,,,,-0.4097222222222222,-0.34305555555555556,1,0,0,4.335169399999359,call4,-0.019444444444444445,0.30277777777777776,1,0,0,5.013526900000215,colour1,0.3638888888888889,-0.3013888888888889,1,0,0,5.716197899999315,number4,True,True,True,37,2,2019_Nov_19_1508,MA_Theta_Exp,3.0.7,60.109230493981975,
video/Experiment/zh_sp07_Ti_Gr_3_GlobalTheta_NoVideo.avi,globalTheta,noVideo,sp07,Ti,Gr,3,1,5,flow/blocks/GlobalTheta_NoVideo_B.csv,,,,,,,,,0,1,1,1,0,28,28,22,,,,,,,,,-0.4097222222222222,-0.1388888888888889,1,0,0,4.72285489999922,call3,-0.0125,0.10694444444444444,1,0,0,5.744157199998881,colour2,0.36944444444444446,-0.10138888888888889,1,0,0,6.494389800000135,number3,True,True,True,37,2,2019_Nov_19_1508,MA_Theta_Exp,3.0.7,60.109230493981975,
video/Experiment/zh_sp01_Ad_Gr_4_GlobalTheta_NoVideo.avi,globalTheta,noVideo,sp01,Ad,Gr,4,1,5,flow/blocks/GlobalTheta_NoVideo_B.csv,,,,,,,,,0,1,1,1,0,29,29,7,,,,,,,,,-0.32222222222222224,0.3138888888888889,1,0,0,5.0539032999986375,call1,-0.001388888888888889,0.04722222222222222,1,0,0,5.754146700001002,colour2,0.35,-0.3402777777777778,1,0,0,6.553328399999373,number4,True,True,True,37,2,2019_Nov_19_1508,MA_Theta_Exp,3.0.7,60.109230493981975,
video/Experiment/zh_sp07_Ad_Ge_2_GlobalTheta_NoVideo.avi,globalTheta,noVideo,sp07,Ad,Ge,2,1,5,flow/blocks/GlobalTheta_NoVideo_B.csv,,,,,,,,,0,1,1,1,0,30,30,1,,,,,,,,,-0.40555555555555556,0.30972222222222223,1,0,0,4.4411202000010235,call1,-0.0125,0.33194444444444443,1,0,0,4.941681000000244,colour1,0.3819444444444444,0.11666666666666667,1,0,0,5.563796599999478,number2,True,True,True,37,2,2019_Nov_19_1508,MA_Theta_Exp,3.0.7,60.109230493981975,
video/Experiment/zh_sp01_Ti_We_1_GlobalTheta_NoVideo.avi,globalTheta,noVideo,sp01,Ti,We,1,1,5,flow/blocks/GlobalTheta_NoVideo_B.csv,,,,,,,,,0,1,1,1,0,31,31,12,,,,,,,,,-0.38333333333333336,-0.07222222222222222,1,0,0,5.345661400000608,call3,0.001388888888888889,-0.35,1,0,0,6.159677100000408,colour4,0.4263888888888889,0.32222222222222224,1,0,0,6.87897619999967,number1,True,True,True,37,2,2019_Nov_19_1508,MA_Theta_Exp,3.0.7,60.109230493981975,
video/Experiment/zh_sp01_Un_Ro_3_NVocInAudio_GlobalThetaInVideo.avi,vocoded,plusVideo,sp01,Un,Ro,3,2,1,flow/blocks/NVocInAudio_GlobalThetaInVideo_A.csv,,,,,,,,,0,2,2,2,0,0,0,26,,,,,,,,,-0.39305555555555555,-0.35555555555555557,1,0,0,5.219119800000044,call4,0.015277777777777777,-0.10416666666666667,1,0,0,6.1201836000000185,colour3,0.3486111111111111,-0.1,1,0,0,6.552044399999431,number3,True,True,True,37,2,2019_Nov_19_1508,MA_Theta_Exp,3.0.7,60.109230493981975,
video/Experiment/zh_sp07_Un_Ge_3_NVocInAudio_GlobalThetaInVideo.avi,vocoded,plusVideo,sp07,Un,Ge,3,2,1,flow/blocks/NVocInAudio_GlobalThetaInVideo_A.csv,,,,,,,,,0,2,2,2,0,1,1,2,,,,,,,,,-0.39444444444444443,-0.3055555555555556,1,0,0,4.457760200000848,call4,0.004166666666666667,0.25833333333333336,1,0,0,5.10760239999945,colour1,0.3472222222222222,-0.1111111111111111,1,0,0,5.784048399998937,number3,True,True,True,37,2,2019_Nov_19_1508,MA_Theta_Exp,3.0.7,60.109230493981975,
video/Experiment/zh_sp07_Dr_Gr_2_NVocInAudio_GlobalThetaInVideo.avi,vocoded,plusVideo,sp07,Dr,Gr,2,2,1,flow/blocks/NVocInAudio_GlobalThetaInVideo_A.csv,,,,,,,,,0,2,2,2,0,2,2,5,,,,,,,,,-0.38472222222222224,0.32083333333333336,1,0,0,5.024986899999931,call1,0.015277777777777777,0.06805555555555555,1,0,0,5.754950399999871,colour2,0.3972222222222222,0.09305555555555556,1,0,0,6.489125000000058,number2,False,True,True,37,2,2019_Nov_19_1508,MA_Theta_Exp,3.0.7,60.109230493981975,
video/Experiment/zh_sp07_Ti_Ge_4_NVocInAudio_GlobalThetaInVideo.avi,vocoded,plusVideo,sp07,Ti,Ge,4,2,1,flow/blocks/NVocInAudio_GlobalThetaInVideo_A.csv,,,,,,,,,0,2,2,2,0,3,3,3,,,,,,,,,-0.3861111111111111,-0.13055555555555556,1,0,0,4.778246899999431,call3,0.013888888888888888,0.2611111111111111,1,0,0,5.494495099999767,colour1,0.3486111111111111,-0.33194444444444443,1,0,0,6.665636800000357,number4,True,True,True,37,2,2019_Nov_19_1508,MA_Theta_Exp,3.0.7,60.109230493981975,
video/Experiment/zh_sp07_Dr_Ge_1_NVocInAudio_GlobalThetaInVideo.avi,vocoded,plusVideo,sp07,Dr,Ge,1,2,1,flow/blocks/NVocInAudio_GlobalThetaInVideo_A.csv,,,,,,,,,0,2,2,2,0,4,4,0,,,,,,,,,-0.3888888888888889,0.07361111111111111,1,0,0,4.600636099999974,call2,-0.05,0.2902777777777778,1,0,0,5.085281300000133,colour1,0.39861111111111114,0.29583333333333334,1,0,0,5.572689299999183,number1,True,True,True,37,2,2019_Nov_19_1508,MA_Theta_Exp,3.0.7,60.109230493981975,
video/Experiment/zh_sp07_Dr_Ro_4_NVocInAudio_GlobalThetaInVideo.avi,vocoded,plusVideo,sp07,Dr,Ro,4,2,1,flow/blocks/NVocInAudio_GlobalThetaInVideo_A.csv,,,,,,,,,0,2,2,2,0,5,5,27,,,,,,,,,-0.4125,0.10277777777777777,1,0,0,4.642253800000617,call2,0.004166666666666667,-0.13472222222222222,1,0,0,5.193021099999896,colour3,0.425,-0.3263888888888889,1,0,0,5.708554900000308,number4,True,True,True,37,2,2019_Nov_19_1508,MA_Theta_Exp,3.0.7,60.109230493981975,
video/Experiment/zh_sp07_Ad_Ro_4_NVocInAudio_GlobalThetaInVideo.avi,vocoded,plusVideo,sp07,Ad,Ro,4,2,1,flow/blocks/NVocInAudio_GlobalThetaInVideo_A.csv,,,,,,,,,0,2,2,2,0,6,6,11,,,,,,,,,-0.3472222222222222,0.3013888888888889,1,0,0,4.7551601999985,call1,0.027777777777777776,-0.14027777777777778,1,0,0,5.394089299999905,colour3,0.40555555555555556,-0.3527777777777778,1,0,0,6.039101200000005,number4,True,True,True,37,2,2019_Nov_19_1508,MA_Theta_Exp,3.0.7,60.109230493981975,
video/Experiment/zh_sp07_Ad_We_2_NVocInAudio_GlobalThetaInVideo.avi,vocoded,plusVideo,sp07,Ad,We,2,2,1,flow/blocks/NVocInAudio_GlobalThetaInVideo_A.csv,,,,,,,,,0,2,2,2,0,7,7,29,,,,,,,,,-0.3486111111111111,0.31805555555555554,1,0,0,4.37455779999982,call1,-0.034722222222222224,-0.3125,1,0,0,5.1247003999997105,colour4,0.4125,0.06666666666666667,1,0,0,5.713000699999611,number2,True,True,True,37,2,2019_Nov_19_1508,MA_Theta_Exp,3.0.7,60.109230493981975,
video/Experiment/zh_sp01_Un_We_4_NVocInAudio_GlobalThetaInVideo.avi,vocoded,plusVideo,sp01,Un,We,4,2,1,flow/blocks/NVocInAudio_GlobalThetaInVideo_A.csv,,,,,,,,,0,2,2,2,0,8,8,15,,,,,,,,,-0.3819444444444444,-0.3055555555555556,1,0,0,5.10540619999847,call4,-0.0375,-0.2861111111111111,1,0,0,6.036679200000435,colour4,0.3597222222222222,-0.32083333333333336,1,0,0,6.791953799998737,number4,True,True,True,37,2,2019_Nov_19_1508,MA_Theta_Exp,3.0.7,60.109230493981975,
video/Experiment/zh_sp01_Ti_Ge_2_NVocInAudio_GlobalThetaInVideo.avi,vocoded,plusVideo,sp01,Ti,Ge,2,2,1,flow/blocks/NVocInAudio_GlobalThetaInVideo_A.csv,,,,,,,,,0,2,2,2,0,9,9,1,,,,,,,,,-0.38472222222222224,-0.13055555555555556,1,0,0,5.240371699999741,call3,0.004166666666666667,0.3277777777777778,1,0,0,5.848884500001077,colour1,0.3736111111111111,0.09722222222222222,1,0,0,6.707100999999966,number2,True,True,True,37,2,2019_Nov_19_1508,MA_Theta_Exp,3.0.7,60.109230493981975,
video/Experiment/zh_sp01_Ad_Ro_1_NVocInAudio_GlobalThetaInVideo.avi,vocoded,plusVideo,sp01,Ad,Ro,1,2,1,flow/blocks/NVocInAudio_GlobalThetaInVideo_A.csv,,,,,,,,,0,2,2,2,0,10,10,8,,,,,,,,,-0.4041666666666667,0.30694444444444446,1,0,0,5.59605879999981,call1,0.015277777777777777,-0.11944444444444445,1,0,0,6.268135000000257,colour3,0.3625,0.33194444444444443,1,0,0,6.945744700000432,number1,True,True,True,37,2,2019_Nov_19_1508,MA_Theta_Exp,3.0.7,60.109230493981975,
video/Experiment/zh_sp07_Un_Ge_2_NVocInAudio_GlobalThetaInVideo.avi,vocoded,plusVideo,sp07,Un,Ge,2,2,1,flow/blocks/NVocInAudio_GlobalThetaInVideo_A.csv,,,,,,,,,0,2,2,2,0,11,11,17,,,,,,,,,-0.40555555555555556,-0.32083333333333336,1,0,0,4.710434300000998,call4,0.013888888888888888,0.33194444444444443,1,0,0,5.36051899999984,colour1,0.3958333333333333,0.11388888888888889,1,0,0,6.007736900000964,number2,True,True,True,37,2,2019_Nov_19_1508,MA_Theta_Exp,3.0.7,60.109230493981975,
video/Experiment/zh_sp01_Ti_Ro_2_NVocInAudio_GlobalThetaInVideo.avi,vocoded,plusVideo,sp01,Ti,Ro,2,2,1,flow/blocks/NVocInAudio_GlobalThetaInVideo_A.csv,,,,,,,,,0,2,2,2,0,12,12,25,,,,,,,,,-0.3277777777777778,-0.09166666666666666,1,0,0,5.231181500001185,call3,-0.013888888888888888,-0.10694444444444444,1,0,0,5.61510029999954,colour3,0.3486111111111111,0.05694444444444444,1,0,0,6.028350300000966,number2,True,True,True,37,2,2019_Nov_19_1508,MA_Theta_Exp,3.0.7,60.109230493981975,
video/Experiment/zh_sp01_Ad_We_3_NVocInAudio_GlobalThetaInVideo.avi,vocoded,plusVideo,sp01,Ad,We,3,2,1,flow/blocks/NVocInAudio_GlobalThetaInVideo_A.csv,,,,,,,,,0,2,2,2,0,13,13,30,,,,,,,,,-0.3347222222222222,0.3055555555555556,1,0,0,5.01956059999975,call1,-0.025,-0.3194444444444444,1,0,0,5.727047500000481,colour4,0.32222222222222224,-0.14027777777777778,1,0,0,6.189912699999695,number3,True,True,True,37,2,2019_Nov_19_1508,MA_Theta_Exp,3.0.7,60.109230493981975,
video/Experiment/zh_sp07_Un_We_1_NVocInAudio_GlobalThetaInVideo.avi,vocoded,plusVideo,sp07,Un,We,1,2,1,flow/blocks/NVocInAudio_GlobalThetaInVideo_A.csv,,,,,,,,,0,2,2,2,0,14,14,28,,,,,,,,,-0.43194444444444446,-0.2986111111111111,1,0,0,4.342779199998404,call4,-0.018055555555555554,-0.30694444444444446,1,0,0,4.846081700001378,colour4,0.39305555555555555,0.30694444444444446,1,0,0,5.549357800000507,number1,True,True,True,37,2,2019_Nov_19_1508,MA_Theta_Exp,3.0.7,60.109230493981975,
video/Experiment/zh_sp01_Ti_Gr_4_NVocInAudio_GlobalThetaInVideo.avi,vocoded,plusVideo,sp01,Ti,Gr,4,2,1,flow/blocks/NVocInAudio_GlobalThetaInVideo_A.csv,,,,,,,,,0,2,2,2,0,15,15,7,,,,,,,,,-0.4125,-0.11666666666666667,1,0,0,5.013731400000324,call3,0.009722222222222222,0.07916666666666666,1,0,0,5.462336599999617,colour2,0.4375,-0.3375,1,0,0,6.131025099999533,number4,True,True,True,37,2,2019_Nov_19_1508,MA_Theta_Exp,3.0.7,60.109230493981975,
video/Experiment/zh_sp07_Ti_We_4_NVocInAudio_GlobalThetaInVideo.avi,vocoded,plusVideo,sp07,Ti,We,4,2,1,flow/blocks/NVocInAudio_GlobalThetaInVideo_A.csv,,,,,,,,,0,2,2,2,0,16,16,31,,,,,,,,,-0.35694444444444445,-0.14583333333333334,1,0,0,4.486689300001672,call3,-0.03611111111111111,-0.33194444444444443,1,0,0,4.873126000000411,colour4,0.3486111111111111,-0.33055555555555555,1,0,0,5.33522129999983,number4,True,True,True,37,2,2019_Nov_19_1508,MA_Theta_Exp,3.0.7,60.109230493981975,
video/Experiment/zh_sp07_Dr_Gr_4_NVocInAudio_GlobalThetaInVideo.avi,vocoded,plusVideo,sp07,Dr,Gr,4,2,1,flow/blocks/NVocInAudio_GlobalThetaInVideo_A.csv,,,,,,,,,0,2,2,2,0,17,17,23,,,,,,,,,-0.4027777777777778,0.10972222222222222,1,0,0,4.558531900000162,call2,0.0,0.09444444444444444,1,0,0,5.058348000000478,colour2,0.3611111111111111,-0.30416666666666664,1,0,0,5.554491200000484,number4,True,True,True,37,2,2019_Nov_19_1508,MA_Theta_Exp,3.0.7,60.109230493981975,
video/Experiment/zh_sp01_Un_Ro_1_NVocInAudio_GlobalThetaInVideo.avi,vocoded,plusVideo,sp01,Un,Ro,1,2,1,flow/blocks/NVocInAudio_GlobalThetaInVideo_A.csv,,,,,,,,,0,2,2,2,0,18,18,24,,,,,,,,,-0.425,-0.31527777777777777,1,0,0,5.192258500001117,call4,-0.06944444444444445,-0.11944444444444445,1,0,0,5.588742199999615,colour3,0.36944444444444446,0.25555555555555554,1,0,0,6.087212099999306,number1,True,True,True,37,2,2019_Nov_19_1508,MA_Theta_Exp,3.0.7,60.109230493981975,
video/Experiment/zh_sp07_Ti_Ge_1_NVocInAudio_GlobalThetaInVideo.avi,vocoded,plusVideo,sp07,Ti,Ge,1,2,1,flow/blocks/NVocInAudio_GlobalThetaInVideo_A.csv,,,,,,,,,0,2,2,2,0,19,19,16,,,,,,,,,-0.3597222222222222,-0.125,1,0,0,4.645566700000927,call3,0.0375,0.31805555555555554,1,0,0,5.192155800001274,colour1,0.3972222222222222,0.32083333333333336,1,0,0,5.627710800001296,number1,True,True,True,37,2,2019_Nov_19_1508,MA_Theta_Exp,3.0.7,60.109230493981975,
video/Experiment/zh_sp01_Un_We_3_NVocInAudio_GlobalThetaInVideo.avi,vocoded,plusVideo,sp01,Un,We,3,2,1,flow/blocks/NVocInAudio_GlobalThetaInVideo_A.csv,,,,,,,,,0,2,2,2,0,20,20,14,,,,,,,,,-0.42916666666666664,-0.3055555555555556,1,0,0,4.948430600001302,call4,-0.02638888888888889,-0.3333333333333333,1,0,0,5.385480700000699,colour4,0.3611111111111111,-0.08194444444444444,1,0,0,5.899079000000711,number3,True,True,True,37,2,2019_Nov_19_1508,MA_Theta_Exp,3.0.7,60.109230493981975,
video/Experiment/zh_sp07_Dr_Ge_4_NVocInAudio_GlobalThetaInVideo.avi,vocoded,plusVideo,sp07,Dr,Ge,4,2,1,flow/blocks/NVocInAudio_GlobalThetaInVideo_A.csv,,,,,,,,,0,2,2,2,0,21,21,19,,,,,,,,,-0.3680555555555556,0.09305555555555556,1,0,0,4.379024900001241,call2,-0.075,0.3013888888888889,1,0,0,4.7896125999996,colour1,0.35833333333333334,-0.29583333333333334,1,0,0,5.507132799999454,number4,True,True,True,37,2,2019_Nov_19_1508,MA_Theta_Exp,3.0.7,60.109230493981975,
video/Experiment/zh_sp01_Ti_Ro_3_NVocInAudio_GlobalThetaInVideo.avi,vocoded,plusVideo,sp01,Ti,Ro,3,2,1,flow/blocks/NVocInAudio_GlobalThetaInVideo_A.csv,,,,,,,,,0,2,2,2,0,22,22,10,,,,,,,,,-0.35833333333333334,-0.1361111111111111,1,0,0,5.154946200000268,call3,-0.020833333333333332,-0.09027777777777778,1,0,0,5.505344699999114,colour3,0.35555555555555557,-0.1111111111111111,1,0,0,5.926892999999836,number3,True,True,True,37,2,2019_Nov_19_1508,MA_Theta_Exp,3.0.7,60.109230493981975,
video/Experiment/zh_sp01_Ad_Gr_2_NVocInAudio_GlobalThetaInVideo.avi,vocoded,plusVideo,sp01,Ad,Gr,2,2,1,flow/blocks/NVocInAudio_GlobalThetaInVideo_A.csv,,,,,,,,,0,2,2,2,0,23,23,21,,,,,,,,,-0.3236111111111111,0.3013888888888889,1,0,0,5.141754000000219,call1,-0.011111111111111112,0.09027777777777778,1,0,0,5.581112200001371,colour2,0.375,0.08888888888888889,1,0,0,6.013528800000131,number2,True,True,True,37,2,2019_Nov_19_1508,MA_Theta_Exp,3.0.7,60.109230493981975,
video/Experiment/zh_sp01_Dr_We_2_NVocInAudio_GlobalThetaInVideo.avi,vocoded,plusVideo,sp01,Dr,We,2,2,1,flow/blocks/NVocInAudio_GlobalThetaInVideo_A.csv,,,,,,,,,0,2,2,2,0,24,24,13,,,,,,,,,-0.35,0.08194444444444444,1,0,0,4.960668399999122,call2,-0.004166666666666667,-0.3125,1,0,0,5.4768676000003325,colour4,0.40694444444444444,0.08611111111111111,1,0,0,6.130521200000658,number2,True,True,True,37,2,2019_Nov_19_1508,MA_Theta_Exp,3.0.7,60.109230493981975,
video/Experiment/zh_sp07_Ti_Ge_3_NVocInAudio_GlobalThetaInVideo.avi,vocoded,plusVideo,sp07,Ti,Ge,3,2,1,flow/blocks/NVocInAudio_GlobalThetaInVideo_A.csv,,,,,,,,,0,2,2,2,0,25,25,18,,,,,,,,,-0.42083333333333334,-0.1388888888888889,1,0,0,4.89358220000031,call3,0.008333333333333333,0.2986111111111111,1,0,0,5.445395099999587,colour1,0.3611111111111111,-0.16666666666666666,1,0,0,5.997123499999361,number3,True,True,True,37,2,2019_Nov_19_1508,MA_Theta_Exp,3.0.7,60.109230493981975,
video/Experiment/zh_sp07_Ad_Gr_1_NVocInAudio_GlobalThetaInVideo.avi,vocoded,plusVideo,sp07,Ad,Gr,1,2,1,flow/blocks/NVocInAudio_GlobalThetaInVideo_A.csv,,,,,,,,,0,2,2,2,0,26,26,4,,,,,,,,,-0.3888888888888889,0.34305555555555556,1,0,0,4.763190300000133,call1,-0.0875,0.15416666666666667,1,0,0,5.191888399998788,colour2,0.40555555555555556,0.29583333333333334,1,0,0,5.69383949999974,number1,True,True,True,37,2,2019_Nov_19_1508,MA_Theta_Exp,3.0.7,60.109230493981975,
video/Experiment/zh_sp01_Ad_Gr_3_NVocInAudio_GlobalThetaInVideo.avi,vocoded,plusVideo,sp01,Ad,Gr,3,2,1,flow/blocks/NVocInAudio_GlobalThetaInVideo_A.csv,,,,,,,,,0,2,2,2,0,27,27,22,,,,,,,,,-0.4013888888888889,0.32222222222222224,1,0,0,5.065542199999982,call1,0.02361111111111111,0.07222222222222222,1,0,0,5.5315994000011415,colour2,0.43472222222222223,-0.11944444444444445,1,0,0,5.981110000000626,number3,True,True,True,37,2,2019_Nov_19_1508,MA_Theta_Exp,3.0.7,60.109230493981975,
video/Experiment/zh_sp01_Ad_We_1_NVocInAudio_GlobalThetaInVideo.avi,vocoded,plusVideo,sp01,Ad,We,1,2,1,flow/blocks/NVocInAudio_GlobalThetaInVideo_A.csv,,,,,,,,,0,2,2,2,0,28,28,12,,,,,,,,,-0.39305555555555555,0.3055555555555556,1,0,0,4.866898099999162,call1,-0.04583333333333333,-0.30416666666666664,1,0,0,5.483614100001432,colour4,0.37083333333333335,0.30416666666666664,1,0,0,6.10051999999996,number1,True,True,True,37,2,2019_Nov_19_1508,MA_Theta_Exp,3.0.7,60.109230493981975,
video/Experiment/zh_sp01_Dr_Ro_2_NVocInAudio_GlobalThetaInVideo.avi,vocoded,plusVideo,sp01,Dr,Ro,2,2,1,flow/blocks/NVocInAudio_GlobalThetaInVideo_A.csv,,,,,,,,,0,2,2,2,0,29,29,9,,,,,,,,,-0.43194444444444446,0.0625,1,0,0,5.161235999999917,call2,0.0,-0.17222222222222222,1,0,0,5.690316399999574,colour3,0.36666666666666664,0.12083333333333333,1,0,0,6.2947863999997935,number2,True,True,True,37,2,2019_Nov_19_1508,MA_Theta_Exp,3.0.7,60.109230493981975,
video/Experiment/zh_sp01_Un_Gr_1_NVocInAudio_GlobalThetaInVideo.avi,vocoded,plusVideo,sp01,Un,Gr,1,2,1,flow/blocks/NVocInAudio_GlobalThetaInVideo_A.csv,,,,,,,,,0,2,2,2,0,30,30,20,,,,,,,,,-0.3875,-0.33055555555555555,1,0,0,5.019870099999025,call4,0.002777777777777778,0.10694444444444444,1,0,0,5.667148900000029,colour2,0.3875,0.30277777777777776,1,0,0,6.285446399999273,number1,True,True,True,37,2,2019_Nov_19_1508,MA_Theta_Exp,3.0.7,60.109230493981975,
video/Experiment/zh_sp07_Dr_Gr_3_NVocInAudio_GlobalThetaInVideo.avi,vocoded,plusVideo,sp07,Dr,Gr,3,2,1,flow/blocks/NVocInAudio_GlobalThetaInVideo_A.csv,,,,,,,,,0,2,2,2,0,31,31,6,,,,,,,,,-0.35138888888888886,0.07361111111111111,1,0,0,4.463845399999627,call2,-0.006944444444444444,0.08472222222222223,1,0,0,4.814817399999811,colour2,0.39444444444444443,-0.06666666666666667,1,0,0,5.245039400000678,number3,True,True,True,37,2,2019_Nov_19_1508,MA_Theta_Exp,3.0.7,60.109230493981975,
video/Experiment/zh_sp01_Un_Gr_4_NoThetaInAudio_NoVideo.avi,noTheta,noVideo,sp01,Un,Gr,4,3,4,flow/blocks/NoThetaInAudio_NoVideo_B.csv,,,,,,,,,0,3,3,3,0,0,0,23,,,,,,,,,-0.3972222222222222,-0.29444444444444445,1,0,0,4.989722000000256,call4,-0.004166666666666667,0.07361111111111111,1,0,0,5.472227199999907,colour2,0.3638888888888889,-0.3402777777777778,1,0,0,5.937399300000834,number4,True,True,True,37,2,2019_Nov_19_1508,MA_Theta_Exp,3.0.7,60.109230493981975,
video/Experiment/zh_sp01_Dr_Gr_1_NoThetaInAudio_NoVideo.avi,noTheta,noVideo,sp01,Dr,Gr,1,3,4,flow/blocks/NoThetaInAudio_NoVideo_B.csv,,,,,,,,,0,3,3,3,0,1,1,20,,,,,,,,,-0.43333333333333335,0.08888888888888889,1,0,0,5.355994399998963,call2,-0.025,0.12222222222222222,1,0,0,5.792314300000726,colour2,0.37916666666666665,0.3194444444444444,1,0,0,6.227273500000592,number1,True,True,True,37,2,2019_Nov_19_1508,MA_Theta_Exp,3.0.7,60.109230493981975,
video/Experiment/zh_sp07_Dr_We_3_NoThetaInAudio_NoVideo.avi,noTheta,noVideo,sp07,Dr,We,3,3,4,flow/blocks/NoThetaInAudio_NoVideo_B.csv,,,,,,,,,0,3,3,3,0,2,2,14,,,,,,,,,-0.3527777777777778,0.2972222222222222,1,0,0,4.328861900001357,call1,0.05694444444444444,-0.3277777777777778,1,0,0,4.8973765000009735,colour4,0.40555555555555556,-0.09305555555555556,1,0,0,5.3834408999991865,number3,False,True,True,37,2,2019_Nov_19_1508,MA_Theta_Exp,3.0.7,60.109230493981975,
video/Experiment/zh_sp07_Dr_Ro_3_NoThetaInAudio_NoVideo.avi,noTheta,noVideo,sp07,Dr,Ro,3,3,4,flow/blocks/NoThetaInAudio_NoVideo_B.csv,,,,,,,,,0,3,3,3,0,3,3,26,,,,,,,,,-0.4222222222222222,0.10972222222222222,1,0,0,4.430470900000728,call2,0.029166666666666667,-0.12222222222222222,1,0,0,5.002133899999535,colour3,0.33055555555555555,-0.1361111111111111,1,0,0,5.333069700000124,number3,True,True,True,37,2,2019_Nov_19_1508,MA_Theta_Exp,3.0.7,60.109230493981975,
video/Experiment/zh_sp01_Dr_Ge_2_NoThetaInAudio_NoVideo.avi,noTheta,noVideo,sp01,Dr,Ge,2,3,4,flow/blocks/NoThetaInAudio_NoVideo_B.csv,,,,,,,,,0,3,3,3,0,4,4,17,,,,,,,,,-0.37083333333333335,0.09166666666666666,1,0,0,5.025637999999162,call2,0.008333333333333333,0.3236111111111111,1,0,0,5.526739199998701,colour1,0.38472222222222224,0.10972222222222222,1,0,0,5.9588143000000855,number2,True,True,True,37,2,2019_Nov_19_1508,MA_Theta_Exp,3.0.7,60.109230493981975,
video/Experiment/zh_sp07_Ti_We_2_NoThetaInAudio_NoVideo.avi,noTheta,noVideo,sp07,Ti,We,2,3,4,flow/blocks/NoThetaInAudio_NoVideo_B.csv,,,,,,,,,0,3,3,3,0,5,5,29,,,,,,,,,-0.37222222222222223,-0.10416666666666667,1,0,0,4.66544950000025,call3,0.0125,-0.3416666666666667,1,0,0,5.217200999999477,colour4,0.42083333333333334,0.08611111111111111,1,0,0,6.487116700000115,number2,True,True,True,37,2,2019_Nov_19_1508,MA_Theta_Exp,3.0.7,60.109230493981975,
video/Experiment/zh_sp01_Dr_Ro_1_NoThetaInAudio_NoVideo.avi,noTheta,noVideo,sp01,Dr,Ro,1,3,4,flow/blocks/NoThetaInAudio_NoVideo_B.csv,,,,,,,,,0,3,3,3,0,6,6,24,,,,,,,,,-0.35694444444444445,0.08888888888888889,1,0,0,5.29479259999971,call2,-0.02638888888888889,-0.09722222222222222,1,0,0,5.72487000000001,colour3,0.3958333333333333,0.2791666666666667,1,0,0,6.205820400000448,number1,True,True,True,37,2,2019_Nov_19_1508,MA_Theta_Exp,3.0.7,60.109230493981975,
video/Experiment/zh_sp07_Ti_Gr_1_NoThetaInAudio_NoVideo.avi,noTheta,noVideo,sp07,Ti,Gr,1,3,4,flow/blocks/NoThetaInAudio_NoVideo_B.csv,,,,,,,,,0,3,3,3,0,7,7,4,,,,,,,,,-0.3541666666666667,-0.09027777777777778,1,0,0,4.652473399999508,call3,-0.0375,0.11388888888888889,1,0,0,5.0174035,colour2,0.3416666666666667,0.2833333333333333,1,0,0,5.436436199999662,number1,True,True,True,37,2,2019_Nov_19_1508,MA_Theta_Exp,3.0.7,60.109230493981975,
video/Experiment/zh_sp01_Ti_Ro_1_NoThetaInAudio_NoVideo.avi,noTheta,noVideo,sp01,Ti,Ro,1,3,4,flow/blocks/NoThetaInAudio_NoVideo_B.csv,,,,,,,,,0,3,3,3,0,8,8,8,,,,,,,,,-0.38055555555555554,-0.12638888888888888,1,0,0,5.206281200000376,call3,-0.006944444444444444,-0.12083333333333333,1,0,0,5.533801800000219,colour3,0.3611111111111111,0.24583333333333332,1,0,0,6.024970700000267,number1,True,True,True,37,2,2019_Nov_19_1508,MA_Theta_Exp,3.0.7,60.109230493981975,
video/Experiment/zh_sp07_Ti_Gr_2_NoThetaInAudio_NoVideo.avi,noTheta,noVideo,sp07,Ti,Gr,2,3,4,flow/blocks/NoThetaInAudio_NoVideo_B.csv,,,,,,,,,0,3,3,3,0,9,9,21,,,,,,,,,-0.3597222222222222,-0.14583333333333334,1,0,0,4.573783699999694,call3,-0.011111111111111112,0.13472222222222222,1,0,0,5.02075319999858,colour2,0.3527777777777778,0.07083333333333333,1,0,0,5.6491168000011385,number2,True,True,True,37,2,2019_Nov_19_1508,MA_Theta_Exp,3.0.7,60.109230493981975,
video/Experiment/zh_sp01_Dr_We_1_NoThetaInAudio_NoVideo.avi,noTheta,noVideo,sp01,Dr,We,1,3,4,flow/blocks/NoThetaInAudio_NoVideo_B.csv,,,,,,,,,0,3,3,3,0,10,10,28,,,,,,,,,-0.3638888888888889,0.09027777777777778,1,0,0,5.127003999999943,call2,-0.0125,-0.3236111111111111,1,0,0,5.662519299999985,colour4,0.40555555555555556,0.33611111111111114,1,0,0,6.310851000000184,number1,True,True,True,37,2,2019_Nov_19_1508,MA_Theta_Exp,3.0.7,60.109230493981975,
video/Experiment/zh_sp07_Un_Ro_4_NoThetaInAudio_NoVideo.avi,noTheta,noVideo,sp07,Un,Ro,4,3,4,flow/blocks/NoThetaInAudio_NoVideo_B.csv,,,,,,,,,0,3,3,3,0,11,11,27,,,,,,,,,-0.4097222222222222,-0.31805555555555554,1,0,0,4.327639799999815,call4,-0.03888888888888889,-0.12916666666666668,1,0,0,4.725311300000612,colour3,0.39444444444444443,-0.3263888888888889,1,0,0,5.148756000000503,number4,True,True,True,37,2,2019_Nov_19_1508,MA_Theta_Exp,3.0.7,60.109230493981975,
video/Experiment/zh_sp01_Ad_Ge_1_NoThetaInAudio_NoVideo.avi,noTheta,noVideo,sp01,Ad,Ge,1,3,4,flow/blocks/NoThetaInAudio_NoVideo_B.csv,,,,,,,,,0,3,3,3,0,12,12,16,,,,,,,,,-0.3402777777777778,0.32083333333333336,1,0,0,5.2680966000007174,call1,-0.043055555555555555,0.31666666666666665,1,0,0,5.637268099999346,colour1,0.39166666666666666,0.2972222222222222,1,0,0,6.111844099999871,number1,True,True,True,37,2,2019_Nov_19_1508,MA_Theta_Exp,3.0.7,60.109230493981975,
video/Experiment/zh_sp07_Un_Ro_2_NoThetaInAudio_NoVideo.avi,noTheta,noVideo,sp07,Un,Ro,2,3,4,flow/blocks/NoThetaInAudio_NoVideo_B.csv,,,,,,,,,0,3,3,3,0,13,13,9,,,,,,,,,-0.36527777777777776,-0.3263888888888889,1,0,0,4.8923231000007945,call4,-0.013888888888888888,-0.15555555555555556,1,0,0,5.266737100000682,colour3,0.4444444444444444,0.08055555555555556,1,0,0,6.163239400000748,number2,True,True,True,37,2,2019_Nov_19_1508,MA_Theta_Exp,3.0.7,60.109230493981975,
video/Experiment/zh_sp07_Dr_We_4_NoThetaInAudio_NoVideo.avi,noTheta,noVideo,sp07,Dr,We,4,3,4,flow/blocks/NoThetaInAudio_NoVideo_B.csv,,,,,,,,,0,3,3,3,0,14,14,15,,,,,,,,,-0.4013888888888889,0.12083333333333333,1,0,0,4.390498300001127,call2,0.020833333333333332,-0.29444444444444445,1,0,0,4.989208299999518,colour4,0.3680555555555556,-0.3333333333333333,1,0,0,5.362381799999639,number4,True,True,True,37,2,2019_Nov_19_1508,MA_Theta_Exp,3.0.7,60.109230493981975,
video/Experiment/zh_sp01_Dr_Ge_3_NoThetaInAudio_NoVideo.avi,noTheta,noVideo,sp01,Dr,Ge,3,3,4,flow/blocks/NoThetaInAudio_NoVideo_B.csv,,,,,,,,,0,3,3,3,0,15,15,2,,,,,,,,,-0.35694444444444445,0.08611111111111111,1,0,0,4.972904600001129,call2,-0.02638888888888889,0.3125,1,0,0,5.439402200001496,colour1,0.3263888888888889,-0.04861111111111111,1,0,0,5.923478199998499,number3,True,True,True,37,2,2019_Nov_19_1508,MA_Theta_Exp,3.0.7,60.109230493981975,
video/Experiment/zh_sp07_Ad_Gr_4_NoThetaInAudio_NoVideo.avi,noTheta,noVideo,sp07,Ad,Gr,4,3,4,flow/blocks/NoThetaInAudio_NoVideo_B.csv,,,,,,,,,0,3,3,3,0,16,16,7,,,,,,,,,-0.35833333333333334,0.08333333333333333,1,0,0,4.367786299999352,call2,0.02638888888888889,0.06805555555555555,1,0,0,4.770833599999605,colour2,0.42916666666666664,-0.30277777777777776,1,0,0,5.325344799999584,number4,False,True,True,37,2,2019_Nov_19_1508,MA_Theta_Exp,3.0.7,60.109230493981975,
video/Experiment/zh_sp01_Ti_We_1_NoThetaInAudio_NoVideo.avi,noTheta,noVideo,sp01,Ti,We,1,3,4,flow/blocks/NoThetaInAudio_NoVideo_B.csv,,,,,,,,,0,3,3,3,0,17,17,12,,,,,,,,,-0.3333333333333333,-0.13333333333333333,1,0,0,4.968479000001025,call3,0.008333333333333333,-0.30416666666666664,1,0,0,5.434479200001078,colour4,0.3861111111111111,0.2708333333333333,1,0,0,6.152493199999299,number1,True,True,True,37,2,2019_Nov_19_1508,MA_Theta_Exp,3.0.7,60.109230493981975,
video/Experiment/zh_sp01_Ad_We_4_NoThetaInAudio_NoVideo.avi,noTheta,noVideo,sp01,Ad,We,4,3,4,flow/blocks/NoThetaInAudio_NoVideo_B.csv,,,,,,,,,0,3,3,3,0,18,18,31,,,,,,,,,-0.4,0.24583333333333332,1,0,0,4.88775220000025,call1,0.020833333333333332,-0.32916666666666666,1,0,0,5.648070100000041,colour4,0.36666666666666664,-0.36944444444444446,1,0,0,6.030925699998988,number4,True,True,True,37,2,2019_Nov_19_1508,MA_Theta_Exp,3.0.7,60.109230493981975,
video/Experiment/zh_sp07_Ti_We_3_NoThetaInAudio_NoVideo.avi,noTheta,noVideo,sp07,Ti,We,3,3,4,flow/blocks/NoThetaInAudio_NoVideo_B.csv,,,,,,,,,0,3,3,3,0,19,19,30,,,,,,,,,-0.4152777777777778,-0.12777777777777777,1,0,0,4.848994899999525,call3,0.08611111111111111,-0.3680555555555556,1,0,0,5.40479570000025,colour4,0.39861111111111114,-0.09166666666666666,1,0,0,5.905710999999428,number3,True,True,True,37,2,2019_Nov_19_1508,MA_Theta_Exp,3.0.7,60.109230493981975,
video/Experiment/zh_sp07_Ad_Ro_2_NoThetaInAudio_NoVideo.avi,noTheta,noVideo,sp07,Ad,Ro,2,3,4,flow/blocks/NoThetaInAudio_NoVideo_B.csv,,,,,,,,,0,3,3,3,0,20,20,25,,,,,,,,,-0.38472222222222224,0.30416666666666664,1,0,0,4.317596400000184,call1,0.034722222222222224,-0.10555555555555556,1,0,0,4.937313000000358,colour3,0.3958333333333333,0.12916666666666668,1,0,0,5.434782299998915,number2,True,True,True,37,2,2019_Nov_19_1508,MA_Theta_Exp,3.0.7,60.109230493981975,
video/Experiment/zh_sp07_Un_Gr_3_NoThetaInAudio_NoVideo.avi,noTheta,noVideo,sp07,Un,Gr,3,3,4,flow/blocks/NoThetaInAudio_NoVideo_B.csv,,,,,,,,,0,3,3,3,0,21,21,6,,,,,,,,,-0.3763888888888889,0.11944444444444445,1,0,0,4.315296799999487,call2,-0.04861111111111111,0.06805555555555555,1,0,0,4.694012100000691,colour2,0.36944444444444446,-0.11944444444444445,1,0,0,5.1325550000001385,number3,False,True,True,37,2,2019_Nov_19_1508,MA_Theta_Exp,3.0.7,60.109230493981975,
video/Experiment/zh_sp01_Un_Gr_2_NoThetaInAudio_NoVideo.avi,noTheta,noVideo,sp01,Un,Gr,2,3,4,flow/blocks/NoThetaInAudio_NoVideo_B.csv,,,,,,,,,0,3,3,3,0,22,22,5,,,,,,,,,-0.3680555555555556,0.11666666666666667,1,0,0,5.164227600000231,call2,-0.004166666666666667,0.06944444444444445,1,0,0,5.551681099999769,colour2,0.3736111111111111,0.08055555555555556,1,0,0,5.95191049999994,number2,False,True,True,37,2,2019_Nov_19_1508,MA_Theta_Exp,3.0.7,60.109230493981975,
video/Experiment/zh_sp07_Ti_Ro_4_NoThetaInAudio_NoVideo.avi,noTheta,noVideo,sp07,Ti,Ro,4,3,4,flow/blocks/NoThetaInAudio_NoVideo_B.csv,,,,,,,,,0,3,3,3,0,23,23,11,,,,,,,,,-0.38055555555555554,-0.14583333333333334,1,0,0,4.497904500000004,call3,-0.018055555555555554,-0.12083333333333333,1,0,0,4.940592099999776,colour3,0.38055555555555554,-0.30277777777777776,1,0,0,5.434027299999798,number4,True,True,True,37,2,2019_Nov_19_1508,MA_Theta_Exp,3.0.7,60.109230493981975,
video/Experiment/zh_sp01_Ad_Ge_3_NoThetaInAudio_NoVideo.avi,noTheta,noVideo,sp01,Ad,Ge,3,3,4,flow/blocks/NoThetaInAudio_NoVideo_B.csv,,,,,,,,,0,3,3,3,0,24,24,18,,,,,,,,,-0.3402777777777778,0.29305555555555557,1,0,0,5.061877000000095,call1,-0.004166666666666667,0.3055555555555556,1,0,0,5.541854399998556,colour1,0.4097222222222222,-0.05694444444444444,1,0,0,6.2585144999993645,number3,True,True,True,37,2,2019_Nov_19_1508,MA_Theta_Exp,3.0.7,60.109230493981975,
video/Experiment/zh_sp07_Ad_Ro_3_NoThetaInAudio_NoVideo.avi,noTheta,noVideo,sp07,Ad,Ro,3,3,4,flow/blocks/NoThetaInAudio_NoVideo_B.csv,,,,,,,,,0,3,3,3,0,25,25,10,,,,,,,,,-0.37222222222222223,0.3277777777777778,1,0,0,4.616880100000344,call1,-0.03333333333333333,-0.12777777777777777,1,0,0,5.267323599999145,colour3,0.3763888888888889,-0.1111111111111111,1,0,0,5.834990400000606,number3,True,True,True,37,2,2019_Nov_19_1508,MA_Theta_Exp,3.0.7,60.109230493981975,
video/Experiment/zh_sp07_Un_Ge_1_NoThetaInAudio_NoVideo.avi,noTheta,noVideo,sp07,Un,Ge,1,3,4,flow/blocks/NoThetaInAudio_NoVideo_B.csv,,,,,,,,,0,3,3,3,0,26,26,0,,,,,,,,,-0.38055555555555554,0.08611111111111111,1,0,0,4.458254600000146,call2,-0.025,0.30416666666666664,1,0,0,4.907694399998945,colour1,0.36944444444444446,0.31805555555555554,1,0,0,5.325641800000085,number1,False,True,True,37,2,2019_Nov_19_1508,MA_Theta_Exp,3.0.7,60.109230493981975,
video/Experiment/zh_sp01_Un_Ge_4_NoThetaInAudio_NoVideo.avi,noTheta,noVideo,sp01,Un,Ge,4,3,4,flow/blocks/NoThetaInAudio_NoVideo_B.csv,,,,,,,,,0,3,3,3,0,27,27,19,,,,,,,,,-0.3888888888888889,-0.35138888888888886,1,0,0,4.913655600001221,call4,0.005555555555555556,0.29444444444444445,1,0,0,5.5613352000000305,colour1,0.3819444444444444,-0.2986111111111111,1,0,0,6.127817500000674,number4,True,True,True,37,2,2019_Nov_19_1508,MA_Theta_Exp,3.0.7,60.109230493981975,
video/Experiment/zh_sp01_Un_We_2_NoThetaInAudio_NoVideo.avi,noTheta,noVideo,sp01,Un,We,2,3,4,flow/blocks/NoThetaInAudio_NoVideo_B.csv,,,,,,,,,0,3,3,3,0,28,28,13,,,,,,,,,-0.3861111111111111,-0.3125,1,0,0,5.043324100000973,call4,-0.013888888888888888,-0.325,1,0,0,5.359427500001402,colour4,0.425,0.08194444444444444,1,0,0,5.931492300000173,number2,True,True,True,37,2,2019_Nov_19_1508,MA_Theta_Exp,3.0.7,60.109230493981975,
video/Experiment/zh_sp07_Ad_Ge_4_NoThetaInAudio_NoVideo.avi,noTheta,noVideo,sp07,Ad,Ge,4,3,4,flow/blocks/NoThetaInAudio_NoVideo_B.csv,,,,,,,,,0,3,3,3,0,29,29,3,,,,,,,,,-0.3888888888888889,0.3111111111111111,1,0,0,4.428535299999567,call1,-0.05416666666666667,0.27361111111111114,1,0,0,4.81253149999975,colour1,0.3902777777777778,-0.28055555555555556,1,0,0,5.495474000001195,number4,True,True,True,37,2,2019_Nov_19_1508,MA_Theta_Exp,3.0.7,60.109230493981975,
video/Experiment/zh_sp01_Ti_Gr_3_NoThetaInAudio_NoVideo.avi,noTheta,noVideo,sp01,Ti,Gr,3,3,4,flow/blocks/NoThetaInAudio_NoVideo_B.csv,,,,,,,,,0,3,3,3,0,30,30,22,,,,,,,,,-0.4027777777777778,-0.09305555555555556,1,0,0,5.2549041000002035,call3,-0.044444444444444446,0.08194444444444444,1,0,0,6.226798000001509,colour2,0.4097222222222222,-0.32916666666666666,1,0,0,7.904671400001462,number4,True,True,False,37,2,2019_Nov_19_1508,MA_Theta_Exp,3.0.7,60.109230493981975,
video/Experiment/zh_sp01_Ad_Ge_2_NoThetaInAudio_NoVideo.avi,noTheta,noVideo,sp01,Ad,Ge,2,3,4,flow/blocks/NoThetaInAudio_NoVideo_B.csv,,,,,,,,,0,3,3,3,0,31,31,1,,,,,,,,,-0.43472222222222223,0.3388888888888889,1,0,0,4.929180399998586,call1,-0.06666666666666667,0.28055555555555556,1,0,0,5.3250997999984975,colour1,0.38472222222222224,0.04861111111111111,1,0,0,5.873804599999858,number2,True,True,True,37,2,2019_Nov_19_1508,MA_Theta_Exp,3.0.7,60.109230493981975,
video/Experiment/zh_sp07_Un_Ge_3_NVocInAudio_NoVideo.avi,vocoded,noVideo,sp07,Un,Ge,3,4,2,flow/blocks/NVocInAudio_NoVideo_A.csv,,,,,,,,,0,4,4,4,0,0,0,2,,,,,,,,,-0.4,-0.3013888888888889,1,0,0,4.5759315000013885,call4,-0.006944444444444444,0.28888888888888886,1,0,0,5.2921915000006265,colour1,0.3972222222222222,-0.11388888888888889,1,0,0,5.8882291999998415,number3,True,True,True,37,2,2019_Nov_19_1508,MA_Theta_Exp,3.0.7,60.109230493981975,
video/Experiment/zh_sp07_Un_We_1_NVocInAudio_NoVideo.avi,vocoded,noVideo,sp07,Un,We,1,4,2,flow/blocks/NVocInAudio_NoVideo_A.csv,,,,,,,,,0,4,4,4,0,1,1,28,,,,,,,,,-0.3736111111111111,-0.33055555555555555,1,0,0,4.298778400001538,call4,0.008333333333333333,-0.2986111111111111,1,0,0,4.615121900000304,colour4,0.4361111111111111,0.30833333333333335,1,0,0,5.244666000000507,number1,True,True,True,37,2,2019_Nov_19_1508,MA_Theta_Exp,3.0.7,60.109230493981975,
video/Experiment/zh_sp07_Dr_Gr_4_NVocInAudio_NoVideo.avi,vocoded,noVideo,sp07,Dr,Gr,4,4,2,flow/blocks/NVocInAudio_NoVideo_A.csv,,,,,,,,,0,4,4,4,0,2,2,23,,,,,,,,,-0.3625,0.10416666666666667,1,0,0,4.4882180000004155,call2,-0.06805555555555555,0.08333333333333333,1,0,0,4.88373429999956,colour2,0.44166666666666665,-0.34444444444444444,1,0,0,5.441401800000676,number4,True,True,True,37,2,2019_Nov_19_1508,MA_Theta_Exp,3.0.7,60.109230493981975,
video/Experiment/zh_sp07_Ad_We_2_NVocInAudio_NoVideo.avi,vocoded,noVideo,sp07,Ad,We,2,4,2,flow/blocks/NVocInAudio_NoVideo_A.csv,,,,,,,,,0,4,4,4,0,3,3,29,,,,,,,,,-0.4375,0.3263888888888889,1,0,0,4.546271100000013,call1,-0.034722222222222224,-0.2625,1,0,0,5.329742800000531,colour4,0.43472222222222223,0.0375,1,0,0,5.896749600000476,number2,True,True,True,37,2,2019_Nov_19_1508,MA_Theta_Exp,3.0.7,60.109230493981975,
video/Experiment/zh_sp07_Dr_Ro_4_NVocInAudio_NoVideo.avi,vocoded,noVideo,sp07,Dr,Ro,4,4,2,flow/blocks/NVocInAudio_NoVideo_A.csv,,,,,,,,,0,4,4,4,0,4,4,27,,,,,,,,,-0.4236111111111111,0.09305555555555556,1,0,0,4.730042699999103,call2,0.029166666666666667,-0.09305555555555556,1,0,0,5.480486200000087,colour3,0.35555555555555557,-0.30416666666666664,1,0,0,5.948622100000648,number4,True,True,True,37,2,2019_Nov_19_1508,MA_Theta_Exp,3.0.7,60.109230493981975,
video/Experiment/zh_sp07_Ad_Ro_1_NVocInAudio_NoVideo.avi,vocoded,noVideo,sp07,Ad,Ro,1,4,2,flow/blocks/NVocInAudio_NoVideo_A.csv,,,,,,,,,0,4,4,4,0,5,5,8,,,,,,,,,-0.31666666666666665,0.3138888888888889,1,0,0,4.168402400000559,call1,-0.029166666666666667,-0.13194444444444445,1,0,0,4.720047599999816,colour3,0.4,0.25555555555555554,1,0,0,5.207370199999787,number1,True,True,True,37,2,2019_Nov_19_1508,MA_Theta_Exp,3.0.7,60.109230493981975,
video/Experiment/zh_sp01_Dr_Gr_3_NVocInAudio_NoVideo.avi,vocoded,noVideo,sp01,Dr,Gr,3,4,2,flow/blocks/NVocInAudio_NoVideo_A.csv,,,,,,,,,0,4,4,4,0,6,6,6,,,,,,,,,-0.39166666666666666,0.1,1,0,0,4.962913199999093,call2,-0.0625,0.10833333333333334,1,0,0,5.3626703000009,colour2,0.375,-0.10972222222222222,1,0,0,5.800867799998741,number3,True,True,True,37,2,2019_Nov_19_1508,MA_Theta_Exp,3.0.7,60.109230493981975,
video/Experiment/zh_sp01_Un_Ge_2_NVocInAudio_NoVideo.avi,vocoded,noVideo,sp01,Un,Ge,2,4,2,flow/blocks/NVocInAudio_NoVideo_A.csv,,,,,,,,,0,4,4,4,0,7,7,17,,,,,,,,,-0.3541666666666667,-0.3680555555555556,1,0,0,4.864336000000549,call4,0.025,0.28888888888888886,1,0,0,5.51884980000068,colour1,0.33611111111111114,0.0763888888888889,1,0,0,5.904194799999459,number2,True,True,True,37,2,2019_Nov_19_1508,MA_Theta_Exp,3.0.7,60.109230493981975,
video/Experiment/zh_sp07_Ad_Gr_3_NVocInAudio_NoVideo.avi,vocoded,noVideo,sp07,Ad,Gr,3,4,2,flow/blocks/NVocInAudio_NoVideo_A.csv,,,,,,,,,0,4,4,4,0,8,8,22,,,,,,,,,-0.3458333333333333,0.30277777777777776,1,0,0,4.664022999999361,call1,0.04861111111111111,0.06805555555555555,1,0,0,5.196952399999645,colour2,0.3597222222222222,-0.11666666666666667,1,0,0,5.667869099999734,number3,True,True,True,37,2,2019_Nov_19_1508,MA_Theta_Exp,3.0.7,60.109230493981975,
video/Experiment/zh_sp07_Un_Ro_1_NVocInAudio_NoVideo.avi,vocoded,noVideo,sp07,Un,Ro,1,4,2,flow/blocks/NVocInAudio_NoVideo_A.csv,,,,,,,,,0,4,4,4,0,9,9,24,,,,,,,,,-0.4097222222222222,-0.30416666666666664,1,0,0,4.321863699999085,call4,-0.011111111111111112,-0.10833333333333334,1,0,0,4.834361100000024,colour3,0.4236111111111111,0.3,1,0,0,5.354852700000265,number1,True,True,True,37,2,2019_Nov_19_1508,MA_Theta_Exp,3.0.7,60.109230493981975,
video/Experiment/zh_sp07_Ti_Ro_2_NVocInAudio_NoVideo.avi,vocoded,noVideo,sp07,Ti,Ro,2,4,2,flow/blocks/NVocInAudio_NoVideo_A.csv,,,,,,,,,0,4,4,4,0,10,10,25,,,,,,,,,-0.38333333333333336,-0.11388888888888889,1,0,0,4.613892400000623,call3,0.020833333333333332,-0.09444444444444444,1,0,0,5.013897200000429,colour3,0.31527777777777777,0.11944444444444445,1,0,0,5.397894499999893,number2,True,True,True,37,2,2019_Nov_19_1508,MA_Theta_Exp,3.0.7,60.109230493981975,
video/Experiment/zh_sp01_Ti_Gr_4_NVocInAudio_NoVideo.avi,vocoded,noVideo,sp01,Ti,Gr,4,4,2,flow/blocks/NVocInAudio_NoVideo_A.csv,,,,,,,,,0,4,4,4,0,11,11,7,,,,,,,,,-0.3888888888888889,-0.11805555555555555,1,0,0,5.035144100000252,call3,-0.019444444444444445,0.059722222222222225,1,0,0,5.407285999999658,colour2,0.33194444444444443,-0.2833333333333333,1,0,0,5.970012899999347,number4,True,True,True,37,2,2019_Nov_19_1508,MA_Theta_Exp,3.0.7,60.109230493981975,
video/Experiment/zh_sp01_Dr_Ro_2_NVocInAudio_NoVideo.avi,vocoded,noVideo,sp01,Dr,Ro,2,4,2,flow/blocks/NVocInAudio_NoVideo_A.csv,,,,,,,,,0,4,4,4,0,12,12,9,,,,,,,,,-0.38333333333333336,0.06388888888888888,1,0,0,5.227996199999325,call2,-0.013888888888888888,-0.08611111111111111,1,0,0,5.757805699999153,colour3,0.37083333333333335,0.075,1,0,0,6.342066499999419,number2,True,True,True,37,2,2019_Nov_19_1508,MA_Theta_Exp,3.0.7,60.109230493981975,
video/Experiment/zh_sp01_Ad_We_1_NVocInAudio_NoVideo.avi,vocoded,noVideo,sp01,Ad,We,1,4,2,flow/blocks/NVocInAudio_NoVideo_A.csv,,,,,,,,,0,4,4,4,0,13,13,12,,,,,,,,,-0.3472222222222222,0.3333333333333333,1,0,0,4.95812289999958,call1,-0.015277777777777777,-0.3013888888888889,1,0,0,5.662575600001219,colour4,0.3902777777777778,0.2916666666666667,1,0,0,6.290543600000092,number1,True,True,True,37,2,2019_Nov_19_1508,MA_Theta_Exp,3.0.7,60.109230493981975,
video/Experiment/zh_sp07_Un_We_4_NVocInAudio_NoVideo.avi,vocoded,noVideo,sp07,Un,We,4,4,2,flow/blocks/NVocInAudio_NoVideo_A.csv,,,,,,,,,0,4,4,4,0,14,14,15,,,,,,,,,-0.3875,-0.32916666666666666,1,0,0,4.479219099999682,call4,0.05416666666666667,-0.31527777777777777,1,0,0,4.897176099999342,colour4,0.4263888888888889,-0.29305555555555557,1,0,0,5.246422400001393,number4,True,True,True,37,2,2019_Nov_19_1508,MA_Theta_Exp,3.0.7,60.109230493981975,
video/Experiment/zh_sp07_Un_Gr_1_NVocInAudio_NoVideo.avi,vocoded,noVideo,sp07,Un,Gr,1,4,2,flow/blocks/NVocInAudio_NoVideo_A.csv,,,,,,,,,0,4,4,4,0,15,15,20,,,,,,,,,-0.3958333333333333,-0.3194444444444444,1,0,0,4.625933099998292,call4,0.030555555555555555,0.10416666666666667,1,0,0,5.177956499999709,colour2,0.35,0.3347222222222222,1,0,0,5.643972399999257,number1,True,True,True,37,2,2019_Nov_19_1508,MA_Theta_Exp,3.0.7,60.109230493981975,
video/Experiment/zh_sp01_Dr_Ge_1_NVocInAudio_NoVideo.avi,vocoded,noVideo,sp01,Dr,Ge,1,4,2,flow/blocks/NVocInAudio_NoVideo_A.csv,,,,,,,,,0,4,4,4,0,16,16,0,,,,,,,,,-0.3527777777777778,0.10833333333333334,1,0,0,5.061561300000903,call2,-0.04583333333333333,0.2611111111111111,1,0,0,5.493832899999688,colour1,0.40694444444444444,0.3236111111111111,1,0,0,5.926573400000052,number1,True,True,True,37,2,2019_Nov_19_1508,MA_Theta_Exp,3.0.7,60.109230493981975,
video/Experiment/zh_sp01_Dr_Ge_4_NVocInAudio_NoVideo.avi,vocoded,noVideo,sp01,Dr,Ge,4,4,2,flow/blocks/NVocInAudio_NoVideo_A.csv,,,,,,,,,0,4,4,4,0,17,17,19,,,,,,,,,-0.3486111111111111,0.0763888888888889,1,0,0,4.9081213000008574,call2,-0.03333333333333333,0.2833333333333333,1,0,0,5.295157799999288,colour1,0.3597222222222222,-0.2875,1,0,0,5.880334699999366,number4,True,True,True,37,2,2019_Nov_19_1508,MA_Theta_Exp,3.0.7,60.109230493981975,
video/Experiment/zh_sp01_Ti_Ge_1_NVocInAudio_NoVideo.avi,vocoded,noVideo,sp01,Ti,Ge,1,4,2,flow/blocks/NVocInAudio_NoVideo_A.csv,,,,,,,,,0,4,4,4,0,18,18,16,,,,,,,,,-0.3416666666666667,-0.1388888888888889,1,0,0,5.249144800000067,call3,0.05694444444444444,0.29444444444444445,1,0,0,5.800664100001086,colour1,0.4083333333333333,0.31805555555555554,1,0,0,6.148961400000189,number1,True,True,True,37,2,2019_Nov_19_1508,MA_Theta_Exp,3.0.7,60.109230493981975,
video/Experiment/zh_sp07_Dr_We_2_NVocInAudio_NoVideo.avi,vocoded,noVideo,sp07,Dr,We,2,4,2,flow/blocks/NVocInAudio_NoVideo_A.csv,,,,,,,,,0,4,4,4,0,19,19,13,,,,,,,,,-0.38472222222222224,0.10416666666666667,1,0,0,4.667655400000513,call2,0.015277777777777777,-0.325,1,0,0,5.281426100000317,colour4,0.38472222222222224,0.12638888888888888,1,0,0,6.119461899999806,number2,True,True,True,37,2,2019_Nov_19_1508,MA_Theta_Exp,3.0.7,60.109230493981975,
video/Experiment/zh_sp01_Ti_We_4_NVocInAudio_NoVideo.avi,vocoded,noVideo,sp01,Ti,We,4,4,2,flow/blocks/NVocInAudio_NoVideo_A.csv,,,,,,,,,0,4,4,4,0,20,20,31,,,,,,,,,-0.4125,-0.09027777777777778,1,0,0,5.043147600001248,call3,-0.02638888888888889,-0.3736111111111111,1,0,0,5.489413900000727,colour4,0.4,-0.34444444444444444,1,0,0,5.872923800001445,number4,True,True,True,37,2,2019_Nov_19_1508,MA_Theta_Exp,3.0.7,60.109230493981975,
video/Experiment/zh_sp07_Ti_Ge_4_NVocInAudio_NoVideo.avi,vocoded,noVideo,sp07,Ti,Ge,4,4,2,flow/blocks/NVocInAudio_NoVideo_A.csv,,,,,,,,,0,4,4,4,0,21,21,3,,,,,,,,,-0.3875,-0.09166666666666666,1,0,0,4.611131699999532,call3,-0.011111111111111112,0.31527777777777777,1,0,0,5.081459700000778,colour1,0.3888888888888889,-0.30416666666666664,1,0,0,5.79472750000059,number4,True,True,True,37,2,2019_Nov_19_1508,MA_Theta_Exp,3.0.7,60.109230493981975,
video/Experiment/zh_sp01_Dr_Gr_2_NVocInAudio_NoVideo.avi,vocoded,noVideo,sp01,Dr,Gr,2,4,2,flow/blocks/NVocInAudio_NoVideo_A.csv,,,,,,,,,0,4,4,4,0,22,22,5,,,,,,,,,-0.3416666666666667,0.08333333333333333,1,0,0,5.170834900000045,call2,0.020833333333333332,0.09722222222222222,1,0,0,5.52296700000079,colour2,0.37777777777777777,0.11388888888888889,1,0,0,5.94328250000035,number2,True,True,True,37,2,2019_Nov_19_1508,MA_Theta_Exp,3.0.7,60.109230493981975,
video/Experiment/zh_sp01_Ti_Ro_3_NVocInAudio_NoVideo.avi,vocoded,noVideo,sp01,Ti,Ro,3,4,2,flow/blocks/NVocInAudio_NoVideo_A.csv,,,,,,,,,0,4,4,4,0,23,23,10,,,,,,,,,-0.4166666666666667,-0.12361111111111112,1,0,0,5.043907799999943,call3,-0.011111111111111112,0.09305555555555556,1,0,0,5.462665400000333,colour2,0.31805555555555554,-0.09722222222222222,1,0,0,5.832445599999119,number3,True,False,True,37,2,2019_Nov_19_1508,MA_Theta_Exp,3.0.7,60.109230493981975,
video/Experiment/zh_sp01_Ad_Gr_1_NVocInAudio_NoVideo.avi,vocoded,noVideo,sp01,Ad,Gr,1,4,2,flow/blocks/NVocInAudio_NoVideo_A.csv,,,,,,,,,0,4,4,4,0,24,24,4,,,,,,,,,-0.3541666666666667,0.2986111111111111,1,0,0,5.238896700000623,call1,-0.008333333333333333,0.14305555555555555,1,0,0,5.6063736000014615,colour2,0.3763888888888889,0.3375,1,0,0,5.987780700001167,number1,True,True,True,37,2,2019_Nov_19_1508,MA_Theta_Exp,3.0.7,60.109230493981975,
video/Experiment/zh_sp01_Ad_Gr_2_NVocInAudio_NoVideo.avi,vocoded,noVideo,sp01,Ad,Gr,2,4,2,flow/blocks/NVocInAudio_NoVideo_A.csv,,,,,,,,,0,4,4,4,0,25,25,21,,,,,,,,,-0.33611111111111114,0.2722222222222222,1,0,0,5.125844099999085,call1,-0.022222222222222223,0.125,1,0,0,5.542562399999952,colour2,0.3472222222222222,0.0875,1,0,0,5.9060599000004,number2,True,True,True,37,2,2019_Nov_19_1508,MA_Theta_Exp,3.0.7,60.109230493981975,
video/Experiment/zh_sp01_Ad_Ro_4_NVocInAudio_NoVideo.avi,vocoded,noVideo,sp01,Ad,Ro,4,4,2,flow/blocks/NVocInAudio_NoVideo_A.csv,,,,,,,,,0,4,4,4,0,26,26,11,,,,,,,,,-0.3625,0.35833333333333334,1,0,0,5.120533600000272,call1,0.05138888888888889,-0.10972222222222222,1,0,0,5.631676700000753,colour3,0.37777777777777777,-0.38472222222222224,1,0,0,6.037927699999273,number4,True,True,True,37,2,2019_Nov_19_1508,MA_Theta_Exp,3.0.7,60.109230493981975,
video/Experiment/zh_sp07_Ad_We_3_NVocInAudio_NoVideo.avi,vocoded,noVideo,sp07,Ad,We,3,4,2,flow/blocks/NVocInAudio_NoVideo_A.csv,,,,,,,,,0,4,4,4,0,27,27,30,,,,,,,,,-0.3888888888888889,0.3277777777777778,1,0,0,4.3493149999994785,call1,0.009722222222222222,-0.34444444444444444,1,0,0,5.032696500000384,colour4,0.37083333333333335,-0.11388888888888889,1,0,0,5.519652799999676,number3,True,True,True,37,2,2019_Nov_19_1508,MA_Theta_Exp,3.0.7,60.109230493981975,
video/Experiment/zh_sp07_Ti_Ge_2_NVocInAudio_NoVideo.avi,vocoded,noVideo,sp07,Ti,Ge,2,4,2,flow/blocks/NVocInAudio_NoVideo_A.csv,,,,,,,,,0,4,4,4,0,28,28,1,,,,,,,,,-0.33055555555555555,-0.08333333333333333,1,0,0,4.710858899999948,call3,0.022222222222222223,0.30972222222222223,1,0,0,5.281263599999875,colour1,0.44722222222222224,0.04722222222222222,1,0,0,5.7785082000009425,number2,True,True,True,37,2,2019_Nov_19_1508,MA_Theta_Exp,3.0.7,60.109230493981975,
video/Experiment/zh_sp01_Ti_Ge_3_NVocInAudio_NoVideo.avi,vocoded,noVideo,sp01,Ti,Ge,3,4,2,flow/blocks/NVocInAudio_NoVideo_A.csv,,,,,,,,,0,4,4,4,0,29,29,18,,,,,,,,,-0.37777777777777777,-0.14166666666666666,1,0,0,4.950920599998426,call3,0.008333333333333333,0.3055555555555556,1,0,0,5.488683699999456,colour1,0.37222222222222223,-0.12638888888888888,1,0,0,6.08896950000053,number3,True,True,True,37,2,2019_Nov_19_1508,MA_Theta_Exp,3.0.7,60.109230493981975,
video/Experiment/zh_sp07_Un_We_3_NVocInAudio_NoVideo.avi,vocoded,noVideo,sp07,Un,We,3,4,2,flow/blocks/NVocInAudio_NoVideo_A.csv,,,,,,,,,0,4,4,4,0,30,30,14,,,,,,,,,-0.4305555555555556,-0.37222222222222223,1,0,0,4.065428500000053,call4,-0.05277777777777778,-0.34444444444444444,1,0,0,4.4685423000009905,colour4,0.3638888888888889,-0.125,1,0,0,4.899586900000941,number3,True,True,True,37,2,2019_Nov_19_1508,MA_Theta_Exp,3.0.7,60.109230493981975,
video/Experiment/zh_sp01_Un_Ro_3_NVocInAudio_NoVideo.avi,vocoded,noVideo,sp01,Un,Ro,3,4,2,flow/blocks/NVocInAudio_NoVideo_A.csv,,,,,,,,,0,4,4,4,0,31,31,26,,,,,,,,,-0.3888888888888889,-0.3111111111111111,1,0,0,5.021078599998873,call4,0.008333333333333333,-0.08055555555555556,1,0,0,5.559646199999406,colour3,0.35,-0.12222222222222222,1,0,0,6.071383999998943,number3,True,True,True,37,2,2019_Nov_19_1508,MA_Theta_Exp,3.0.7,60.109230493981975,
video/Experiment/zh_sp07_Un_Ge_4_NoThetaInAudio_GlobalThetaInVideo.avi,noTheta,plusVideo,sp07,Un,Ge,4,0,3,flow/blocks/NoThetaInAudio_GlobalThetaInVideo_B.csv,,,,,,,,,,,,,,,,,0,0,0,0,0,0,0,19,-0.39490740740740743,-0.325,1,0,0,5.466085899999598,call4,0.016203703703703703,-0.10972222222222222,1,0,0,6.013069700000415,colour3,0.3523148148148148,-0.10833333333333334,1,0,0,6.452672600000369,number3,True,False,False,37,2,2019_Nov_19_1508,MA_Theta_Exp,3.0.7,60.109230493981975,
video/Experiment/zh_sp07_Ti_We_2_NoThetaInAudio_GlobalThetaInVideo.avi,noTheta,plusVideo,sp07,Ti,We,2,0,3,flow/blocks/NoThetaInAudio_GlobalThetaInVideo_B.csv,,,,,,,,,,,,,,,,,0,0,0,0,0,1,1,29,-0.34074074074074073,-0.14305555555555555,1,0,0,4.753932599998734,call3,0.024537037037037038,-0.2972222222222222,1,0,0,5.604847199998403,colour4,0.4148148148148148,0.08611111111111111,1,0,0,6.221278600000005,number2,True,True,True,37,2,2019_Nov_19_1508,MA_Theta_Exp,3.0.7,60.109230493981975,
video/Experiment/zh_sp01_Dr_Ge_2_NoThetaInAudio_GlobalThetaInVideo.avi,noTheta,plusVideo,sp01,Dr,Ge,2,0,3,flow/blocks/NoThetaInAudio_GlobalThetaInVideo_B.csv,,,,,,,,,,,,,,,,,0,0,0,0,0,2,2,17,-0.33796296296296297,0.06666666666666667,1,0,0,5.047330200000943,call2,0.023148148148148147,0.2986111111111111,1,0,0,5.4968016000002535,colour1,0.31342592592592594,0.10694444444444444,1,0,0,5.9477634000013495,number2,True,True,True,37,2,2019_Nov_19_1508,MA_Theta_Exp,3.0.7,60.109230493981975,
video/Experiment/zh_sp07_Ti_Gr_2_NoThetaInAudio_GlobalThetaInVideo.avi,noTheta,plusVideo,sp07,Ti,Gr,2,0,3,flow/blocks/NoThetaInAudio_GlobalThetaInVideo_B.csv,,,,,,,,,,,,,,,,,0,0,0,0,0,3,3,21,-0.39351851851851855,-0.11805555555555555,1,0,0,4.72672429999875,call3,-0.02962962962962963,0.0763888888888889,1,0,0,5.105148900000131,colour2,0.3037037037037037,0.10833333333333334,1,0,0,5.440523900000699,number2,True,True,True,37,2,2019_Nov_19_1508,MA_Theta_Exp,3.0.7,60.109230493981975,
video/Experiment/zh_sp01_Dr_Ro_3_NoThetaInAudio_GlobalThetaInVideo.avi,noTheta,plusVideo,sp01,Dr,Ro,3,0,3,flow/blocks/NoThetaInAudio_GlobalThetaInVideo_B.csv,,,,,,,,,,,,,,,,,0,0,0,0,0,4,4,26,-0.42685185185185187,0.0763888888888889,1,0,0,4.920376199999737,call2,-0.014351851851851852,0.2972222222222222,1,0,0,5.400449699998717,colour1,0.42592592592592593,-0.14305555555555555,1,0,0,6.201036700000259,number3,True,False,True,37,2,2019_Nov_19_1508,MA_Theta_Exp,3.0.7,60.109230493981975,
video/Experiment/zh_sp07_Dr_Gr_1_NoThetaInAudio_GlobalThetaInVideo.avi,noTheta,plusVideo,sp07,Dr,Gr,1,0,3,flow/blocks/NoThetaInAudio_GlobalThetaInVideo_B.csv,,,,,,,,,,,,,,,,,0,0,0,0,0,5,5,20,-0.4060185185185185,0.1111111111111111,1,0,0,4.450892200000453,call2,-0.011574074074074073,0.1125,1,0,0,5.050040100000842,colour2,0.4203703703703704,0.3333333333333333,1,0,0,5.56687360000069,number1,True,True,True,37,2,2019_Nov_19_1508,MA_Theta_Exp,3.0.7,60.109230493981975,
video/Experiment/zh_sp01_Ad_Ge_3_NoThetaInAudio_GlobalThetaInVideo.avi,noTheta,plusVideo,sp01,Ad,Ge,3,0,3,flow/blocks/NoThetaInAudio_GlobalThetaInVideo_B.csv,,,,,,,,,,,,,,,,,0,0,0,0,0,6,6,18,-0.34074074074074073,0.2875,1,0,0,4.735939399999552,call1,-0.01574074074074074,0.325,1,0,0,5.286937900000339,colour1,0.38287037037037036,-0.08194444444444444,1,0,0,6.301652300000569,number3,True,True,True,37,2,2019_Nov_19_1508,MA_Theta_Exp,3.0.7,60.109230493981975,
video/Experiment/zh_sp01_Dr_Ge_3_NoThetaInAudio_GlobalThetaInVideo.avi,noTheta,plusVideo,sp01,Dr,Ge,3,0,3,flow/blocks/NoThetaInAudio_GlobalThetaInVideo_B.csv,,,,,,,,,,,,,,,,,0,0,0,0,0,7,7,2,-0.37962962962962965,0.10555555555555556,1,0,0,4.934778099999676,call2,-0.05324074074074074,0.28194444444444444,1,0,0,5.4041830999995,colour1,0.3925925925925926,-0.08611111111111111,1,0,0,6.050422599999365,number3,True,True,True,37,2,2019_Nov_19_1508,MA_Theta_Exp,3.0.7,60.109230493981975,
video/Experiment/zh_sp07_Un_Gr_3_NoThetaInAudio_GlobalThetaInVideo.avi,noTheta,plusVideo,sp07,Un,Gr,3,0,3,flow/blocks/NoThetaInAudio_GlobalThetaInVideo_B.csv,,,,,,,,,,,,,,,,,0,0,0,0,0,8,8,6,-0.40185185185185185,-0.3194444444444444,1,0,0,4.873007000000143,call4,-0.007407407407407408,0.09722222222222222,1,0,0,5.488796799998454,colour2,0.3648148148148148,-0.10833333333333334,1,0,0,5.935268499999438,number3,True,True,True,37,2,2019_Nov_19_1508,MA_Theta_Exp,3.0.7,60.109230493981975,
video/Experiment/zh_sp01_Ti_Ro_4_NoThetaInAudio_GlobalThetaInVideo.avi,noTheta,plusVideo,sp01,Ti,Ro,4,0,3,flow/blocks/NoThetaInAudio_GlobalThetaInVideo_B.csv,,,,,,,,,,,,,,,,,0,0,0,0,0,9,9,11,-0.41574074074074074,-0.06805555555555555,1,0,0,5.376552899999297,call3,-0.02546296296296296,-0.1388888888888889,1,0,0,5.992160199999489,colour3,0.3773148148148148,-0.29583333333333334,1,0,0,6.581444699999338,number4,True,True,True,37,2,2019_Nov_19_1508,MA_Theta_Exp,3.0.7,60.109230493981975,
video/Experiment/zh_sp01_Un_Gr_4_NoThetaInAudio_GlobalThetaInVideo.avi,noTheta,plusVideo,sp01,Un,Gr,4,0,3,flow/blocks/NoThetaInAudio_GlobalThetaInVideo_B.csv,,,,,,,,,,,,,,,,,0,0,0,0,0,10,10,23,-0.38796296296296295,-0.31805555555555554,1,0,0,4.885276900000463,call4,-0.008796296296296297,0.05555555555555555,1,0,0,5.572991500001081,colour2,0.324537037037037,-0.3125,1,0,0,6.2560169999997015,number4,True,True,True,37,2,2019_Nov_19_1508,MA_Theta_Exp,3.0.7,60.109230493981975,
video/Experiment/zh_sp01_Ad_Ge_4_NoThetaInAudio_GlobalThetaInVideo.avi,noTheta,plusVideo,sp01,Ad,Ge,4,0,3,flow/blocks/NoThetaInAudio_GlobalThetaInVideo_B.csv,,,,,,,,,,,,,,,,,0,0,0,0,0,11,11,3,-0.31574074074074077,0.2611111111111111,1,0,0,4.91091729999971,call1,-0.001851851851851852,0.2861111111111111,1,0,0,5.270629999999073,colour1,0.38981481481481484,-0.3125,1,0,0,6.003576299999622,number4,True,True,True,37,2,2019_Nov_19_1508,MA_Theta_Exp,3.0.7,60.109230493981975,
video/Experiment/zh_sp07_Un_Ro_2_NoThetaInAudio_GlobalThetaInVideo.avi,noTheta,plusVideo,sp07,Un,Ro,2,0,3,flow/blocks/NoThetaInAudio_GlobalThetaInVideo_B.csv,,,,,,,,,,,,,,,,,0,0,0,0,0,12,12,9,-0.3824074074074074,-0.30416666666666664,1,0,0,4.613863499998843,call4,0.03148148148148148,-0.10833333333333334,1,0,0,5.380704600000172,colour3,0.4356481481481482,0.12361111111111112,1,0,0,5.919499800000267,number2,True,True,True,37,2,2019_Nov_19_1508,MA_Theta_Exp,3.0.7,60.109230493981975,
video/Experiment/zh_sp01_Un_Ge_1_NoThetaInAudio_GlobalThetaInVideo.avi,noTheta,plusVideo,sp01,Un,Ge,1,0,3,flow/blocks/NoThetaInAudio_GlobalThetaInVideo_B.csv,,,,,,,,,,,,,,,,,0,0,0,0,0,13,13,0,-0.44074074074074077,-0.3125,1,0,0,5.388038000000961,call4,0.03564814814814815,0.30416666666666664,1,0,0,6.134849699999904,colour1,0.4148148148148148,0.3402777777777778,1,0,0,6.787095300000146,number1,True,True,True,37,2,2019_Nov_19_1508,MA_Theta_Exp,3.0.7,60.109230493981975,
video/Experiment/zh_sp01_Un_Gr_2_NoThetaInAudio_GlobalThetaInVideo.avi,noTheta,plusVideo,sp01,Un,Gr,2,0,3,flow/blocks/NoThetaInAudio_GlobalThetaInVideo_B.csv,,,,,,,,,,,,,,,,,0,0,0,0,0,14,14,5,-0.35185185185185186,-0.11805555555555555,1,0,0,5.115320400000201,call3,0.009259259259259259,0.08333333333333333,1,0,0,5.574601300000722,colour2,0.44537037037037036,0.10277777777777777,1,0,0,6.080085899999176,number2,False,True,True,37,2,2019_Nov_19_1508,MA_Theta_Exp,3.0.7,60.109230493981975,
video/Experiment/zh_sp07_Ti_Gr_3_NoThetaInAudio_GlobalThetaInVideo.avi,noTheta,plusVideo,sp07,Ti,Gr,3,0,3,flow/blocks/NoThetaInAudio_GlobalThetaInVideo_B.csv,,,,,,,,,,,,,,,,,0,0,0,0,0,15,15,22,-0.40879629629629627,-0.10833333333333334,1,0,0,4.466926600000079,call3,0.010648148148148148,0.10694444444444444,1,0,0,4.901688000001741,colour2,0.3925925925925926,-0.11666666666666667,1,0,0,5.466336100000262,number3,True,True,True,37,2,2019_Nov_19_1508,MA_Theta_Exp,3.0.7,60.109230493981975,
video/Experiment/zh_sp01_Ti_Ro_1_NoThetaInAudio_GlobalThetaInVideo.avi,noTheta,plusVideo,sp01,Ti,Ro,1,0,3,flow/blocks/NoThetaInAudio_GlobalThetaInVideo_B.csv,,,,,,,,,,,,,,,,,0,0,0,0,0,16,16,8,-0.41435185185185186,-0.14583333333333334,1,0,0,5.02225179999914,call3,-0.06157407407407407,-0.09166666666666666,1,0,0,5.408866100000523,colour3,0.37175925925925923,0.2875,1,0,0,5.987646100000347,number1,True,True,True,37,2,2019_Nov_19_1508,MA_Theta_Exp,3.0.7,60.109230493981975,
video/Experiment/zh_sp07_Ad_Ro_2_NoThetaInAudio_GlobalThetaInVideo.avi,noTheta,plusVideo,sp07,Ad,Ro,2,0,3,flow/blocks/NoThetaInAudio_GlobalThetaInVideo_B.csv,,,,,,,,,,,,,,,,,0,0,0,0,0,17,17,25,-0.43657407407407406,0.30416666666666664,1,0,0,4.182099199999357,call1,0.0412037037037037,-0.1625,1,0,0,4.75046250000014,colour3,0.32731481481481484,0.07777777777777778,1,0,0,5.237755100000868,number2,True,True,True,37,2,2019_Nov_19_1508,MA_Theta_Exp,3.0.7,60.109230493981975,
video/Experiment/zh_sp01_Ad_Ge_2_NoThetaInAudio_GlobalThetaInVideo.avi,noTheta,plusVideo,sp01,Ad,Ge,2,0,3,flow/blocks/NoThetaInAudio_GlobalThetaInVideo_B.csv,,,,,,,,,,,,,,,,,0,0,0,0,0,18,18,1,-0.4101851851851852,0.3055555555555556,1,0,0,4.916368300000613,call1,-0.032407407407407406,0.2722222222222222,1,0,0,5.350843500000337,colour1,0.399537037037037,0.09027777777777778,1,0,0,5.895113799999308,number2,True,True,True,37,2,2019_Nov_19_1508,MA_Theta_Exp,3.0.7,60.109230493981975,
video/Experiment/zh_sp07_Ad_Ge_1_NoThetaInAudio_GlobalThetaInVideo.avi,noTheta,plusVideo,sp07,Ad,Ge,1,0,3,flow/blocks/NoThetaInAudio_GlobalThetaInVideo_B.csv,,,,,,,,,,,,,,,,,0,0,0,0,0,19,19,16,-0.3976851851851852,0.30694444444444446,1,0,0,4.1847355000008974,call1,-0.03657407407407407,0.2791666666666667,1,0,0,4.648779099999956,colour1,0.3731481481481482,0.2986111111111111,1,0,0,5.147574500000701,number1,True,True,True,37,2,2019_Nov_19_1508,MA_Theta_Exp,3.0.7,60.109230493981975,
video/Experiment/zh_sp01_Ti_We_1_NoThetaInAudio_GlobalThetaInVideo.avi,noTheta,plusVideo,sp01,Ti,We,1,0,3,flow/blocks/NoThetaInAudio_GlobalThetaInVideo_B.csv,,,,,,,,,,,,,,,,,0,0,0,0,0,20,20,12,-0.4115740740740741,-0.09861111111111111,1,0,0,5.219699400000536,call3,-0.033796296296296297,-0.32916666666666666,1,0,0,5.650388900001417,colour4,0.4050925925925926,0.2902777777777778,1,0,0,6.216762500000186,number1,True,True,True,37,2,2019_Nov_19_1508,MA_Theta_Exp,3.0.7,60.109230493981975,
video/Experiment/zh_sp07_Ad_We_4_NoThetaInAudio_GlobalThetaInVideo.avi,noTheta,plusVideo,sp07,Ad,We,4,0,3,flow/blocks/NoThetaInAudio_GlobalThetaInVideo_B.csv,,,,,,,,,,,,,,,,,0,0,0,0,0,21,21,31,-0.3851851851851852,0.3013888888888889,1,0,0,4.2530313999996,call1,0.027314814814814816,-0.31805555555555554,1,0,0,4.9159640000016225,colour4,0.39814814814814814,-0.3416666666666667,1,0,0,5.25221109999984,number4,True,True,True,37,2,2019_Nov_19_1508,MA_Theta_Exp,3.0.7,60.109230493981975,
video/Experiment/zh_sp07_Dr_Ro_1_NoThetaInAudio_GlobalThetaInVideo.avi,noTheta,plusVideo,sp07,Dr,Ro,1,0,3,flow/blocks/NoThetaInAudio_GlobalThetaInVideo_B.csv,,,,,,,,,,,,,,,,,0,0,0,0,0,22,22,24,-0.4074074074074074,0.3111111111111111,1,0,0,4.379492300000493,call1,0.02175925925925926,-0.16944444444444445,1,0,0,4.886566400000447,colour3,0.3453703703703704,0.26666666666666666,1,0,0,5.409748900001432,number1,False,True,True,37,2,2019_Nov_19_1508,MA_Theta_Exp,3.0.7,60.109230493981975,
video/Experiment/zh_sp01_Un_Ro_4_NoThetaInAudio_GlobalThetaInVideo.avi,noTheta,plusVideo,sp01,Un,Ro,4,0,3,flow/blocks/NoThetaInAudio_GlobalThetaInVideo_B.csv,,,,,,,,,,,,,,,,,0,0,0,0,0,23,23,27,-0.4310185185185185,-0.33425925925925926,1,0,0,5.006737100000464,call4,0.010648148148148148,-0.07175925925925926,1,0,0,5.386412900001233,colour3,0.40370370370370373,-0.32314814814814813,1,0,0,5.833595199999763,number4,True,True,True,37,2,2019_Nov_19_1508,MA_Theta_Exp,3.0.7,60.109230493981975,
video/Experiment/zh_sp01_Un_We_2_NoThetaInAudio_GlobalThetaInVideo.avi,noTheta,plusVideo,sp01,Un,We,2,0,3,flow/blocks/NoThetaInAudio_GlobalThetaInVideo_B.csv,,,,,,,,,,,,,,,,,0,0,0,0,0,24,24,13,-0.38657407407407407,-0.30648148148148147,1,0,0,5.258201200000258,call4,-0.010185185185185186,-0.29953703703703705,1,0,0,5.743615000001228,colour4,0.3425925925925926,0.07407407407407407,1,0,0,6.378945300000851,number2,True,True,True,37,2,2019_Nov_19_1508,MA_Theta_Exp,3.0.7,60.109230493981975,
video/Experiment/zh_sp07_Dr_We_3_NoThetaInAudio_GlobalThetaInVideo.avi,noTheta,plusVideo,sp07,Dr,We,3,0,3,flow/blocks/NoThetaInAudio_GlobalThetaInVideo_B.csv,,,,,,,,,,,,,,,,,0,0,0,0,0,25,25,14,-0.3921296296296296,0.0699074074074074,1,0,0,4.451037099999667,call2,-0.032407407407407406,-0.3398148148148148,1,0,0,4.983671699999832,colour4,0.4148148148148148,-0.12037037037037036,1,0,0,5.720087899999271,number3,True,True,True,37,2,2019_Nov_19_1508,MA_Theta_Exp,3.0.7,60.109230493981975,
video/Experiment/zh_sp07_Dr_We_4_NoThetaInAudio_GlobalThetaInVideo.avi,noTheta,plusVideo,sp07,Dr,We,4,0,3,flow/blocks/NoThetaInAudio_GlobalThetaInVideo_B.csv,,,,,,,,,,,,,,,,,0,0,0,0,0,26,26,15,-0.4115740740740741,0.0824074074074074,1,0,0,4.308739099999002,call2,0.010648148148148148,-0.3578703703703704,1,0,0,4.904422600000544,colour4,0.4009259259259259,-0.27037037037037037,1,0,0,5.4229329000008875,number4,True,True,True,37,2,2019_Nov_19_1508,MA_Theta_Exp,3.0.7,60.109230493981975,
video/Experiment/zh_sp07_Ad_Ro_3_NoThetaInAudio_GlobalThetaInVideo.avi,noTheta,plusVideo,sp07,Ad,Ro,3,0,3,flow/blocks/NoThetaInAudio_GlobalThetaInVideo_B.csv,,,,,,,,,,,,,,,,,0,0,0,0,0,27,27,10,-0.3712962962962963,0.30185185185185187,1,0,0,4.423114699999132,call1,-0.012962962962962963,-0.15787037037037038,1,0,0,5.211200499999904,colour3,0.399537037037037,-0.1287037037037037,1,0,0,5.855273900000611,number3,True,True,True,37,2,2019_Nov_19_1508,MA_Theta_Exp,3.0.7,60.109230493981975,
video/Experiment/zh_sp07_Ad_Gr_4_NoThetaInAudio_GlobalThetaInVideo.avi,noTheta,plusVideo,sp07,Ad,Gr,4,0,3,flow/blocks/NoThetaInAudio_GlobalThetaInVideo_B.csv,,,,,,,,,,,,,,,,,0,0,0,0,0,28,28,7,-0.3421296296296296,0.2851851851851852,1,0,0,4.395593799999915,call1,0.009259259259259259,0.0962962962962963,1,0,0,5.031846699999733,colour2,0.4023148148148148,-0.28425925925925927,1,0,0,5.762278100000913,number4,True,True,True,37,2,2019_Nov_19_1508,MA_Theta_Exp,3.0.7,60.109230493981975,
video/Experiment/zh_sp01_Ti_We_3_NoThetaInAudio_GlobalThetaInVideo.avi,noTheta,plusVideo,sp01,Ti,We,3,0,3,flow/blocks/NoThetaInAudio_GlobalThetaInVideo_B.csv,,,,,,,,,,,,,,,,,0,0,0,0,0,29,29,30,-0.3962962962962963,-0.12731481481481483,1,0,0,5.209497399999236,call3,0.02175925925925926,-0.33287037037037037,1,0,0,5.72075439999935,colour4,0.4300925925925926,-0.09537037037037037,1,0,0,6.275892400000885,number3,True,True,True,37,2,2019_Nov_19_1508,MA_Theta_Exp,3.0.7,60.109230493981975,
video/Experiment/zh_sp07_Ti_Gr_1_NoThetaInAudio_GlobalThetaInVideo.avi,noTheta,plusVideo,sp07,Ti,Gr,1,0,3,flow/blocks/NoThetaInAudio_GlobalThetaInVideo_B.csv,,,,,,,,,,,,,,,,,0,0,0,0,0,30,30,4,-0.4046296296296296,-0.1162037037037037,1,0,0,4.397438699999839,call3,-0.02962962962962963,0.06435185185185185,1,0,0,4.812834399999701,colour2,0.4134259259259259,0.30462962962962964,1,0,0,5.315385899999455,number1,True,True,True,37,2,2019_Nov_19_1508,MA_Theta_Exp,3.0.7,60.109230493981975,
video/Experiment/zh_sp01_Dr_We_1_NoThetaInAudio_GlobalThetaInVideo.avi,noTheta,plusVideo,sp01,Dr,We,1,0,3,flow/blocks/NoThetaInAudio_GlobalThetaInVideo_B.csv,,,,,,,,,,,,,,,,,0,0,0,0,0,31,31,28,-0.37546296296296294,0.049074074074074076,1,0,0,5.163339199998518,call2,0.04259259259259259,-0.337037037037037,1,0,0,5.7448179999992135,colour4,0.3925925925925926,0.30185185185185187,1,0,0,6.398334600000453,number1,True,True,True,37,2,2019_Nov_19_1508,MA_Theta_Exp,3.0.7,60.109230493981975,
