videoFile,condition,video,speaker,callSign,colour,number,seq,id,block,exp.thisRepN,exp.thisTrialN,exp.thisN,exp.thisIndex,training.thisRepN,training.thisTrialN,training.thisN,training.thisIndex,firstHalf.thisRepN,firstHalf.thisTrialN,firstHalf.thisN,firstHalf.thisIndex,blocksA.thisRepN,blocksA.thisTrialN,blocksA.thisN,blocksA.thisIndex,secondHalf.thisRepN,secondHalf.thisTrialN,secondHalf.thisN,secondHalf.thisIndex,blocksB.thisRepN,blocksB.thisTrialN,blocksB.thisN,blocksB.thisIndex,mouseClickOnCall.x,mouseClickOnCall.y,mouseClickOnCall.leftButton,mouseClickOnCall.midButton,mouseClickOnCall.rightButton,mouseClickOnCall.time,mouseClickOnCall.clicked_name,mouseClickOnColour.x,mouseClickOnColour.y,mouseClickOnColour.leftButton,mouseClickOnColour.midButton,mouseClickOnColour.rightButton,mouseClickOnColour.time,mouseClickOnColour.clicked_name,mouseClickOnNumber.x,mouseClickOnNumber.y,mouseClickOnNumber.leftButton,mouseClickOnNumber.midButton,mouseClickOnNumber.rightButton,mouseClickOnNumber.time,mouseClickOnNumber.clicked_name,callSignCorrect,colourCorrect,numberCorrect,participant,order,date,expName,psychopyVersion,frameRate,
video/Training/zh_sp01_Ad_We_4_NVocInAudio_NoVideo.avi,vocoded,noVideo,sp01,Ad,We,4,,,,,,,,0,0,0,0,,,,,,,,,,,,,,,,,-0.3976851851851852,0.3087962962962963,1,0,0,5.762699400000201,call1,-0.024074074074074074,-0.3189814814814815,1,0,0,6.527104799999506,colour4,0.4217592592592593,-0.31203703703703706,1,0,0,7.071252199999435,number4,True,True,True,3,3,2019_Nov_08_1600,MA_Theta_Exp,3.0.7,59.22798688194134,
video/Training/zh_sp07_Ad_Ge_3_NVocInAudio_NoVideo.avi,vocoded,noVideo,sp07,Ad,Ge,3,,,,,,,,0,1,1,1,,,,,,,,,,,,,,,,,-0.4046296296296296,0.28935185185185186,1,0,0,4.78236619999916,call1,0.07175925925925926,0.36435185185185187,1,0,0,5.416423999999097,colour1,0.41064814814814815,-0.09537037037037037,1,0,0,6.020562499999869,number3,True,True,True,3,3,2019_Nov_08_1600,MA_Theta_Exp,3.0.7,59.22798688194134,
video/Training/zh_sp01_Dr_Ro_3_NVocInAudio_GlobalThetaInVideo.avi,vocoded,plusVideo,sp01,Dr,Ro,3,,,,,,,,0,2,2,2,,,,,,,,,,,,,,,,,-0.36157407407407405,0.09074074074074075,1,0,0,5.6820270999996865,call2,-0.05324074074074074,-0.11064814814814815,1,0,0,6.549144499998874,colour3,0.4287037037037037,-0.07731481481481481,1,0,0,7.190305200001603,number3,True,True,True,3,3,2019_Nov_08_1600,MA_Theta_Exp,3.0.7,59.22798688194134,
video/Training/zh_sp07_Dr_Gr_4_NVocInAudio_GlobalThetaInVideo.avi,vocoded,plusVideo,sp07,Dr,Gr,4,,,,,,,,0,3,3,3,,,,,,,,,,,,,,,,,-0.512962962962963,0.12962962962962962,1,0,0,4.804594499999439,call2,0.05092592592592592,0.10740740740740741,1,0,0,5.752856800001609,colour2,0.44675925925925924,-0.31203703703703706,1,0,0,6.53898449999906,number4,True,True,True,3,3,2019_Nov_08_1600,MA_Theta_Exp,3.0.7,59.22798688194134,
video/Training/zh_sp01_Ti_Gr_2_NoThetaInAudio_NoVideo.avi,noTheta,noVideo,sp01,Ti,Gr,2,,,,,,,,0,4,4,4,,,,,,,,,,,,,,,,,-0.014351851851851852,-0.13425925925925927,1,0,0,6.377555299999585,,,,,,,,,,,,,,,,NO_ANSW,NO_ANSW,NO_ANSW,3,3,2019_Nov_08_1600,MA_Theta_Exp,3.0.7,59.22798688194134,
video/Training/zh_sp07_Ti_Ro_1_NoThetaInAudio_NoVideo.avi,noTheta,noVideo,sp07,Ti,Ro,1,,,,,,,,0,5,5,5,,,,,,,,,,,,,,,,,-0.45185185185185184,-0.09305555555555556,1,0,0,6.539262000000235,call3,-0.008796296296296297,0.25972222222222224,1,0,0,8.125861800001076,colour1,0.37175925925925923,0.30833333333333335,1,0,0,8.714070900001389,number1,True,False,True,3,3,2019_Nov_08_1600,MA_Theta_Exp,3.0.7,59.22798688194134,
video/Training/zh_sp01_Un_Ge_1_NoThetaInAudio_GlobalThetaInVideo.avi,noTheta,plusVideo,sp01,Un,Ge,1,,,,,,,,0,6,6,6,,,,,,,,,,,,,,,,,-0.4976851851851852,-0.32916666666666666,1,0,0,5.542766800001118,call4,-0.03796296296296296,0.2986111111111111,1,0,0,6.883659600000101,colour1,0.3773148148148148,0.3277777777777778,1,0,0,7.429189899999983,number1,True,True,True,3,3,2019_Nov_08_1600,MA_Theta_Exp,3.0.7,59.22798688194134,
video/Training/zh_sp07_Un_We_2_NoThetaInAudio_GlobalThetaInVideo.avi,noTheta,plusVideo,sp07,Un,We,2,,,,,,,,0,7,7,7,,,,,,,,,,,,,,,,,-0.3976851851851852,-0.37222222222222223,1,0,0,4.760329700000511,call4,-0.01990740740740741,-0.29444444444444445,1,0,0,5.346591999999873,colour4,0.387037037037037,0.11944444444444445,1,0,0,5.9517460000006395,number2,True,True,True,3,3,2019_Nov_08_1600,MA_Theta_Exp,3.0.7,59.22798688194134,
video/Training/zh_sp01_Ad_Ge_1_GlobalTheta_NoVideo.avi,globalTheta,noVideo,sp01,Ad,Ge,1,,,,,,,,0,8,8,8,,,,,,,,,,,,,,,,,-0.42407407407407405,0.06111111111111111,1,0,0,5.773432899999534,call2,0.00787037037037037,0.0875,1,0,0,6.327703700000711,colour2,0.43287037037037035,0.32083333333333336,1,0,0,6.84058879999975,number1,False,False,True,3,3,2019_Nov_08_1600,MA_Theta_Exp,3.0.7,59.22798688194134,
video/Training/zh_sp07_Ad_Ro_3_GlobalTheta_NoVideo.avi,globalTheta,noVideo,sp07,Ad,Ro,3,,,,,,,,0,9,9,9,,,,,,,,,,,,,,,,,-0.38101851851851853,0.3,1,0,0,4.60443049999958,call1,0.03425925925925926,-0.32083333333333336,1,0,0,5.24605800000063,colour4,0.4439814814814815,-0.10277777777777777,1,0,0,6.07564039999852,number3,True,False,True,3,3,2019_Nov_08_1600,MA_Theta_Exp,3.0.7,59.22798688194134,
video/Experiment/zh_sp01_Dr_Ro_1_GlobalTheta_NoVideo.avi,globalTheta,noVideo,sp01,Dr,Ro,1,0,5,flow/blocks/GlobalTheta_NoVideo_A.csv,,,,,,,,,0,0,0,0,0,0,0,24,,,,,,,,,-0.4046296296296296,-0.3472222222222222,1,0,0,5.420026800000414,call4,0.04675925925925926,-0.09861111111111111,1,0,0,5.9697625000007974,colour3,0.4273148148148148,0.36527777777777776,1,0,0,6.767720800000461,number1,False,True,True,3,3,2019_Nov_08_1600,MA_Theta_Exp,3.0.7,59.22798688194134,
video/Experiment/zh_sp01_Ad_Ge_2_GlobalTheta_NoVideo.avi,globalTheta,noVideo,sp01,Ad,Ge,2,0,5,flow/blocks/GlobalTheta_NoVideo_A.csv,,,,,,,,,0,0,0,0,0,1,1,1,,,,,,,,,-0.36435185185185187,0.30416666666666664,1,0,0,5.218343799999275,call1,0.023148148148148147,0.30277777777777776,1,0,0,5.759859799998594,colour1,0.4162037037037037,0.125,1,0,0,6.288931199998842,number2,True,True,True,3,3,2019_Nov_08_1600,MA_Theta_Exp,3.0.7,59.22798688194134,
video/Experiment/zh_sp07_Ad_Ro_1_GlobalTheta_NoVideo.avi,globalTheta,noVideo,sp07,Ad,Ro,1,0,5,flow/blocks/GlobalTheta_NoVideo_A.csv,,,,,,,,,0,0,0,0,0,2,2,8,,,,,,,,,-0.40185185185185185,0.30694444444444446,1,0,0,4.390681000000768,call1,0.0412037037037037,-0.12777777777777777,1,0,0,5.044504000001325,colour3,0.3662037037037037,0.2875,1,0,0,5.566250899999432,number1,True,True,True,3,3,2019_Nov_08_1600,MA_Theta_Exp,3.0.7,59.22798688194134,
video/Experiment/zh_sp01_Dr_Ro_3_GlobalTheta_NoVideo.avi,globalTheta,noVideo,sp01,Dr,Ro,3,0,5,flow/blocks/GlobalTheta_NoVideo_A.csv,,,,,,,,,0,0,0,0,0,3,3,26,,,,,,,,,-0.43796296296296294,-0.34444444444444444,1,0,0,5.1922427999998035,call4,-0.03796296296296296,-0.1527777777777778,1,0,0,5.942024099998889,colour3,0.45787037037037037,-0.07361111111111111,1,0,0,6.9113336999998864,number3,False,True,True,3,3,2019_Nov_08_1600,MA_Theta_Exp,3.0.7,59.22798688194134,
video/Experiment/zh_sp07_Ad_Ro_2_GlobalTheta_NoVideo.avi,globalTheta,noVideo,sp07,Ad,Ro,2,0,5,flow/blocks/GlobalTheta_NoVideo_A.csv,,,,,,,,,0,0,0,0,0,4,4,9,,,,,,,,,-0.4046296296296296,0.2708333333333333,1,0,0,4.5527665999998135,call1,-0.046296296296296294,-0.1125,1,0,0,5.242575299998862,colour3,0.37453703703703706,0.1388888888888889,1,0,0,5.906249700001354,number2,True,True,True,3,3,2019_Nov_08_1600,MA_Theta_Exp,3.0.7,59.22798688194134,
video/Experiment/zh_sp07_Dr_Ge_4_GlobalTheta_NoVideo.avi,globalTheta,noVideo,sp07,Dr,Ge,4,0,5,flow/blocks/GlobalTheta_NoVideo_A.csv,,,,,,,,,0,0,0,0,0,5,5,19,,,,,,,,,-0.4185185185185185,-0.09722222222222222,1,0,0,5.765218799999275,call3,-0.02962962962962963,0.26944444444444443,1,0,0,6.4242611000008765,colour1,0.3662037037037037,-0.29583333333333334,1,0,0,7.112367699999595,number4,False,True,True,3,3,2019_Nov_08_1600,MA_Theta_Exp,3.0.7,59.22798688194134,
video/Experiment/zh_sp01_Ad_Ro_4_GlobalTheta_NoVideo.avi,globalTheta,noVideo,sp01,Ad,Ro,4,0,5,flow/blocks/GlobalTheta_NoVideo_A.csv,,,,,,,,,0,0,0,0,0,6,6,11,,,,,,,,,-0.40324074074074073,0.3402777777777778,1,0,0,5.4394198000009055,call1,-0.011574074074074073,-0.13333333333333333,1,0,0,5.976747400000022,colour3,0.3662037037037037,-0.3013888888888889,1,0,0,6.5225289999998495,number4,True,True,True,3,3,2019_Nov_08_1600,MA_Theta_Exp,3.0.7,59.22798688194134,
video/Experiment/zh_sp07_Dr_Ge_2_GlobalTheta_NoVideo.avi,globalTheta,noVideo,sp07,Dr,Ge,2,0,5,flow/blocks/GlobalTheta_NoVideo_A.csv,,,,,,,,,0,0,0,0,0,7,7,17,,,,,,,,,-0.43657407407407406,0.09861111111111111,1,0,0,5.999412899998788,call2,0.010648148148148148,0.3458333333333333,1,0,0,6.511918300000616,colour1,0.3787037037037037,0.08888888888888889,1,0,0,7.01781949999895,number2,True,True,True,3,3,2019_Nov_08_1600,MA_Theta_Exp,3.0.7,59.22798688194134,
video/Experiment/zh_sp01_Ad_Ge_1_GlobalTheta_NoVideo.avi,globalTheta,noVideo,sp01,Ad,Ge,1,0,5,flow/blocks/GlobalTheta_NoVideo_A.csv,,,,,,,,,0,0,0,0,0,8,8,0,,,,,,,,,-0.43796296296296294,0.3333333333333333,1,0,0,5.195776600001409,call1,0.014814814814814815,0.29444444444444445,1,0,0,5.786951400001271,colour1,0.41759259259259257,0.29305555555555557,1,0,0,6.297724599999128,number1,True,True,True,3,3,2019_Nov_08_1600,MA_Theta_Exp,3.0.7,59.22798688194134,
video/Experiment/zh_sp01_Ad_We_3_GlobalTheta_NoVideo.avi,globalTheta,noVideo,sp01,Ad,We,3,0,5,flow/blocks/GlobalTheta_NoVideo_A.csv,,,,,,,,,0,0,0,0,0,9,9,14,,,,,,,,,-0.40879629629629627,0.3388888888888889,1,0,0,6.993154599998888,call1,-0.026851851851851852,-0.3416666666666667,1,0,0,7.864944699998887,colour4,0.46064814814814814,-0.1111111111111111,1,0,0,8.63950609999847,number3,True,True,True,3,3,2019_Nov_08_1600,MA_Theta_Exp,3.0.7,59.22798688194134,
video/Experiment/zh_sp01_Dr_Ge_3_GlobalTheta_NoVideo.avi,globalTheta,noVideo,sp01,Dr,Ge,3,0,5,flow/blocks/GlobalTheta_NoVideo_A.csv,,,,,,,,,0,0,0,0,0,10,10,18,,,,,,,,,-0.40324074074074073,0.0875,1,0,0,5.037462799999048,call2,-0.007407407407407408,0.2875,1,0,0,5.6053784000014275,colour1,0.42453703703703705,-0.15555555555555556,1,0,0,6.332759999999325,number3,True,True,True,3,3,2019_Nov_08_1600,MA_Theta_Exp,3.0.7,59.22798688194134,
video/Experiment/zh_sp01_Dr_We_2_GlobalTheta_NoVideo.avi,globalTheta,noVideo,sp01,Dr,We,2,0,5,flow/blocks/GlobalTheta_NoVideo_A.csv,,,,,,,,,0,0,0,0,0,11,11,29,,,,,,,,,-0.40046296296296297,0.3277777777777778,1,0,0,6.404412500000035,call1,-0.01712962962962963,-0.2916666666666667,1,0,0,7.049054999999498,colour4,0.37453703703703706,0.08055555555555556,1,0,0,7.574270299999625,number2,False,True,True,3,3,2019_Nov_08_1600,MA_Theta_Exp,3.0.7,59.22798688194134,
video/Experiment/zh_sp07_Dr_Ro_4_GlobalTheta_NoVideo.avi,globalTheta,noVideo,sp07,Dr,Ro,4,0,5,flow/blocks/GlobalTheta_NoVideo_A.csv,,,,,,,,,0,0,0,0,0,12,12,27,,,,,,,,,-0.46296296296296297,0.31527777777777777,1,0,0,4.545578400000522,call1,-0.01574074074074074,0.31527777777777777,1,0,0,5.132994699999472,colour1,0.38287037037037036,-0.32083333333333336,1,0,0,5.872159299999112,number4,False,False,True,3,3,2019_Nov_08_1600,MA_Theta_Exp,3.0.7,59.22798688194134,
video/Experiment/zh_sp01_Dr_Gr_1_GlobalTheta_NoVideo.avi,globalTheta,noVideo,sp01,Dr,Gr,1,0,5,flow/blocks/GlobalTheta_NoVideo_A.csv,,,,,,,,,0,0,0,0,0,13,13,20,,,,,,,,,-0.38101851851851853,-0.08333333333333333,1,0,0,5.446165100000144,call3,-0.02546296296296296,0.10416666666666667,1,0,0,5.939262899999449,colour2,0.3925925925925926,0.3013888888888889,1,0,0,6.494780999999421,number1,False,True,True,3,3,2019_Nov_08_1600,MA_Theta_Exp,3.0.7,59.22798688194134,
video/Experiment/zh_sp07_Ad_We_4_GlobalTheta_NoVideo.avi,globalTheta,noVideo,sp07,Ad,We,4,0,5,flow/blocks/GlobalTheta_NoVideo_A.csv,,,,,,,,,0,0,0,0,0,14,14,15,,,,,,,,,-0.36574074074074076,0.2986111111111111,1,0,0,4.48307720000048,call1,0.010648148148148148,-0.33194444444444443,1,0,0,5.156021299999338,colour4,0.3731481481481482,-0.1361111111111111,1,0,0,6.545306100000744,number3,True,True,False,3,3,2019_Nov_08_1600,MA_Theta_Exp,3.0.7,59.22798688194134,
video/Experiment/zh_sp07_Dr_We_4_GlobalTheta_NoVideo.avi,globalTheta,noVideo,sp07,Dr,We,4,0,5,flow/blocks/GlobalTheta_NoVideo_A.csv,,,,,,,,,0,0,0,0,0,15,15,31,,,,,,,,,-0.4046296296296296,0.3138888888888889,1,0,0,4.702887399998872,call1,0.014814814814814815,-0.2902777777777778,1,0,0,5.3635510000003705,colour4,0.4203703703703704,-0.30972222222222223,1,0,0,6.307821599999443,number4,False,True,True,3,3,2019_Nov_08_1600,MA_Theta_Exp,3.0.7,59.22798688194134,
video/Experiment/zh_sp01_Ad_Gr_1_GlobalTheta_NoVideo.avi,globalTheta,noVideo,sp01,Ad,Gr,1,0,5,flow/blocks/GlobalTheta_NoVideo_A.csv,,,,,,,,,0,0,0,0,0,16,16,4,,,,,,,,,-0.45046296296296295,0.3013888888888889,1,0,0,5.439040199998999,call1,-0.000462962962962963,0.05555555555555555,1,0,0,6.035409600001003,colour2,0.37592592592592594,0.2791666666666667,1,0,0,6.6295871999991505,number1,True,True,True,3,3,2019_Nov_08_1600,MA_Theta_Exp,3.0.7,59.22798688194134,
video/Experiment/zh_sp07_Ad_Gr_3_GlobalTheta_NoVideo.avi,globalTheta,noVideo,sp07,Ad,Gr,3,0,5,flow/blocks/GlobalTheta_NoVideo_A.csv,,,,,,,,,0,0,0,0,0,17,17,6,,,,,,,,,-0.3837962962962963,0.32083333333333336,1,0,0,4.727732100000139,call1,-0.0032407407407407406,0.08888888888888889,1,0,0,5.273049600000377,colour2,0.39675925925925926,-0.2847222222222222,1,0,0,6.816307700000834,number4,True,True,False,3,3,2019_Nov_08_1600,MA_Theta_Exp,3.0.7,59.22798688194134,
video/Experiment/zh_sp07_Dr_We_3_GlobalTheta_NoVideo.avi,globalTheta,noVideo,sp07,Dr,We,3,0,5,flow/blocks/GlobalTheta_NoVideo_A.csv,,,,,,,,,0,0,0,0,0,18,18,30,,,,,,,,,-0.37962962962962965,-0.09027777777777778,1,0,0,4.6752625000008265,call3,0.00787037037037037,-0.30833333333333335,1,0,0,5.201870099999724,colour4,0.42453703703703705,-0.2875,1,0,0,5.840545300001395,number4,False,True,False,3,3,2019_Nov_08_1600,MA_Theta_Exp,3.0.7,59.22798688194134,
video/Experiment/zh_sp01_Dr_Gr_3_GlobalTheta_NoVideo.avi,globalTheta,noVideo,sp01,Dr,Gr,3,0,5,flow/blocks/GlobalTheta_NoVideo_A.csv,,,,,,,,,0,0,0,0,0,19,19,22,,,,,,,,,-0.42824074074074076,0.11527777777777778,1,0,0,5.106074499999522,call2,0.03148148148148148,-0.3236111111111111,1,0,0,6.7261384000012185,colour4,0.39537037037037037,-0.16805555555555557,1,0,0,7.795988900001248,number3,True,False,True,3,3,2019_Nov_08_1600,MA_Theta_Exp,3.0.7,59.22798688194134,
video/Experiment/zh_sp07_Ad_Ge_4_GlobalTheta_NoVideo.avi,globalTheta,noVideo,sp07,Ad,Ge,4,0,5,flow/blocks/GlobalTheta_NoVideo_A.csv,,,,,,,,,0,0,0,0,0,20,20,3,,,,,,,,,-0.34629629629629627,0.2861111111111111,1,0,0,4.64280940000026,call1,0.01898148148148148,0.30694444444444446,1,0,0,5.7346194999990985,colour1,0.3787037037037037,-0.35694444444444445,1,0,0,6.535407999999734,number4,True,True,True,3,3,2019_Nov_08_1600,MA_Theta_Exp,3.0.7,59.22798688194134,
video/Experiment/zh_sp01_Dr_Ro_2_GlobalTheta_NoVideo.avi,globalTheta,noVideo,sp01,Dr,Ro,2,0,5,flow/blocks/GlobalTheta_NoVideo_A.csv,,,,,,,,,0,0,0,0,0,21,21,25,,,,,,,,,-0.3921296296296296,0.08611111111111111,1,0,0,5.364770299998781,call2,0.017592592592592594,-0.12638888888888888,1,0,0,5.903241399999388,colour3,0.39675925925925926,0.10138888888888889,1,0,0,6.4014131000003545,number2,True,True,True,3,3,2019_Nov_08_1600,MA_Theta_Exp,3.0.7,59.22798688194134,
video/Experiment/zh_sp07_Ad_Gr_4_GlobalTheta_NoVideo.avi,globalTheta,noVideo,sp07,Ad,Gr,4,0,5,flow/blocks/GlobalTheta_NoVideo_A.csv,,,,,,,,,0,0,0,0,0,22,22,7,,,,,,,,,-0.41435185185185186,0.2986111111111111,1,0,0,4.588536100000056,call1,-0.0032407407407407406,0.11944444444444445,1,0,0,5.236742099999901,colour2,0.37453703703703706,-0.3236111111111111,1,0,0,5.858390299999883,number4,True,True,True,3,3,2019_Nov_08_1600,MA_Theta_Exp,3.0.7,59.22798688194134,
video/Experiment/zh_sp07_Dr_Gr_4_GlobalTheta_NoVideo.avi,globalTheta,noVideo,sp07,Dr,Gr,4,0,5,flow/blocks/GlobalTheta_NoVideo_A.csv,,,,,,,,,0,0,0,0,0,23,23,23,,,,,,,,,-0.4337962962962963,0.2763888888888889,1,0,0,4.592391100000896,call1,-0.047685185185185185,0.10833333333333334,1,0,0,5.178482999999687,colour2,0.4773148148148148,-0.09166666666666666,1,0,0,5.8830600999990565,number3,False,True,False,3,3,2019_Nov_08_1600,MA_Theta_Exp,3.0.7,59.22798688194134,
video/Experiment/zh_sp01_Ad_We_2_GlobalTheta_NoVideo.avi,globalTheta,noVideo,sp01,Ad,We,2,0,5,flow/blocks/GlobalTheta_NoVideo_A.csv,,,,,,,,,0,0,0,0,0,24,24,13,,,,,,,,,-0.3837962962962963,0.31527777777777777,1,0,0,5.232693100000688,call1,-0.021296296296296296,-0.3736111111111111,1,0,0,5.854101299999456,colour4,0.39537037037037037,0.10138888888888889,1,0,0,6.503472399999737,number2,True,True,True,3,3,2019_Nov_08_1600,MA_Theta_Exp,3.0.7,59.22798688194134,
video/Experiment/zh_sp01_Ad_Ge_3_GlobalTheta_NoVideo.avi,globalTheta,noVideo,sp01,Ad,Ge,3,0,5,flow/blocks/GlobalTheta_NoVideo_A.csv,,,,,,,,,0,0,0,0,0,25,25,2,,,,,,,,,-0.40324074074074073,0.30416666666666664,1,0,0,5.065139999998792,call1,0.03287037037037037,0.3125,1,0,0,5.769416700000875,colour1,0.37592592592592594,-0.09305555555555556,1,0,0,6.33297870000024,number3,True,True,True,3,3,2019_Nov_08_1600,MA_Theta_Exp,3.0.7,59.22798688194134,
video/Experiment/zh_sp07_Ad_Gr_2_GlobalTheta_NoVideo.avi,globalTheta,noVideo,sp07,Ad,Gr,2,0,5,flow/blocks/GlobalTheta_NoVideo_A.csv,,,,,,,,,0,0,0,0,0,26,26,5,,,,,,,,,-0.37546296296296294,0.30277777777777776,1,0,0,4.590447200000199,call1,0.009259259259259259,0.09861111111111111,1,0,0,5.374257600000419,colour2,0.37175925925925923,0.12083333333333333,1,0,0,5.943361600000571,number2,True,True,True,3,3,2019_Nov_08_1600,MA_Theta_Exp,3.0.7,59.22798688194134,
video/Experiment/zh_sp01_Dr_Gr_2_GlobalTheta_NoVideo.avi,globalTheta,noVideo,sp01,Dr,Gr,2,0,5,flow/blocks/GlobalTheta_NoVideo_A.csv,,,,,,,,,0,0,0,0,0,27,27,21,,,,,,,,,-0.4101851851851852,0.09861111111111111,1,0,0,5.208846999999878,call2,0.003703703703703704,0.06527777777777778,1,0,0,6.082060700000511,colour2,0.36203703703703705,0.08194444444444444,1,0,0,6.592164699999557,number2,True,True,True,3,3,2019_Nov_08_1600,MA_Theta_Exp,3.0.7,59.22798688194134,
video/Experiment/zh_sp07_Ad_Ro_3_GlobalTheta_NoVideo.avi,globalTheta,noVideo,sp07,Ad,Ro,3,0,5,flow/blocks/GlobalTheta_NoVideo_A.csv,,,,,,,,,0,0,0,0,0,28,28,10,,,,,,,,,-0.4046296296296296,-0.1375,1,0,0,5.588584500001161,call3,0.012037037037037037,0.058333333333333334,1,0,0,7.027532500000234,colour2,0.3425925925925926,-0.09444444444444444,1,0,0,7.614766599999712,number3,False,False,True,3,3,2019_Nov_08_1600,MA_Theta_Exp,3.0.7,59.22798688194134,
video/Experiment/zh_sp07_Ad_We_1_GlobalTheta_NoVideo.avi,globalTheta,noVideo,sp07,Ad,We,1,0,5,flow/blocks/GlobalTheta_NoVideo_A.csv,,,,,,,,,0,0,0,0,0,29,29,12,,,,,,,,,-0.3824074074074074,0.3263888888888889,1,0,0,4.2963049999998475,call1,-0.03518518518518519,-0.33055555555555555,1,0,0,4.927233800000977,colour4,0.3662037037037037,0.3111111111111111,1,0,0,5.638862899999367,number1,True,True,True,3,3,2019_Nov_08_1600,MA_Theta_Exp,3.0.7,59.22798688194134,
video/Experiment/zh_sp07_Dr_Ge_1_GlobalTheta_NoVideo.avi,globalTheta,noVideo,sp07,Dr,Ge,1,0,5,flow/blocks/GlobalTheta_NoVideo_A.csv,,,,,,,,,0,0,0,0,0,30,30,16,,,,,,,,,-0.41574074074074074,0.31527777777777777,1,0,0,5.229435499999454,call1,0.000925925925925926,0.31805555555555554,1,0,0,6.0467115999999805,colour1,0.39675925925925926,0.30833333333333335,1,0,0,6.501275099999475,number1,False,True,True,3,3,2019_Nov_08_1600,MA_Theta_Exp,3.0.7,59.22798688194134,
video/Experiment/zh_sp01_Dr_We_1_GlobalTheta_NoVideo.avi,globalTheta,noVideo,sp01,Dr,We,1,0,5,flow/blocks/GlobalTheta_NoVideo_A.csv,,,,,,,,,0,0,0,0,0,31,31,28,,,,,,,,,-0.3560185185185185,0.08333333333333333,1,0,0,5.503744300000108,call2,-0.05185185185185185,-0.3138888888888889,1,0,0,6.144797200000539,colour4,0.387037037037037,0.2722222222222222,1,0,0,6.8487719999993715,number1,True,True,True,3,3,2019_Nov_08_1600,MA_Theta_Exp,3.0.7,59.22798688194134,
video/Experiment/zh_sp07_Ad_Ro_3_NVocInAudio_GlobalThetaInVideo.avi,vocoded,plusVideo,sp07,Ad,Ro,3,1,1,flow/blocks/NVocInAudio_GlobalThetaInVideo_A.csv,,,,,,,,,0,1,1,1,0,0,0,10,,,,,,,,,-0.44212962962962965,0.31805555555555554,1,0,0,4.852771900001244,call1,-0.026851851851851852,-0.10833333333333334,1,0,0,5.526473300000362,colour3,0.43842592592592594,-0.10694444444444444,1,0,0,6.049328199998854,number3,True,True,True,3,3,2019_Nov_08_1600,MA_Theta_Exp,3.0.7,59.22798688194134,
video/Experiment/zh_sp01_Dr_Ro_2_NVocInAudio_GlobalThetaInVideo.avi,vocoded,plusVideo,sp01,Dr,Ro,2,1,1,flow/blocks/NVocInAudio_GlobalThetaInVideo_A.csv,,,,,,,,,0,1,1,1,0,1,1,25,,,,,,,,,-0.4185185185185185,0.10277777777777777,1,0,0,5.333059399999911,call2,0.028703703703703703,-0.12777777777777777,1,0,0,6.364605400000073,colour3,0.38842592592592595,0.08472222222222223,1,0,0,6.935716299998603,number2,True,True,True,3,3,2019_Nov_08_1600,MA_Theta_Exp,3.0.7,59.22798688194134,
video/Experiment/zh_sp01_Ad_Gr_4_NVocInAudio_GlobalThetaInVideo.avi,vocoded,plusVideo,sp01,Ad,Gr,4,1,1,flow/blocks/NVocInAudio_GlobalThetaInVideo_A.csv,,,,,,,,,0,1,1,1,0,2,2,7,,,,,,,,,-0.3990740740740741,0.26944444444444443,1,0,0,5.162114800001291,call1,0.003703703703703704,0.10277777777777777,1,0,0,5.88953649999894,colour2,0.3509259259259259,-0.3347222222222222,1,0,0,6.511286099999779,number4,True,True,True,3,3,2019_Nov_08_1600,MA_Theta_Exp,3.0.7,59.22798688194134,
video/Experiment/zh_sp01_Dr_Gr_1_NVocInAudio_GlobalThetaInVideo.avi,vocoded,plusVideo,sp01,Dr,Gr,1,1,1,flow/blocks/NVocInAudio_GlobalThetaInVideo_A.csv,,,,,,,,,0,1,1,1,0,3,3,20,,,,,,,,,-0.3990740740740741,0.08472222222222223,1,0,0,5.44601639999928,call2,-0.040740740740740744,0.11527777777777778,1,0,0,5.926284999999552,colour2,0.4162037037037037,0.2875,1,0,0,6.526864299999943,number1,True,True,True,3,3,2019_Nov_08_1600,MA_Theta_Exp,3.0.7,59.22798688194134,
video/Experiment/zh_sp01_Dr_Gr_2_NVocInAudio_GlobalThetaInVideo.avi,vocoded,plusVideo,sp01,Dr,Gr,2,1,1,flow/blocks/NVocInAudio_GlobalThetaInVideo_A.csv,,,,,,,,,0,1,1,1,0,4,4,21,,,,,,,,,-0.39490740740740743,0.06805555555555555,1,0,0,5.384634399999413,call2,0.04537037037037037,0.14722222222222223,1,0,0,5.913842100000693,colour2,0.39537037037037037,0.13194444444444445,1,0,0,6.382503600001655,number2,True,True,True,3,3,2019_Nov_08_1600,MA_Theta_Exp,3.0.7,59.22798688194134,
video/Experiment/zh_sp07_Ad_We_1_NVocInAudio_GlobalThetaInVideo.avi,vocoded,plusVideo,sp07,Ad,We,1,1,1,flow/blocks/NVocInAudio_GlobalThetaInVideo_A.csv,,,,,,,,,0,1,1,1,0,5,5,12,,,,,,,,,-0.40046296296296297,0.2916666666666667,1,0,0,4.449144800000795,call1,0.010648148148148148,-0.3402777777777778,1,0,0,5.2031379000000015,colour4,0.37175925925925923,0.2638888888888889,1,0,0,5.913783799998782,number1,True,True,True,3,3,2019_Nov_08_1600,MA_Theta_Exp,3.0.7,59.22798688194134,
video/Experiment/zh_sp07_Dr_We_1_NVocInAudio_GlobalThetaInVideo.avi,vocoded,plusVideo,sp07,Dr,We,1,1,1,flow/blocks/NVocInAudio_GlobalThetaInVideo_A.csv,,,,,,,,,0,1,1,1,0,6,6,28,,,,,,,,,-0.43796296296296294,0.0625,1,0,0,4.7058127999989665,call2,-0.05185185185185185,-0.3333333333333333,1,0,0,5.239929200000915,colour4,0.39675925925925926,0.2875,1,0,0,5.927528899999743,number1,True,True,True,3,3,2019_Nov_08_1600,MA_Theta_Exp,3.0.7,59.22798688194134,
video/Experiment/zh_sp01_Dr_We_2_NVocInAudio_GlobalThetaInVideo.avi,vocoded,plusVideo,sp01,Dr,We,2,1,1,flow/blocks/NVocInAudio_GlobalThetaInVideo_A.csv,,,,,,,,,0,1,1,1,0,7,7,29,,,,,,,,,-0.47685185185185186,0.08888888888888889,1,0,0,5.198803700001008,call2,0.013425925925925926,-0.33055555555555555,1,0,0,5.959619900000689,colour4,0.37175925925925923,0.12361111111111112,1,0,0,6.528064399999494,number2,True,True,True,3,3,2019_Nov_08_1600,MA_Theta_Exp,3.0.7,59.22798688194134,
video/Experiment/zh_sp07_Ad_Ro_2_NVocInAudio_GlobalThetaInVideo.avi,vocoded,plusVideo,sp07,Ad,Ro,2,1,1,flow/blocks/NVocInAudio_GlobalThetaInVideo_A.csv,,,,,,,,,0,1,1,1,0,8,8,9,,,,,,,,,-0.3726851851851852,0.30833333333333335,1,0,0,4.5828636000005645,call1,-0.02546296296296296,-0.08194444444444444,1,0,0,5.102612100001352,colour3,0.4273148148148148,0.09444444444444444,1,0,0,5.598430500000177,number2,True,True,True,3,3,2019_Nov_08_1600,MA_Theta_Exp,3.0.7,59.22798688194134,
video/Experiment/zh_sp07_Ad_Ge_1_NVocInAudio_GlobalThetaInVideo.avi,vocoded,plusVideo,sp07,Ad,Ge,1,1,1,flow/blocks/NVocInAudio_GlobalThetaInVideo_A.csv,,,,,,,,,0,1,1,1,0,9,9,0,,,,,,,,,-0.42962962962962964,0.2847222222222222,1,0,0,4.341893100001471,call1,-0.040740740740740744,0.31666666666666665,1,0,0,4.797519600000669,colour1,0.4134259259259259,0.27361111111111114,1,0,0,5.279748799999652,number1,True,True,True,3,3,2019_Nov_08_1600,MA_Theta_Exp,3.0.7,59.22798688194134,
video/Experiment/zh_sp07_Dr_Gr_3_NVocInAudio_GlobalThetaInVideo.avi,vocoded,plusVideo,sp07,Dr,Gr,3,1,1,flow/blocks/NVocInAudio_GlobalThetaInVideo_A.csv,,,,,,,,,0,1,1,1,0,10,10,22,,,,,,,,,-0.3907407407407407,0.09166666666666666,1,0,0,4.547064899999896,call2,0.04675925925925926,0.10694444444444444,1,0,0,5.0410049999991315,colour2,0.3787037037037037,-0.08194444444444444,1,0,0,5.495133899999928,number3,True,True,True,3,3,2019_Nov_08_1600,MA_Theta_Exp,3.0.7,59.22798688194134,
video/Experiment/zh_sp07_Ad_Gr_3_NVocInAudio_GlobalThetaInVideo.avi,vocoded,plusVideo,sp07,Ad,Gr,3,1,1,flow/blocks/NVocInAudio_GlobalThetaInVideo_A.csv,,,,,,,,,0,1,1,1,0,11,11,6,,,,,,,,,-0.4476851851851852,0.29305555555555557,1,0,0,4.767992299999605,call1,-0.007407407407407408,0.09583333333333334,1,0,0,5.4877874000012525,colour2,0.3662037037037037,-0.3111111111111111,1,0,0,6.963721100000839,number4,True,True,False,3,3,2019_Nov_08_1600,MA_Theta_Exp,3.0.7,59.22798688194134,
video/Experiment/zh_sp01_Ad_Ge_4_NVocInAudio_GlobalThetaInVideo.avi,vocoded,plusVideo,sp01,Ad,Ge,4,1,1,flow/blocks/NVocInAudio_GlobalThetaInVideo_A.csv,,,,,,,,,0,1,1,1,0,12,12,3,,,,,,,,,-0.44074074074074077,0.30833333333333335,1,0,0,5.001254099999642,call1,0.03148148148148148,0.33055555555555555,1,0,0,5.675131500000134,colour1,0.3287037037037037,-0.30694444444444446,1,0,0,6.465802900000199,number4,True,True,True,3,3,2019_Nov_08_1600,MA_Theta_Exp,3.0.7,59.22798688194134,
video/Experiment/zh_sp01_Ad_We_2_NVocInAudio_GlobalThetaInVideo.avi,vocoded,plusVideo,sp01,Ad,We,2,1,1,flow/blocks/NVocInAudio_GlobalThetaInVideo_A.csv,,,,,,,,,0,1,1,1,0,13,13,13,,,,,,,,,-0.3837962962962963,0.2763888888888889,1,0,0,5.207029999999577,call1,-0.000462962962962963,-0.37083333333333335,1,0,0,5.985275799999727,colour4,0.36898148148148147,0.10416666666666667,1,0,0,6.51940729999842,number2,True,True,True,3,3,2019_Nov_08_1600,MA_Theta_Exp,3.0.7,59.22798688194134,
video/Experiment/zh_sp07_Ad_Ro_4_NVocInAudio_GlobalThetaInVideo.avi,vocoded,plusVideo,sp07,Ad,Ro,4,1,1,flow/blocks/NVocInAudio_GlobalThetaInVideo_A.csv,,,,,,,,,0,1,1,1,0,14,14,11,,,,,,,,,-0.40324074074074073,0.3,1,0,0,4.722494100000404,call1,-0.008796296296296297,-0.10416666666666667,1,0,0,5.369426600000224,colour3,0.38564814814814813,-0.30277777777777776,1,0,0,5.8376530000005005,number4,True,True,True,3,3,2019_Nov_08_1600,MA_Theta_Exp,3.0.7,59.22798688194134,
video/Experiment/zh_sp07_Dr_Ro_4_NVocInAudio_GlobalThetaInVideo.avi,vocoded,plusVideo,sp07,Dr,Ro,4,1,1,flow/blocks/NVocInAudio_GlobalThetaInVideo_A.csv,,,,,,,,,0,1,1,1,0,15,15,27,,,,,,,,,-0.4476851851851852,0.07222222222222222,1,0,0,4.7314784999998665,call2,-0.0032407407407407406,-0.09305555555555556,1,0,0,5.454159599999912,colour3,0.39814814814814814,-0.32083333333333336,1,0,0,5.999147099999391,number4,True,True,True,3,3,2019_Nov_08_1600,MA_Theta_Exp,3.0.7,59.22798688194134,
video/Experiment/zh_sp01_Ad_Gr_2_NVocInAudio_GlobalThetaInVideo.avi,vocoded,plusVideo,sp01,Ad,Gr,2,1,1,flow/blocks/NVocInAudio_GlobalThetaInVideo_A.csv,,,,,,,,,0,1,1,1,0,16,16,5,,,,,,,,,-0.3726851851851852,0.2875,1,0,0,5.308039800000188,call1,-0.04490740740740741,0.10694444444444444,1,0,0,5.810969000000114,colour2,0.39537037037037037,0.09305555555555556,1,0,0,6.22868009999911,number2,True,True,True,3,3,2019_Nov_08_1600,MA_Theta_Exp,3.0.7,59.22798688194134,
video/Experiment/zh_sp01_Ad_We_3_NVocInAudio_GlobalThetaInVideo.avi,vocoded,plusVideo,sp01,Ad,We,3,1,1,flow/blocks/NVocInAudio_GlobalThetaInVideo_A.csv,,,,,,,,,0,1,1,1,0,17,17,14,,,,,,,,,-0.35462962962962963,0.28194444444444444,1,0,0,5.324178300001222,call1,-0.000462962962962963,-0.35,1,0,0,6.129501900000832,colour4,0.4425925925925926,-0.08194444444444444,1,0,0,6.699115899999015,number3,True,True,True,3,3,2019_Nov_08_1600,MA_Theta_Exp,3.0.7,59.22798688194134,
video/Experiment/zh_sp07_Dr_Ge_4_NVocInAudio_GlobalThetaInVideo.avi,vocoded,plusVideo,sp07,Dr,Ge,4,1,1,flow/blocks/NVocInAudio_GlobalThetaInVideo_A.csv,,,,,,,,,0,1,1,1,0,18,18,19,,,,,,,,,-0.45185185185185184,0.059722222222222225,1,0,0,4.61489470000015,call2,-0.03935185185185185,0.2986111111111111,1,0,0,6.135316100000637,colour1,0.3912037037037037,-0.3194444444444444,1,0,0,6.865545700000439,number4,True,True,True,3,3,2019_Nov_08_1600,MA_Theta_Exp,3.0.7,59.22798688194134,
video/Experiment/zh_sp07_Dr_Ro_1_NVocInAudio_GlobalThetaInVideo.avi,vocoded,plusVideo,sp07,Dr,Ro,1,1,1,flow/blocks/NVocInAudio_GlobalThetaInVideo_A.csv,,,,,,,,,0,1,1,1,0,19,19,24,,,,,,,,,-0.42685185185185187,0.075,1,0,0,4.599154400000771,call2,-0.024074074074074074,-0.13055555555555556,1,0,0,5.151550799999313,colour3,0.3648148148148148,0.25833333333333336,1,0,0,5.86724790000153,number1,True,True,True,3,3,2019_Nov_08_1600,MA_Theta_Exp,3.0.7,59.22798688194134,
video/Experiment/zh_sp07_Ad_Ge_3_NVocInAudio_GlobalThetaInVideo.avi,vocoded,plusVideo,sp07,Ad,Ge,3,1,1,flow/blocks/NVocInAudio_GlobalThetaInVideo_A.csv,,,,,,,,,0,1,1,1,0,20,20,2,,,,,,,,,-0.475462962962963,0.28888888888888886,1,0,0,4.30020979999972,call1,0.024537037037037038,0.3,1,0,0,5.20761439999842,colour1,0.3578703703703704,-0.09305555555555556,1,0,0,5.8204521000006935,number3,True,True,True,3,3,2019_Nov_08_1600,MA_Theta_Exp,3.0.7,59.22798688194134,
video/Experiment/zh_sp07_Dr_Ge_3_NVocInAudio_GlobalThetaInVideo.avi,vocoded,plusVideo,sp07,Dr,Ge,3,1,1,flow/blocks/NVocInAudio_GlobalThetaInVideo_A.csv,,,,,,,,,0,1,1,1,0,21,21,18,,,,,,,,,-0.41574074074074074,0.06805555555555555,1,0,0,4.6187494000005245,call2,-0.05462962962962963,0.32916666666666666,1,0,0,5.156629000000976,colour1,0.43287037037037035,-0.11944444444444445,1,0,0,5.718292999999903,number3,True,True,True,3,3,2019_Nov_08_1600,MA_Theta_Exp,3.0.7,59.22798688194134,
video/Experiment/zh_sp01_Ad_Ge_2_NVocInAudio_GlobalThetaInVideo.avi,vocoded,plusVideo,sp01,Ad,Ge,2,1,1,flow/blocks/NVocInAudio_GlobalThetaInVideo_A.csv,,,,,,,,,0,1,1,1,0,22,22,1,,,,,,,,,-0.4587962962962963,0.37222222222222223,1,0,0,5.126136099999712,call1,-0.046296296296296294,0.31527777777777777,1,0,0,5.668769899999461,colour1,0.387037037037037,0.11666666666666667,1,0,0,6.1386001000009855,number2,True,True,True,3,3,2019_Nov_08_1600,MA_Theta_Exp,3.0.7,59.22798688194134,
video/Experiment/zh_sp07_Ad_Gr_1_NVocInAudio_GlobalThetaInVideo.avi,vocoded,plusVideo,sp07,Ad,Gr,1,1,1,flow/blocks/NVocInAudio_GlobalThetaInVideo_A.csv,,,,,,,,,0,1,1,1,0,23,23,4,,,,,,,,,-0.40185185185185185,0.2972222222222222,1,0,0,4.664464000001317,call1,-0.01990740740740741,0.09722222222222222,1,0,0,5.188996499999121,colour2,0.38425925925925924,0.30277777777777776,1,0,0,5.702991299998757,number1,True,True,True,3,3,2019_Nov_08_1600,MA_Theta_Exp,3.0.7,59.22798688194134,
video/Experiment/zh_sp01_Ad_We_4_NVocInAudio_GlobalThetaInVideo.avi,vocoded,plusVideo,sp01,Ad,We,4,1,1,flow/blocks/NVocInAudio_GlobalThetaInVideo_A.csv,,,,,,,,,0,1,1,1,0,24,24,15,,,,,,,,,-0.4046296296296296,0.2652777777777778,1,0,0,5.244848000000275,call1,-0.032407407407407406,-0.2986111111111111,1,0,0,5.973750999999538,colour4,0.47453703703703703,-0.28888888888888886,1,0,0,6.443744400001378,number4,True,True,True,3,3,2019_Nov_08_1600,MA_Theta_Exp,3.0.7,59.22798688194134,
video/Experiment/zh_sp01_Dr_Ro_3_NVocInAudio_GlobalThetaInVideo.avi,vocoded,plusVideo,sp01,Dr,Ro,3,1,1,flow/blocks/NVocInAudio_GlobalThetaInVideo_A.csv,,,,,,,,,0,1,1,1,0,25,25,26,,,,,,,,,-0.43796296296296294,0.09305555555555556,1,0,0,4.914319499999692,call2,-0.031018518518518518,-0.10416666666666667,1,0,0,5.580179900000076,colour3,0.3787037037037037,-0.09444444444444444,1,0,0,6.150976500000979,number3,True,True,True,3,3,2019_Nov_08_1600,MA_Theta_Exp,3.0.7,59.22798688194134,
video/Experiment/zh_sp07_Ad_Ro_1_NVocInAudio_GlobalThetaInVideo.avi,vocoded,plusVideo,sp07,Ad,Ro,1,1,1,flow/blocks/NVocInAudio_GlobalThetaInVideo_A.csv,,,,,,,,,0,1,1,1,0,26,26,8,,,,,,,,,-0.40185185185185185,0.28888888888888886,1,0,0,4.32762349999939,call1,-0.06157407407407407,-0.0763888888888889,1,0,0,4.976822700000412,colour3,0.33287037037037037,0.2986111111111111,1,0,0,5.563502900000458,number1,True,True,True,3,3,2019_Nov_08_1600,MA_Theta_Exp,3.0.7,59.22798688194134,
video/Experiment/zh_sp01_Dr_Ge_1_NVocInAudio_GlobalThetaInVideo.avi,vocoded,plusVideo,sp01,Dr,Ge,1,1,1,flow/blocks/NVocInAudio_GlobalThetaInVideo_A.csv,,,,,,,,,0,1,1,1,0,27,27,16,,,,,,,,,-0.4740740740740741,0.08194444444444444,1,0,0,5.209442399998807,call2,-0.02546296296296296,0.31666666666666665,1,0,0,5.7267453000004025,colour1,0.40370370370370373,0.3236111111111111,1,0,0,6.400264400001106,number1,True,True,True,3,3,2019_Nov_08_1600,MA_Theta_Exp,3.0.7,59.22798688194134,
video/Experiment/zh_sp01_Dr_Ge_2_NVocInAudio_GlobalThetaInVideo.avi,vocoded,plusVideo,sp01,Dr,Ge,2,1,1,flow/blocks/NVocInAudio_GlobalThetaInVideo_A.csv,,,,,,,,,0,1,1,1,0,28,28,17,,,,,,,,,-0.42685185185185187,0.08611111111111111,1,0,0,5.27523999999903,call2,-0.011574074074074073,0.3194444444444444,1,0,0,5.9049271999992925,colour1,0.3773148148148148,0.10138888888888889,1,0,0,6.401106600000276,number2,True,True,True,3,3,2019_Nov_08_1600,MA_Theta_Exp,3.0.7,59.22798688194134,
video/Experiment/zh_sp07_Dr_We_3_NVocInAudio_GlobalThetaInVideo.avi,vocoded,plusVideo,sp07,Dr,We,3,1,1,flow/blocks/NVocInAudio_GlobalThetaInVideo_A.csv,,,,,,,,,0,1,1,1,0,29,29,30,,,,,,,,,-0.42824074074074076,0.1,1,0,0,4.448386800000662,call2,-0.04490740740740741,-0.3125,1,0,0,5.13299939999888,colour4,0.4023148148148148,-0.0763888888888889,1,0,0,5.662900600000285,number3,True,True,True,3,3,2019_Nov_08_1600,MA_Theta_Exp,3.0.7,59.22798688194134,
video/Experiment/zh_sp01_Dr_Gr_4_NVocInAudio_GlobalThetaInVideo.avi,vocoded,plusVideo,sp01,Dr,Gr,4,1,1,flow/blocks/NVocInAudio_GlobalThetaInVideo_A.csv,,,,,,,,,0,1,1,1,0,30,30,23,,,,,,,,,-0.37407407407407406,0.09861111111111111,1,0,0,5.320968500000163,call2,-0.010185185185185186,0.1361111111111111,1,0,0,5.773095200000171,colour2,0.4273148148148148,-0.3388888888888889,1,0,0,6.233167999998841,number4,True,True,True,3,3,2019_Nov_08_1600,MA_Theta_Exp,3.0.7,59.22798688194134,
video/Experiment/zh_sp01_Dr_We_4_NVocInAudio_GlobalThetaInVideo.avi,vocoded,plusVideo,sp01,Dr,We,4,1,1,flow/blocks/NVocInAudio_GlobalThetaInVideo_A.csv,,,,,,,,,0,1,1,1,0,31,31,31,,,,,,,,,-0.37407407407407406,0.07361111111111111,1,0,0,5.3473397999987355,call2,0.000925925925925926,-0.3486111111111111,1,0,0,7.462649099999908,colour4,0.41898148148148145,-0.35833333333333334,1,0,0,8.027005199999621,number4,True,True,True,3,3,2019_Nov_08_1600,MA_Theta_Exp,3.0.7,59.22798688194134,
video/Experiment/zh_sp01_Dr_Ge_3_NoThetaInAudio_NoVideo.avi,noTheta,noVideo,sp01,Dr,Ge,3,2,4,flow/blocks/NoThetaInAudio_NoVideo_A.csv,,,,,,,,,0,2,2,2,0,0,0,18,,,,,,,,,-0.3990740740740741,0.0763888888888889,1,0,0,5.282066699999632,call2,-0.047685185185185185,0.29305555555555557,1,0,0,5.743531000000075,colour1,0.40370370370370373,-0.1388888888888889,1,0,0,6.261446700000306,number3,True,True,True,3,3,2019_Nov_08_1600,MA_Theta_Exp,3.0.7,59.22798688194134,
video/Experiment/zh_sp07_Dr_Gr_1_NoThetaInAudio_NoVideo.avi,noTheta,noVideo,sp07,Dr,Gr,1,2,4,flow/blocks/NoThetaInAudio_NoVideo_A.csv,,,,,,,,,0,2,2,2,0,1,1,20,,,,,,,,,-0.4310185185185185,-0.3055555555555556,1,0,0,4.681423100000757,call4,-0.01574074074074074,0.10833333333333334,1,0,0,5.261902000000191,colour2,0.32037037037037036,0.2875,1,0,0,5.877438199999233,number1,False,True,True,3,3,2019_Nov_08_1600,MA_Theta_Exp,3.0.7,59.22798688194134,
video/Experiment/zh_sp01_Dr_We_1_NoThetaInAudio_NoVideo.avi,noTheta,noVideo,sp01,Dr,We,1,2,4,flow/blocks/NoThetaInAudio_NoVideo_A.csv,,,,,,,,,0,2,2,2,0,2,2,28,,,,,,,,,-0.412962962962963,0.10555555555555556,1,0,0,5.219126699999833,call2,-0.004629629629629629,-0.3541666666666667,1,0,0,5.867266700000982,colour4,0.3523148148148148,0.2916666666666667,1,0,0,6.532063000000562,number1,True,True,True,3,3,2019_Nov_08_1600,MA_Theta_Exp,3.0.7,59.22798688194134,
video/Experiment/zh_sp01_Ad_Ro_4_NoThetaInAudio_NoVideo.avi,noTheta,noVideo,sp01,Ad,Ro,4,2,4,flow/blocks/NoThetaInAudio_NoVideo_A.csv,,,,,,,,,0,2,2,2,0,3,3,11,,,,,,,,,-0.38101851851851853,0.32083333333333336,1,0,0,5.248908899999151,call1,0.006481481481481481,-0.11944444444444445,1,0,0,5.848812800000815,colour3,0.37592592592592594,-0.3138888888888889,1,0,0,6.368384100000185,number4,True,True,True,3,3,2019_Nov_08_1600,MA_Theta_Exp,3.0.7,59.22798688194134,
video/Experiment/zh_sp07_Ad_Gr_2_NoThetaInAudio_NoVideo.avi,noTheta,noVideo,sp07,Ad,Gr,2,2,4,flow/blocks/NoThetaInAudio_NoVideo_A.csv,,,,,,,,,0,2,2,2,0,4,4,5,,,,,,,,,-0.362962962962963,0.30694444444444446,1,0,0,5.019843899999614,call1,-0.008796296296296297,0.0875,1,0,0,5.4872811999994155,colour2,0.36064814814814816,0.08611111111111111,1,0,0,6.1710399000003235,number2,True,True,True,3,3,2019_Nov_08_1600,MA_Theta_Exp,3.0.7,59.22798688194134,
video/Experiment/zh_sp07_Dr_Gr_2_NoThetaInAudio_NoVideo.avi,noTheta,noVideo,sp07,Dr,Gr,2,2,4,flow/blocks/NoThetaInAudio_NoVideo_A.csv,,,,,,,,,0,2,2,2,0,5,5,21,,,,,,,,,-0.35462962962962963,0.1,1,0,0,4.876234599998497,call2,-0.014351851851851852,0.10555555555555556,1,0,0,5.479618699999264,colour2,0.4300925925925926,0.10555555555555556,1,0,0,5.931645900000149,number2,True,True,True,3,3,2019_Nov_08_1600,MA_Theta_Exp,3.0.7,59.22798688194134,
video/Experiment/zh_sp07_Ad_Ge_1_NoThetaInAudio_NoVideo.avi,noTheta,noVideo,sp07,Ad,Ge,1,2,4,flow/blocks/NoThetaInAudio_NoVideo_A.csv,,,,,,,,,0,2,2,2,0,6,6,0,,,,,,,,,-0.33935185185185185,0.28194444444444444,1,0,0,4.385676699999749,call1,-0.05324074074074074,0.3055555555555556,1,0,0,4.807233699999415,colour1,0.32314814814814813,0.2861111111111111,1,0,0,5.184853000000658,number1,True,True,True,3,3,2019_Nov_08_1600,MA_Theta_Exp,3.0.7,59.22798688194134,
video/Experiment/zh_sp07_Ad_Ro_2_NoThetaInAudio_NoVideo.avi,noTheta,noVideo,sp07,Ad,Ro,2,2,4,flow/blocks/NoThetaInAudio_NoVideo_A.csv,,,,,,,,,0,2,2,2,0,7,7,9,,,,,,,,,-0.41435185185185186,0.32222222222222224,1,0,0,4.5332325999988825,call1,-0.014351851851851852,-0.14722222222222223,1,0,0,5.253699200000483,colour3,0.43425925925925923,0.08194444444444444,1,0,0,5.740599200000361,number2,True,True,True,3,3,2019_Nov_08_1600,MA_Theta_Exp,3.0.7,59.22798688194134,
video/Experiment/zh_sp01_Dr_We_2_NoThetaInAudio_NoVideo.avi,noTheta,noVideo,sp01,Dr,We,2,2,4,flow/blocks/NoThetaInAudio_NoVideo_A.csv,,,,,,,,,0,2,2,2,0,8,8,29,,,,,,,,,-0.32685185185185184,0.0875,1,0,0,5.244126300000062,call2,0.003703703703703704,-0.3013888888888889,1,0,0,6.035052999999607,colour4,0.4412037037037037,0.07777777777777778,1,0,0,6.562678199999937,number2,True,True,True,3,3,2019_Nov_08_1600,MA_Theta_Exp,3.0.7,59.22798688194134,
video/Experiment/zh_sp07_Dr_We_4_NoThetaInAudio_NoVideo.avi,noTheta,noVideo,sp07,Dr,We,4,2,4,flow/blocks/NoThetaInAudio_NoVideo_A.csv,,,,,,,,,0,2,2,2,0,9,9,31,,,,,,,,,-0.3921296296296296,0.2833333333333333,1,0,0,5.4501235999996425,call1,0.017592592592592594,0.041666666666666664,1,0,0,6.057918000000427,colour2,0.3925925925925926,-0.27361111111111114,1,0,0,6.698830099998304,number4,False,False,True,3,3,2019_Nov_08_1600,MA_Theta_Exp,3.0.7,59.22798688194134,
video/Experiment/zh_sp01_Dr_Ro_4_NoThetaInAudio_NoVideo.avi,noTheta,noVideo,sp01,Dr,Ro,4,2,4,flow/blocks/NoThetaInAudio_NoVideo_A.csv,,,,,,,,,0,2,2,2,0,10,10,27,,,,,,,,,-0.37824074074074077,0.09861111111111111,1,0,0,5.274956700000985,call2,0.03148148148148148,-0.125,1,0,0,5.934840899999472,colour3,0.36898148148148147,-0.26805555555555555,1,0,0,6.378124700000626,number4,True,True,True,3,3,2019_Nov_08_1600,MA_Theta_Exp,3.0.7,59.22798688194134,
video/Experiment/zh_sp01_Dr_We_3_NoThetaInAudio_NoVideo.avi,noTheta,noVideo,sp01,Dr,We,3,2,4,flow/blocks/NoThetaInAudio_NoVideo_A.csv,,,,,,,,,0,2,2,2,0,11,11,30,,,,,,,,,-0.4074074074074074,0.0875,1,0,0,5.2203290999987075,call2,0.038425925925925926,-0.3861111111111111,1,0,0,5.807341600000655,colour4,0.4134259259259259,-0.09027777777777778,1,0,0,6.368657400000302,number3,True,True,True,3,3,2019_Nov_08_1600,MA_Theta_Exp,3.0.7,59.22798688194134,
video/Experiment/zh_sp07_Ad_Ge_4_NoThetaInAudio_NoVideo.avi,noTheta,noVideo,sp07,Ad,Ge,4,2,4,flow/blocks/NoThetaInAudio_NoVideo_A.csv,,,,,,,,,0,2,2,2,0,12,12,3,,,,,,,,,-0.4101851851851852,0.29305555555555557,1,0,0,4.58086319999893,call1,0.03009259259259259,0.3013888888888889,1,0,0,4.967286400000376,colour1,0.4273148148148148,-0.2833333333333333,1,0,0,5.525780100000702,number4,True,True,True,3,3,2019_Nov_08_1600,MA_Theta_Exp,3.0.7,59.22798688194134,
video/Experiment/zh_sp01_Ad_We_1_NoThetaInAudio_NoVideo.avi,noTheta,noVideo,sp01,Ad,We,1,2,4,flow/blocks/NoThetaInAudio_NoVideo_A.csv,,,,,,,,,0,2,2,2,0,13,13,12,,,,,,,,,-0.4046296296296296,0.28888888888888886,1,0,0,6.298152999999729,call1,-0.04351851851851852,-0.32916666666666666,1,0,0,6.865219300001627,colour4,0.36342592592592593,0.29305555555555557,1,0,0,8.196470599999884,number1,True,True,True,3,3,2019_Nov_08_1600,MA_Theta_Exp,3.0.7,59.22798688194134,
video/Experiment/zh_sp07_Ad_Gr_1_NoThetaInAudio_NoVideo.avi,noTheta,noVideo,sp07,Ad,Gr,1,2,4,flow/blocks/NoThetaInAudio_NoVideo_A.csv,,,,,,,,,0,2,2,2,0,14,14,4,,,,,,,,,-0.412962962962963,0.3194444444444444,1,0,0,4.830297699998482,call1,0.05787037037037037,0.08888888888888889,1,0,0,5.5610656999997445,colour2,0.4273148148148148,0.28055555555555556,1,0,0,6.057563200000004,number1,True,True,True,3,3,2019_Nov_08_1600,MA_Theta_Exp,3.0.7,59.22798688194134,
video/Experiment/zh_sp01_Ad_We_3_NoThetaInAudio_NoVideo.avi,noTheta,noVideo,sp01,Ad,We,3,2,4,flow/blocks/NoThetaInAudio_NoVideo_A.csv,,,,,,,,,0,2,2,2,0,15,15,14,,,,,,,,,-0.4199074074074074,0.3013888888888889,1,0,0,5.525439900000492,call1,0.017592592592592594,-0.3527777777777778,1,0,0,6.232062600000063,colour4,0.4064814814814815,-0.10555555555555556,1,0,0,6.937761799999862,number3,True,True,True,3,3,2019_Nov_08_1600,MA_Theta_Exp,3.0.7,59.22798688194134,
video/Experiment/zh_sp01_Ad_Ge_3_NoThetaInAudio_NoVideo.avi,noTheta,noVideo,sp01,Ad,Ge,3,2,4,flow/blocks/NoThetaInAudio_NoVideo_A.csv,,,,,,,,,0,2,2,2,0,16,16,2,,,,,,,,,-0.43796296296296294,0.30972222222222223,1,0,0,5.935344699999405,call1,-0.033796296296296297,0.3375,1,0,0,6.605816000001141,colour1,0.36898148148148147,-0.10138888888888889,1,0,0,7.1891429999996035,number3,True,True,True,3,3,2019_Nov_08_1600,MA_Theta_Exp,3.0.7,59.22798688194134,
video/Experiment/zh_sp01_Dr_Ro_3_NoThetaInAudio_NoVideo.avi,noTheta,noVideo,sp01,Dr,Ro,3,2,4,flow/blocks/NoThetaInAudio_NoVideo_A.csv,,,,,,,,,0,2,2,2,0,17,17,26,,,,,,,,,-0.43796296296296294,0.1361111111111111,1,0,0,5.191336199999569,call2,-0.01990740740740741,-0.14027777777777778,1,0,0,5.694698999999673,colour3,0.45231481481481484,-0.1375,1,0,0,6.21219949999977,number3,True,True,True,3,3,2019_Nov_08_1600,MA_Theta_Exp,3.0.7,59.22798688194134,
video/Experiment/zh_sp01_Ad_We_2_NoThetaInAudio_NoVideo.avi,noTheta,noVideo,sp01,Ad,We,2,2,4,flow/blocks/NoThetaInAudio_NoVideo_A.csv,,,,,,,,,0,2,2,2,0,18,18,13,,,,,,,,,-0.33796296296296297,0.30833333333333335,1,0,0,5.279431200000545,call1,-0.0587962962962963,-0.2569444444444444,1,0,0,5.866236199999548,colour4,0.3453703703703704,0.33055555555555555,1,0,0,6.3993795000005775,number1,True,True,False,3,3,2019_Nov_08_1600,MA_Theta_Exp,3.0.7,59.22798688194134,
video/Experiment/zh_sp07_Ad_Ro_1_NoThetaInAudio_NoVideo.avi,noTheta,noVideo,sp07,Ad,Ro,1,2,4,flow/blocks/NoThetaInAudio_NoVideo_A.csv,,,,,,,,,0,2,2,2,0,19,19,8,,,,,,,,,-0.41574074074074074,0.325,1,0,0,4.3276036999995995,call1,0.03981481481481482,-0.12638888888888888,1,0,0,4.822002499999144,colour3,0.3912037037037037,0.32083333333333336,1,0,0,5.37836950000019,number1,True,True,True,3,3,2019_Nov_08_1600,MA_Theta_Exp,3.0.7,59.22798688194134,
video/Experiment/zh_sp07_Dr_Ro_1_NoThetaInAudio_NoVideo.avi,noTheta,noVideo,sp07,Dr,Ro,1,2,4,flow/blocks/NoThetaInAudio_NoVideo_A.csv,,,,,,,,,0,2,2,2,0,20,20,24,,,,,,,,,-0.4546296296296296,0.0875,1,0,0,4.740511099998912,call2,0.03564814814814815,-0.11527777777777778,1,0,0,5.410393999998632,colour3,0.3800925925925926,0.29444444444444445,1,0,0,6.0418964000000415,number1,True,True,True,3,3,2019_Nov_08_1600,MA_Theta_Exp,3.0.7,59.22798688194134,
video/Experiment/zh_sp07_Ad_Ge_2_NoThetaInAudio_NoVideo.avi,noTheta,noVideo,sp07,Ad,Ge,2,2,4,flow/blocks/NoThetaInAudio_NoVideo_A.csv,,,,,,,,,0,2,2,2,0,21,21,1,,,,,,,,,-0.4671296296296296,0.30277777777777776,1,0,0,4.469796500001394,call1,0.07037037037037037,0.30277777777777776,1,0,0,4.888421600000584,colour1,0.42592592592592593,0.0763888888888889,1,0,0,5.35320049999973,number2,True,True,True,3,3,2019_Nov_08_1600,MA_Theta_Exp,3.0.7,59.22798688194134,
video/Experiment/zh_sp07_Dr_Ge_2_NoThetaInAudio_NoVideo.avi,noTheta,noVideo,sp07,Dr,Ge,2,2,4,flow/blocks/NoThetaInAudio_NoVideo_A.csv,,,,,,,,,0,2,2,2,0,22,22,17,,,,,,,,,-0.40879629629629627,0.0875,1,0,0,4.765810700000657,call2,0.024537037037037038,0.28055555555555556,1,0,0,5.844805599999745,colour1,0.39675925925925926,0.06944444444444445,1,0,0,6.332798999999795,number2,True,True,True,3,3,2019_Nov_08_1600,MA_Theta_Exp,3.0.7,59.22798688194134,
video/Experiment/zh_sp07_Ad_Gr_4_NoThetaInAudio_NoVideo.avi,noTheta,noVideo,sp07,Ad,Gr,4,2,4,flow/blocks/NoThetaInAudio_NoVideo_A.csv,,,,,,,,,0,2,2,2,0,23,23,7,,,,,,,,,-0.40046296296296297,0.3402777777777778,1,0,0,4.630281399999149,call1,-0.007407407407407408,0.13472222222222222,1,0,0,5.117945100000725,colour2,0.4550925925925926,-0.30833333333333335,1,0,0,5.659388300000501,number4,True,True,True,3,3,2019_Nov_08_1600,MA_Theta_Exp,3.0.7,59.22798688194134,
video/Experiment/zh_sp01_Dr_Gr_4_NoThetaInAudio_NoVideo.avi,noTheta,noVideo,sp01,Dr,Gr,4,2,4,flow/blocks/NoThetaInAudio_NoVideo_A.csv,,,,,,,,,0,2,2,2,0,24,24,23,,,,,,,,,-0.4393518518518518,0.12222222222222222,1,0,0,5.163312500000757,call2,0.03009259259259259,0.06666666666666667,1,0,0,5.661818599999606,colour2,0.45231481481481484,-0.3055555555555556,1,0,0,6.137694200000624,number4,True,True,True,3,3,2019_Nov_08_1600,MA_Theta_Exp,3.0.7,59.22798688194134,
video/Experiment/zh_sp01_Ad_We_4_NoThetaInAudio_NoVideo.avi,noTheta,noVideo,sp01,Ad,We,4,2,4,flow/blocks/NoThetaInAudio_NoVideo_A.csv,,,,,,,,,0,2,2,2,0,25,25,15,,,,,,,,,-0.42962962962962964,0.3375,1,0,0,5.3079333000005136,call1,0.023148148148148147,-0.3541666666666667,1,0,0,6.041467099999863,colour4,0.4023148148148148,-0.34444444444444444,1,0,0,6.44226560000061,number4,True,True,True,3,3,2019_Nov_08_1600,MA_Theta_Exp,3.0.7,59.22798688194134,
video/Experiment/zh_sp01_Ad_Gr_3_NoThetaInAudio_NoVideo.avi,noTheta,noVideo,sp01,Ad,Gr,3,2,4,flow/blocks/NoThetaInAudio_NoVideo_A.csv,,,,,,,,,0,2,2,2,0,26,26,6,,,,,,,,,-0.4671296296296296,0.2916666666666667,1,0,0,4.981090599998424,call1,0.023148148148148147,0.09305555555555556,1,0,0,6.131476100001237,colour2,0.41064814814814815,-0.12777777777777777,1,0,0,6.644190800001525,number3,True,True,True,3,3,2019_Nov_08_1600,MA_Theta_Exp,3.0.7,59.22798688194134,
video/Experiment/zh_sp07_Dr_Ge_4_NoThetaInAudio_NoVideo.avi,noTheta,noVideo,sp07,Dr,Ge,4,2,4,flow/blocks/NoThetaInAudio_NoVideo_A.csv,,,,,,,,,0,2,2,2,0,27,27,19,,,,,,,,,-0.38935185185185184,0.3138888888888889,1,0,0,4.935499699999127,call1,0.010648148148148148,0.3236111111111111,1,0,0,5.357016799998746,colour1,0.3925925925925926,-0.2777777777777778,1,0,0,5.989097499999843,number4,False,True,True,3,3,2019_Nov_08_1600,MA_Theta_Exp,3.0.7,59.22798688194134,
video/Experiment/zh_sp01_Dr_Ro_2_NoThetaInAudio_NoVideo.avi,noTheta,noVideo,sp01,Dr,Ro,2,2,4,flow/blocks/NoThetaInAudio_NoVideo_A.csv,,,,,,,,,0,2,2,2,0,28,28,25,,,,,,,,,-0.4199074074074074,0.11388888888888889,1,0,0,5.4173885000000155,call2,0.0023148148148148147,-0.15416666666666667,1,0,0,6.231329999998707,colour3,0.36898148148148147,0.058333333333333334,1,0,0,6.729273800001465,number2,True,True,True,3,3,2019_Nov_08_1600,MA_Theta_Exp,3.0.7,59.22798688194134,
video/Experiment/zh_sp07_Dr_Gr_3_NoThetaInAudio_NoVideo.avi,noTheta,noVideo,sp07,Dr,Gr,3,2,4,flow/blocks/NoThetaInAudio_NoVideo_A.csv,,,,,,,,,0,2,2,2,0,29,29,22,,,,,,,,,-0.4115740740740741,0.10277777777777777,1,0,0,6.842476900001202,call2,-0.0060185185185185185,0.08055555555555556,1,0,0,7.621628200000487,colour2,0.4203703703703704,-0.15138888888888888,1,0,0,8.190494700000272,number3,True,True,True,3,3,2019_Nov_08_1600,MA_Theta_Exp,3.0.7,59.22798688194134,
video/Experiment/zh_sp01_Ad_Ro_3_NoThetaInAudio_NoVideo.avi,noTheta,noVideo,sp01,Ad,Ro,3,2,4,flow/blocks/NoThetaInAudio_NoVideo_A.csv,,,,,,,,,0,2,2,2,0,30,30,10,,,,,,,,,-0.40324074074074073,0.30416666666666664,1,0,0,5.196514900000693,call1,-0.011574074074074073,-0.11527777777777778,1,0,0,5.712890700000571,colour3,0.46064814814814814,-0.3819444444444444,1,0,0,6.171943100000135,number4,True,True,False,3,3,2019_Nov_08_1600,MA_Theta_Exp,3.0.7,59.22798688194134,
video/Experiment/zh_sp07_Dr_Ge_1_NoThetaInAudio_NoVideo.avi,noTheta,noVideo,sp07,Dr,Ge,1,2,4,flow/blocks/NoThetaInAudio_NoVideo_A.csv,,,,,,,,,0,2,2,2,0,31,31,16,,,,,,,,,-0.4393518518518518,0.1111111111111111,1,0,0,5.107958000000508,call2,0.010648148148148148,0.2875,1,0,0,5.800621100001081,colour1,0.37453703703703706,0.30972222222222223,1,0,0,6.26891120000073,number1,True,True,True,3,3,2019_Nov_08_1600,MA_Theta_Exp,3.0.7,59.22798688194134,
video/Experiment/zh_sp01_Dr_Gr_4_NVocInAudio_NoVideo.avi,vocoded,noVideo,sp01,Dr,Gr,4,3,2,flow/blocks/NVocInAudio_NoVideo_A.csv,,,,,,,,,0,3,3,3,0,0,0,23,,,,,,,,,-0.36018518518518516,0.09861111111111111,1,0,0,5.438682300000437,call2,-0.01990740740740741,0.09166666666666666,1,0,0,6.082163799999762,colour2,0.33425925925925926,-0.28888888888888886,1,0,0,6.676965999999084,number4,True,True,True,3,3,2019_Nov_08_1600,MA_Theta_Exp,3.0.7,59.22798688194134,
video/Experiment/zh_sp07_Dr_We_2_NVocInAudio_NoVideo.avi,vocoded,noVideo,sp07,Dr,We,2,3,2,flow/blocks/NVocInAudio_NoVideo_A.csv,,,,,,,,,0,3,3,3,0,1,1,29,,,,,,,,,-0.38935185185185184,0.06805555555555555,1,0,0,4.689693899999838,call2,-0.06018518518518518,-0.35,1,0,0,5.231067200000325,colour4,0.4009259259259259,0.07777777777777778,1,0,0,5.769722200000615,number2,True,True,True,3,3,2019_Nov_08_1600,MA_Theta_Exp,3.0.7,59.22798688194134,
video/Experiment/zh_sp01_Ad_Gr_3_NVocInAudio_NoVideo.avi,vocoded,noVideo,sp01,Ad,Gr,3,3,2,flow/blocks/NVocInAudio_NoVideo_A.csv,,,,,,,,,0,3,3,3,0,2,2,6,,,,,,,,,-0.36157407407407405,0.3013888888888889,1,0,0,5.280512899998939,call1,-0.000462962962962963,0.15138888888888888,1,0,0,6.614210400000957,colour2,0.4023148148148148,-0.11666666666666667,1,0,0,7.534051100001307,number3,True,True,True,3,3,2019_Nov_08_1600,MA_Theta_Exp,3.0.7,59.22798688194134,
video/Experiment/zh_sp07_Dr_Gr_1_NVocInAudio_NoVideo.avi,vocoded,noVideo,sp07,Dr,Gr,1,3,2,flow/blocks/NVocInAudio_NoVideo_A.csv,,,,,,,,,0,3,3,3,0,3,3,20,,,,,,,,,-0.39490740740740743,0.09722222222222222,1,0,0,4.645055799999682,call2,-0.047685185185185185,0.10694444444444444,1,0,0,5.0818500999994285,colour2,0.4009259259259259,0.2916666666666667,1,0,0,5.508498999999574,number1,True,True,True,3,3,2019_Nov_08_1600,MA_Theta_Exp,3.0.7,59.22798688194134,
video/Experiment/zh_sp01_Ad_Gr_4_NVocInAudio_NoVideo.avi,vocoded,noVideo,sp01,Ad,Gr,4,3,2,flow/blocks/NVocInAudio_NoVideo_A.csv,,,,,,,,,0,3,3,3,0,4,4,7,,,,,,,,,-0.41574074074074074,0.32222222222222224,1,0,0,5.209301800001413,call1,0.017592592592592594,0.1,1,0,0,5.765835899999729,colour2,0.40370370370370373,-0.3527777777777778,1,0,0,6.565839099999721,number4,True,True,True,3,3,2019_Nov_08_1600,MA_Theta_Exp,3.0.7,59.22798688194134,
video/Experiment/zh_sp01_Ad_We_2_NVocInAudio_NoVideo.avi,vocoded,noVideo,sp01,Ad,We,2,3,2,flow/blocks/NVocInAudio_NoVideo_A.csv,,,,,,,,,0,3,3,3,0,5,5,13,,,,,,,,,-0.43796296296296294,0.30833333333333335,1,0,0,5.177131599999484,call1,-0.05462962962962963,-0.3486111111111111,1,0,0,5.782502899999599,colour4,0.3537037037037037,0.09027777777777778,1,0,0,6.404048399999738,number2,True,True,True,3,3,2019_Nov_08_1600,MA_Theta_Exp,3.0.7,59.22798688194134,
video/Experiment/zh_sp01_Ad_Ge_2_NVocInAudio_NoVideo.avi,vocoded,noVideo,sp01,Ad,Ge,2,3,2,flow/blocks/NVocInAudio_NoVideo_A.csv,,,,,,,,,0,3,3,3,0,6,6,1,,,,,,,,,-0.4601851851851852,0.3236111111111111,1,0,0,5.188060899999982,call1,-0.07546296296296297,0.33611111111111114,1,0,0,5.688387899999725,colour1,0.35648148148148145,0.0763888888888889,1,0,0,6.172709500000565,number2,True,True,True,3,3,2019_Nov_08_1600,MA_Theta_Exp,3.0.7,59.22798688194134,
video/Experiment/zh_sp01_Ad_Ro_3_NVocInAudio_NoVideo.avi,vocoded,noVideo,sp01,Ad,Ro,3,3,2,flow/blocks/NVocInAudio_NoVideo_A.csv,,,,,,,,,0,3,3,3,0,7,7,10,,,,,,,,,-0.4310185185185185,0.2972222222222222,1,0,0,5.188569099998858,call1,0.027314814814814816,-0.12638888888888888,1,0,0,5.791495699999359,colour3,0.39675925925925926,-0.1125,1,0,0,6.272929000000659,number3,True,True,True,3,3,2019_Nov_08_1600,MA_Theta_Exp,3.0.7,59.22798688194134,
video/Experiment/zh_sp01_Dr_Ro_3_NVocInAudio_NoVideo.avi,vocoded,noVideo,sp01,Dr,Ro,3,3,2,flow/blocks/NVocInAudio_NoVideo_A.csv,,,,,,,,,0,3,3,3,0,8,8,26,,,,,,,,,-0.4115740740740741,0.08194444444444444,1,0,0,5.043764500000179,call2,0.013425925925925926,-0.12222222222222222,1,0,0,5.433858299998974,colour3,0.39814814814814814,-0.11666666666666667,1,0,0,5.828884999998991,number3,True,True,True,3,3,2019_Nov_08_1600,MA_Theta_Exp,3.0.7,59.22798688194134,
video/Experiment/zh_sp07_Ad_Ro_2_NVocInAudio_NoVideo.avi,vocoded,noVideo,sp07,Ad,Ro,2,3,2,flow/blocks/NVocInAudio_NoVideo_A.csv,,,,,,,,,0,3,3,3,0,9,9,9,,,,,,,,,-0.4185185185185185,0.325,1,0,0,4.421893500000806,call1,0.025925925925925925,-0.1375,1,0,0,4.895098700000744,colour3,0.33564814814814814,0.12083333333333333,1,0,0,5.509819599999901,number2,True,True,True,3,3,2019_Nov_08_1600,MA_Theta_Exp,3.0.7,59.22798688194134,
video/Experiment/zh_sp07_Dr_Ro_2_NVocInAudio_NoVideo.avi,vocoded,noVideo,sp07,Dr,Ro,2,3,2,flow/blocks/NVocInAudio_NoVideo_A.csv,,,,,,,,,0,3,3,3,0,10,10,25,,,,,,,,,-0.4462962962962963,0.10694444444444444,1,0,0,4.504166700000496,call2,0.03564814814814815,-0.08472222222222223,1,0,0,4.966253000000506,colour3,0.36064814814814816,0.10138888888888889,1,0,0,5.416930100000172,number2,True,True,True,3,3,2019_Nov_08_1600,MA_Theta_Exp,3.0.7,59.22798688194134,
video/Experiment/zh_sp07_Dr_Ge_3_NVocInAudio_NoVideo.avi,vocoded,noVideo,sp07,Dr,Ge,3,3,2,flow/blocks/NVocInAudio_NoVideo_A.csv,,,,,,,,,0,3,3,3,0,11,11,18,,,,,,,,,-0.4476851851851852,0.06527777777777778,1,0,0,4.374942300000839,call2,-0.02824074074074074,0.2916666666666667,1,0,0,4.87205240000003,colour1,0.399537037037037,-0.10555555555555556,1,0,0,5.379358500000308,number3,True,True,True,3,3,2019_Nov_08_1600,MA_Theta_Exp,3.0.7,59.22798688194134,
video/Experiment/zh_sp07_Ad_We_1_NVocInAudio_NoVideo.avi,vocoded,noVideo,sp07,Ad,We,1,3,2,flow/blocks/NVocInAudio_NoVideo_A.csv,,,,,,,,,0,3,3,3,0,12,12,12,,,,,,,,,-0.40879629629629627,0.31666666666666665,1,0,0,4.821124599999166,call1,-0.001851851851851852,-0.2916666666666667,1,0,0,5.822630999999092,colour4,0.3814814814814815,0.29305555555555557,1,0,0,7.266411200000221,number1,True,True,True,3,3,2019_Nov_08_1600,MA_Theta_Exp,3.0.7,59.22798688194134,
video/Experiment/zh_sp07_Dr_Gr_3_NVocInAudio_NoVideo.avi,vocoded,noVideo,sp07,Dr,Gr,3,3,2,flow/blocks/NVocInAudio_NoVideo_A.csv,,,,,,,,,0,3,3,3,0,13,13,22,,,,,,,,,-0.3824074074074074,0.09444444444444444,1,0,0,4.812189199999921,call2,0.04398148148148148,0.09027777777777778,1,0,0,5.575494599999729,colour2,0.399537037037037,-0.09166666666666666,1,0,0,6.029118599999492,number3,True,True,True,3,3,2019_Nov_08_1600,MA_Theta_Exp,3.0.7,59.22798688194134,
video/Experiment/zh_sp07_Ad_Ro_1_NVocInAudio_NoVideo.avi,vocoded,noVideo,sp07,Ad,Ro,1,3,2,flow/blocks/NVocInAudio_NoVideo_A.csv,,,,,,,,,0,3,3,3,0,14,14,8,,,,,,,,,-0.41712962962962963,0.32222222222222224,1,0,0,4.263984900000651,call1,0.03148148148148148,-0.14305555555555555,1,0,0,4.762021599999571,colour3,0.3773148148148148,0.3111111111111111,1,0,0,5.354183699999339,number1,True,True,True,3,3,2019_Nov_08_1600,MA_Theta_Exp,3.0.7,59.22798688194134,
video/Experiment/zh_sp01_Dr_We_3_NVocInAudio_NoVideo.avi,vocoded,noVideo,sp01,Dr,We,3,3,2,flow/blocks/NVocInAudio_NoVideo_A.csv,,,,,,,,,0,3,3,3,0,15,15,30,,,,,,,,,-0.45601851851851855,0.09305555555555556,1,0,0,4.922954600000594,call2,-0.046296296296296294,-0.30694444444444446,1,0,0,5.466826099998798,colour4,0.38564814814814813,-0.08888888888888889,1,0,0,5.986221799999839,number3,True,True,True,3,3,2019_Nov_08_1600,MA_Theta_Exp,3.0.7,59.22798688194134,
video/Experiment/zh_sp01_Ad_We_3_NVocInAudio_NoVideo.avi,vocoded,noVideo,sp01,Ad,We,3,3,2,flow/blocks/NVocInAudio_NoVideo_A.csv,,,,,,,,,0,3,3,3,0,16,16,14,,,,,,,,,-0.35462962962962963,0.33055555555555555,1,0,0,5.333269600001586,call1,-0.033796296296296297,-0.3375,1,0,0,5.9438427000004594,colour4,0.33425925925925926,-0.11666666666666667,1,0,0,6.586595599999782,number3,True,True,True,3,3,2019_Nov_08_1600,MA_Theta_Exp,3.0.7,59.22798688194134,
video/Experiment/zh_sp01_Dr_Ro_4_NVocInAudio_NoVideo.avi,vocoded,noVideo,sp01,Dr,Ro,4,3,2,flow/blocks/NVocInAudio_NoVideo_A.csv,,,,,,,,,0,3,3,3,0,17,17,27,,,,,,,,,-0.38796296296296295,0.1111111111111111,1,0,0,5.693051899999773,call2,-0.0032407407407407406,-0.12222222222222222,1,0,0,6.49447599999985,colour3,0.4050925925925926,-0.31527777777777777,1,0,0,7.0685451999997895,number4,True,True,True,3,3,2019_Nov_08_1600,MA_Theta_Exp,3.0.7,59.22798688194134,
video/Experiment/zh_sp07_Dr_Ge_4_NVocInAudio_NoVideo.avi,vocoded,noVideo,sp07,Dr,Ge,4,3,2,flow/blocks/NVocInAudio_NoVideo_A.csv,,,,,,,,,0,3,3,3,0,18,18,19,,,,,,,,,-0.41435185185185186,0.09027777777777778,1,0,0,4.6081646000002365,call2,-0.011574074074074073,0.33611111111111114,1,0,0,5.541478500001176,colour1,0.39675925925925926,-0.3416666666666667,1,0,0,6.2985417999989295,number4,True,True,True,3,3,2019_Nov_08_1600,MA_Theta_Exp,3.0.7,59.22798688194134,
video/Experiment/zh_sp01_Dr_We_4_NVocInAudio_NoVideo.avi,vocoded,noVideo,sp01,Dr,We,4,3,2,flow/blocks/NVocInAudio_NoVideo_A.csv,,,,,,,,,0,3,3,3,0,19,19,31,,,,,,,,,-0.4185185185185185,0.1125,1,0,0,5.16008039999906,call2,0.08425925925925926,-0.36527777777777776,1,0,0,5.9339306999991095,colour4,0.40925925925925927,-0.3388888888888889,1,0,0,6.431651200000488,number4,True,True,True,3,3,2019_Nov_08_1600,MA_Theta_Exp,3.0.7,59.22798688194134,
video/Experiment/zh_sp07_Dr_Ge_2_NVocInAudio_NoVideo.avi,vocoded,noVideo,sp07,Dr,Ge,2,3,2,flow/blocks/NVocInAudio_NoVideo_A.csv,,,,,,,,,0,3,3,3,0,20,20,17,,,,,,,,,-0.37962962962962965,0.07916666666666666,1,0,0,4.6923532000000705,call2,0.027314814814814816,0.28194444444444444,1,0,0,5.242873500001224,colour1,0.4287037037037037,0.09166666666666666,1,0,0,5.716288199999326,number2,True,True,True,3,3,2019_Nov_08_1600,MA_Theta_Exp,3.0.7,59.22798688194134,
video/Experiment/zh_sp07_Ad_Gr_1_NVocInAudio_NoVideo.avi,vocoded,noVideo,sp07,Ad,Gr,1,3,2,flow/blocks/NVocInAudio_NoVideo_A.csv,,,,,,,,,0,3,3,3,0,21,21,4,,,,,,,,,-0.3837962962962963,0.30416666666666664,1,0,0,4.76521909999974,call1,-0.07962962962962963,0.11388888888888889,1,0,0,5.215986499999417,colour2,0.3592592592592593,0.32083333333333336,1,0,0,5.704014299999471,number1,True,True,True,3,3,2019_Nov_08_1600,MA_Theta_Exp,3.0.7,59.22798688194134,
video/Experiment/zh_sp01_Ad_Ge_3_NVocInAudio_NoVideo.avi,vocoded,noVideo,sp01,Ad,Ge,3,3,2,flow/blocks/NVocInAudio_NoVideo_A.csv,,,,,,,,,0,3,3,3,0,22,22,2,,,,,,,,,-0.35185185185185186,0.32083333333333336,1,0,0,4.983500399999684,call1,-0.018518518518518517,0.3013888888888889,1,0,0,5.506854000001113,colour1,0.38564814814814813,-0.10416666666666667,1,0,0,6.20796429999973,number3,True,True,True,3,3,2019_Nov_08_1600,MA_Theta_Exp,3.0.7,59.22798688194134,
video/Experiment/zh_sp01_Dr_Ro_1_NVocInAudio_NoVideo.avi,vocoded,noVideo,sp01,Dr,Ro,1,3,2,flow/blocks/NVocInAudio_NoVideo_A.csv,,,,,,,,,0,3,3,3,0,23,23,24,,,,,,,,,-0.4101851851851852,0.09305555555555556,1,0,0,5.099716500000795,call2,0.000925925925925926,-0.09861111111111111,1,0,0,5.6709081000008155,colour3,0.4203703703703704,0.30833333333333335,1,0,0,6.241852699999072,number1,True,True,True,3,3,2019_Nov_08_1600,MA_Theta_Exp,3.0.7,59.22798688194134,
video/Experiment/zh_sp07_Ad_Ge_1_NVocInAudio_NoVideo.avi,vocoded,noVideo,sp07,Ad,Ge,1,3,2,flow/blocks/NVocInAudio_NoVideo_A.csv,,,,,,,,,0,3,3,3,0,24,24,0,,,,,,,,,-0.3365740740740741,0.2861111111111111,1,0,0,4.470176799999535,call1,-0.03518518518518519,0.2916666666666667,1,0,0,5.000634699999864,colour1,0.34120370370370373,0.28055555555555556,1,0,0,5.453626799999256,number1,True,True,True,3,3,2019_Nov_08_1600,MA_Theta_Exp,3.0.7,59.22798688194134,
video/Experiment/zh_sp07_Ad_Ge_4_NVocInAudio_NoVideo.avi,vocoded,noVideo,sp07,Ad,Ge,4,3,2,flow/blocks/NVocInAudio_NoVideo_A.csv,,,,,,,,,0,3,3,3,0,25,25,3,,,,,,,,,-0.3490740740740741,0.3375,1,0,0,4.958456600001227,call1,-0.04212962962962963,0.3236111111111111,1,0,0,5.529179399998611,colour1,0.37175925925925923,-0.30833333333333335,1,0,0,6.157767999999123,number4,True,True,True,3,3,2019_Nov_08_1600,MA_Theta_Exp,3.0.7,59.22798688194134,
video/Experiment/zh_sp01_Ad_We_4_NVocInAudio_NoVideo.avi,vocoded,noVideo,sp01,Ad,We,4,3,2,flow/blocks/NVocInAudio_NoVideo_A.csv,,,,,,,,,0,3,3,3,0,26,26,15,,,,,,,,,-0.3490740740740741,0.29305555555555557,1,0,0,5.2428407999996125,call1,-0.024074074074074074,-0.275,1,0,0,5.979076300000088,colour4,0.48564814814814816,-0.35694444444444445,1,0,0,6.441478700000516,number4,True,True,True,3,3,2019_Nov_08_1600,MA_Theta_Exp,3.0.7,59.22798688194134,
video/Experiment/zh_sp01_Ad_Gr_2_NVocInAudio_NoVideo.avi,vocoded,noVideo,sp01,Ad,Gr,2,3,2,flow/blocks/NVocInAudio_NoVideo_A.csv,,,,,,,,,0,3,3,3,0,27,27,5,,,,,,,,,-0.3824074074074074,0.2916666666666667,1,0,0,5.336830399999599,call1,-0.047685185185185185,0.10138888888888889,1,0,0,5.8577265000003536,colour2,0.38287037037037036,0.08194444444444444,1,0,0,6.311445299999832,number2,True,True,True,3,3,2019_Nov_08_1600,MA_Theta_Exp,3.0.7,59.22798688194134,
video/Experiment/zh_sp01_Dr_Ge_1_NVocInAudio_NoVideo.avi,vocoded,noVideo,sp01,Dr,Ge,1,3,2,flow/blocks/NVocInAudio_NoVideo_A.csv,,,,,,,,,0,3,3,3,0,28,28,16,,,,,,,,,-0.37962962962962965,0.09722222222222222,1,0,0,5.141015600000173,call2,-0.0060185185185185185,0.3013888888888889,1,0,0,5.878860700000587,colour1,0.3537037037037037,0.28194444444444444,1,0,0,6.390847099999519,number1,True,True,True,3,3,2019_Nov_08_1600,MA_Theta_Exp,3.0.7,59.22798688194134,
video/Experiment/zh_sp07_Ad_Ro_4_NVocInAudio_NoVideo.avi,vocoded,noVideo,sp07,Ad,Ro,4,3,2,flow/blocks/NVocInAudio_NoVideo_A.csv,,,,,,,,,0,3,3,3,0,29,29,11,,,,,,,,,-0.40879629629629627,0.3486111111111111,1,0,0,4.593521399998281,call1,-0.04351851851851852,-0.08194444444444444,1,0,0,5.684909100000368,colour3,0.4148148148148148,-0.30277777777777776,1,0,0,6.245051500000045,number4,True,True,True,3,3,2019_Nov_08_1600,MA_Theta_Exp,3.0.7,59.22798688194134,
video/Experiment/zh_sp07_Dr_Gr_2_NVocInAudio_NoVideo.avi,vocoded,noVideo,sp07,Dr,Gr,2,3,2,flow/blocks/NVocInAudio_NoVideo_A.csv,,,,,,,,,0,3,3,3,0,30,30,21,,,,,,,,,-0.36712962962962964,0.03888888888888889,1,0,0,4.618606400001227,call2,-0.000462962962962963,0.07361111111111111,1,0,0,5.3306883000004746,colour2,0.32731481481481484,0.10694444444444444,1,0,0,5.979505000001154,number2,True,True,True,3,3,2019_Nov_08_1600,MA_Theta_Exp,3.0.7,59.22798688194134,
video/Experiment/zh_sp07_Dr_We_1_NVocInAudio_NoVideo.avi,vocoded,noVideo,sp07,Dr,We,1,3,2,flow/blocks/NVocInAudio_NoVideo_A.csv,,,,,,,,,0,3,3,3,0,31,31,28,,,,,,,,,-0.3768518518518518,0.1,1,0,0,4.383758500000113,call2,-0.049074074074074076,-0.3416666666666667,1,0,0,4.950912500000413,colour4,0.399537037037037,0.31527777777777777,1,0,0,5.6568654000002425,number1,True,True,True,3,3,2019_Nov_08_1600,MA_Theta_Exp,3.0.7,59.22798688194134,
video/Experiment/zh_sp01_Dr_Ge_2_NoThetaInAudio_GlobalThetaInVideo.avi,noTheta,plusVideo,sp01,Dr,Ge,2,4,3,flow/blocks/NoThetaInAudio_GlobalThetaInVideo_A.csv,,,,,,,,,0,4,4,4,0,0,0,17,,,,,,,,,-0.47685185185185186,0.125,1,0,0,5.34727329999987,call2,-0.06574074074074074,0.30833333333333335,1,0,0,5.970983999999589,colour1,0.3773148148148148,0.10833333333333334,1,0,0,6.4595281000001705,number2,True,True,True,3,3,2019_Nov_08_1600,MA_Theta_Exp,3.0.7,59.22798688194134,
video/Experiment/zh_sp07_Dr_Ro_3_NoThetaInAudio_GlobalThetaInVideo.avi,noTheta,plusVideo,sp07,Dr,Ro,3,4,3,flow/blocks/NoThetaInAudio_GlobalThetaInVideo_A.csv,,,,,,,,,0,4,4,4,0,1,1,26,,,,,,,,,-0.4060185185185185,0.3055555555555556,1,0,0,4.370967799999562,call1,0.0023148148148148147,-0.1361111111111111,1,0,0,4.9037102999991475,colour3,0.36898148148148147,-0.11527777777777778,1,0,0,5.326530399999683,number3,False,True,True,3,3,2019_Nov_08_1600,MA_Theta_Exp,3.0.7,59.22798688194134,
video/Experiment/zh_sp01_Ad_Ro_3_NoThetaInAudio_GlobalThetaInVideo.avi,noTheta,plusVideo,sp01,Ad,Ro,3,4,3,flow/blocks/NoThetaInAudio_GlobalThetaInVideo_A.csv,,,,,,,,,0,4,4,4,0,2,2,10,,,,,,,,,-0.38657407407407407,0.29305555555555557,1,0,0,5.057252900000094,call1,-0.024074074074074074,-0.08611111111111111,1,0,0,5.612980899999457,colour3,0.38981481481481484,-0.32222222222222224,1,0,0,6.228890800000954,number4,True,True,False,3,3,2019_Nov_08_1600,MA_Theta_Exp,3.0.7,59.22798688194134,
video/Experiment/zh_sp01_Ad_Ro_4_NoThetaInAudio_GlobalThetaInVideo.avi,noTheta,plusVideo,sp01,Ad,Ro,4,4,3,flow/blocks/NoThetaInAudio_GlobalThetaInVideo_A.csv,,,,,,,,,0,4,4,4,0,3,3,11,,,,,,,,,-0.4324074074074074,0.30277777777777776,1,0,0,5.176652600001034,call1,-0.04351851851851852,-0.07916666666666666,1,0,0,5.757491700000173,colour3,0.387037037037037,-0.3333333333333333,1,0,0,6.235136299999795,number4,True,True,True,3,3,2019_Nov_08_1600,MA_Theta_Exp,3.0.7,59.22798688194134,
video/Experiment/zh_sp07_Ad_We_1_NoThetaInAudio_GlobalThetaInVideo.avi,noTheta,plusVideo,sp07,Ad,We,1,4,3,flow/blocks/NoThetaInAudio_GlobalThetaInVideo_A.csv,,,,,,,,,0,4,4,4,0,4,4,12,,,,,,,,,-0.3907407407407407,0.30972222222222223,1,0,0,4.4445856000002095,call1,-0.011574074074074073,-0.3611111111111111,1,0,0,5.067359299999225,colour4,0.3578703703703704,0.2777777777777778,1,0,0,5.684057099999336,number1,True,True,True,3,3,2019_Nov_08_1600,MA_Theta_Exp,3.0.7,59.22798688194134,
video/Experiment/zh_sp07_Dr_We_1_NoThetaInAudio_GlobalThetaInVideo.avi,noTheta,plusVideo,sp07,Dr,We,1,4,3,flow/blocks/NoThetaInAudio_GlobalThetaInVideo_A.csv,,,,,,,,,0,4,4,4,0,5,5,28,,,,,,,,,-0.44351851851851853,-0.3736111111111111,1,0,0,4.7023136999996495,call4,0.0412037037037037,-0.30416666666666664,1,0,0,5.553894800001217,colour4,0.37453703703703706,0.30972222222222223,1,0,0,6.229630699999689,number1,False,True,True,3,3,2019_Nov_08_1600,MA_Theta_Exp,3.0.7,59.22798688194134,
video/Experiment/zh_sp07_Ad_Ge_1_NoThetaInAudio_GlobalThetaInVideo.avi,noTheta,plusVideo,sp07,Ad,Ge,1,4,3,flow/blocks/NoThetaInAudio_GlobalThetaInVideo_A.csv,,,,,,,,,0,4,4,4,0,6,6,0,,,,,,,,,-0.41435185185185186,0.2708333333333333,1,0,0,4.444967700001143,call1,0.0023148148148148147,0.32222222222222224,1,0,0,5.459110499999952,colour1,0.3439814814814815,0.3402777777777778,1,0,0,6.138537400000132,number1,True,True,True,3,3,2019_Nov_08_1600,MA_Theta_Exp,3.0.7,59.22798688194134,
video/Experiment/zh_sp07_Ad_We_2_NoThetaInAudio_GlobalThetaInVideo.avi,noTheta,plusVideo,sp07,Ad,We,2,4,3,flow/blocks/NoThetaInAudio_GlobalThetaInVideo_A.csv,,,,,,,,,0,4,4,4,0,7,7,13,,,,,,,,,-0.3587962962962963,0.3236111111111111,1,0,0,4.493810199999643,call1,-0.0060185185185185185,-0.29444444444444445,1,0,0,5.488275600000634,colour4,0.38425925925925924,0.16944444444444445,1,0,0,6.223846599999888,number2,True,True,True,3,3,2019_Nov_08_1600,MA_Theta_Exp,3.0.7,59.22798688194134,
video/Experiment/zh_sp07_Ad_Ro_1_NoThetaInAudio_GlobalThetaInVideo.avi,noTheta,plusVideo,sp07,Ad,Ro,1,4,3,flow/blocks/NoThetaInAudio_GlobalThetaInVideo_A.csv,,,,,,,,,0,4,4,4,0,8,8,8,,,,,,,,,-0.45046296296296295,0.33055555555555555,1,0,0,4.339533300000767,call1,0.00787037037037037,-0.1,1,0,0,5.037714699999924,colour3,0.3787037037037037,0.31527777777777777,1,0,0,5.631637399999818,number1,True,True,True,3,3,2019_Nov_08_1600,MA_Theta_Exp,3.0.7,59.22798688194134,
video/Experiment/zh_sp01_Dr_We_4_NoThetaInAudio_GlobalThetaInVideo.avi,noTheta,plusVideo,sp01,Dr,We,4,4,3,flow/blocks/NoThetaInAudio_GlobalThetaInVideo_A.csv,,,,,,,,,0,4,4,4,0,9,9,31,,,,,,,,,-0.42824074074074076,0.1,1,0,0,5.143628499999977,call2,-0.010185185185185186,-0.35,1,0,0,5.718595599999389,colour4,0.3925925925925926,-0.33194444444444443,1,0,0,6.156662600000345,number4,True,True,True,3,3,2019_Nov_08_1600,MA_Theta_Exp,3.0.7,59.22798688194134,
video/Experiment/zh_sp01_Dr_Gr_3_NoThetaInAudio_GlobalThetaInVideo.avi,noTheta,plusVideo,sp01,Dr,Gr,3,4,3,flow/blocks/NoThetaInAudio_GlobalThetaInVideo_A.csv,,,,,,,,,0,4,4,4,0,10,10,22,,,,,,,,,-0.4046296296296296,0.07083333333333333,1,0,0,5.217529800000193,call2,-0.03518518518518519,0.08611111111111111,1,0,0,5.753961200000049,colour2,0.38564814814814813,-0.13333333333333333,1,0,0,6.297759999999471,number3,True,True,True,3,3,2019_Nov_08_1600,MA_Theta_Exp,3.0.7,59.22798688194134,
video/Experiment/zh_sp01_Ad_Gr_1_NoThetaInAudio_GlobalThetaInVideo.avi,noTheta,plusVideo,sp01,Ad,Gr,1,4,3,flow/blocks/NoThetaInAudio_GlobalThetaInVideo_A.csv,,,,,,,,,0,4,4,4,0,11,11,4,,,,,,,,,-0.47129629629629627,0.30972222222222223,1,0,0,5.309248600000501,call1,-0.07546296296296297,0.12083333333333333,1,0,0,5.841666300000725,colour2,0.34953703703703703,0.3013888888888889,1,0,0,6.332399599999917,number1,True,True,True,3,3,2019_Nov_08_1600,MA_Theta_Exp,3.0.7,59.22798688194134,
video/Experiment/zh_sp01_Dr_Gr_2_NoThetaInAudio_GlobalThetaInVideo.avi,noTheta,plusVideo,sp01,Dr,Gr,2,4,3,flow/blocks/NoThetaInAudio_GlobalThetaInVideo_A.csv,,,,,,,,,0,4,4,4,0,12,12,21,,,,,,,,,-0.4212962962962963,0.04583333333333333,1,0,0,5.321781599999667,call2,-0.007407407407407408,0.0875,1,0,0,5.851284399999713,colour2,0.39814814814814814,0.10833333333333334,1,0,0,6.245281600000453,number2,True,True,True,3,3,2019_Nov_08_1600,MA_Theta_Exp,3.0.7,59.22798688194134,
video/Experiment/zh_sp01_Ad_Gr_2_NoThetaInAudio_GlobalThetaInVideo.avi,noTheta,plusVideo,sp01,Ad,Gr,2,4,3,flow/blocks/NoThetaInAudio_GlobalThetaInVideo_A.csv,,,,,,,,,0,4,4,4,0,13,13,5,,,,,,,,,-0.3921296296296296,0.29305555555555557,1,0,0,5.1689525000001595,call1,-0.018518518518518517,0.09027777777777778,1,0,0,5.582017099999575,colour2,0.38287037037037036,0.1111111111111111,1,0,0,6.0563584999999875,number2,True,True,True,3,3,2019_Nov_08_1600,MA_Theta_Exp,3.0.7,59.22798688194134,
video/Experiment/zh_sp07_Dr_Gr_4_NoThetaInAudio_GlobalThetaInVideo.avi,noTheta,plusVideo,sp07,Dr,Gr,4,4,3,flow/blocks/NoThetaInAudio_GlobalThetaInVideo_A.csv,,,,,,,,,0,4,4,4,0,14,14,23,,,,,,,,,-0.42824074074074076,0.09444444444444444,1,0,0,5.995139200000267,call2,-0.04212962962962963,0.11805555555555555,1,0,0,7.197180700000899,colour2,0.3800925925925926,-0.35555555555555557,1,0,0,7.846205199999531,number4,True,True,True,3,3,2019_Nov_08_1600,MA_Theta_Exp,3.0.7,59.22798688194134,
video/Experiment/zh_sp01_Dr_Ge_3_NoThetaInAudio_GlobalThetaInVideo.avi,noTheta,plusVideo,sp01,Dr,Ge,3,4,3,flow/blocks/NoThetaInAudio_GlobalThetaInVideo_A.csv,,,,,,,,,0,4,4,4,0,15,15,18,,,,,,,,,-0.37407407407407406,0.09444444444444444,1,0,0,5.022377899998901,call2,0.012037037037037037,0.29305555555555557,1,0,0,5.571623699999691,colour1,0.4023148148148148,-0.11388888888888889,1,0,0,6.044455900000685,number3,True,True,True,3,3,2019_Nov_08_1600,MA_Theta_Exp,3.0.7,59.22798688194134,
video/Experiment/zh_sp01_Ad_Ge_3_NoThetaInAudio_GlobalThetaInVideo.avi,noTheta,plusVideo,sp01,Ad,Ge,3,4,3,flow/blocks/NoThetaInAudio_GlobalThetaInVideo_A.csv,,,,,,,,,0,4,4,4,0,16,16,2,,,,,,,,,-0.4046296296296296,0.3611111111111111,1,0,0,4.792711199999758,call1,-0.007407407407407408,0.3125,1,0,0,5.161307899999883,colour1,0.44814814814814813,-0.15,1,0,0,5.839616400000523,number3,True,True,True,3,3,2019_Nov_08_1600,MA_Theta_Exp,3.0.7,59.22798688194134,
video/Experiment/zh_sp07_Dr_We_2_NoThetaInAudio_GlobalThetaInVideo.avi,noTheta,plusVideo,sp07,Dr,We,2,4,3,flow/blocks/NoThetaInAudio_GlobalThetaInVideo_A.csv,,,,,,,,,0,4,4,4,0,17,17,29,,,,,,,,,-0.362962962962963,0.14722222222222223,1,0,0,4.7209944000005635,call2,-0.032407407407407406,-0.32222222222222224,1,0,0,5.2814381000007415,colour4,0.38842592592592595,0.07777777777777778,1,0,0,5.870560999999725,number2,True,True,True,3,3,2019_Nov_08_1600,MA_Theta_Exp,3.0.7,59.22798688194134,
video/Experiment/zh_sp01_Dr_Ro_2_NoThetaInAudio_GlobalThetaInVideo.avi,noTheta,plusVideo,sp01,Dr,Ro,2,4,3,flow/blocks/NoThetaInAudio_GlobalThetaInVideo_A.csv,,,,,,,,,0,4,4,4,0,18,18,25,,,,,,,,,-0.3962962962962963,0.14027777777777778,1,0,0,5.296710100001292,call2,0.03009259259259259,-0.10694444444444444,1,0,0,6.200458699999217,colour3,0.3648148148148148,0.11527777777777778,1,0,0,6.806405900000755,number2,True,True,True,3,3,2019_Nov_08_1600,MA_Theta_Exp,3.0.7,59.22798688194134,
video/Experiment/zh_sp01_Ad_Ro_2_NoThetaInAudio_GlobalThetaInVideo.avi,noTheta,plusVideo,sp01,Ad,Ro,2,4,3,flow/blocks/NoThetaInAudio_GlobalThetaInVideo_A.csv,,,,,,,,,0,4,4,4,0,19,19,9,,,,,,,,,-0.4185185185185185,0.29583333333333334,1,0,0,5.085773700000573,call1,0.003703703703703704,-0.07361111111111111,1,0,0,5.700198999998975,colour3,0.39814814814814814,0.09305555555555556,1,0,0,6.183907700000418,number2,True,True,True,3,3,2019_Nov_08_1600,MA_Theta_Exp,3.0.7,59.22798688194134,
video/Experiment/zh_sp07_Dr_Gr_1_NoThetaInAudio_GlobalThetaInVideo.avi,noTheta,plusVideo,sp07,Dr,Gr,1,4,3,flow/blocks/NoThetaInAudio_GlobalThetaInVideo_A.csv,,,,,,,,,0,4,4,4,0,20,20,20,,,,,,,,,-0.4462962962962963,0.10416666666666667,1,0,0,4.515827300001547,call2,0.03425925925925926,0.09166666666666666,1,0,0,5.897847399999591,colour2,0.33425925925925926,0.2875,1,0,0,6.458997300000192,number1,True,True,True,3,3,2019_Nov_08_1600,MA_Theta_Exp,3.0.7,59.22798688194134,
video/Experiment/zh_sp01_Dr_We_3_NoThetaInAudio_GlobalThetaInVideo.avi,noTheta,plusVideo,sp01,Dr,We,3,4,3,flow/blocks/NoThetaInAudio_GlobalThetaInVideo_A.csv,,,,,,,,,0,4,4,4,0,21,21,30,,,,,,,,,-0.42407407407407405,0.08888888888888889,1,0,0,5.959270800000013,call2,-0.026851851851851852,-0.3347222222222222,1,0,0,6.878806300001088,colour4,0.3425925925925926,-0.11527777777777778,1,0,0,7.557958299999882,number3,True,True,True,3,3,2019_Nov_08_1600,MA_Theta_Exp,3.0.7,59.22798688194134,
video/Experiment/zh_sp07_Ad_We_3_NoThetaInAudio_GlobalThetaInVideo.avi,noTheta,plusVideo,sp07,Ad,We,3,4,3,flow/blocks/NoThetaInAudio_GlobalThetaInVideo_A.csv,,,,,,,,,0,4,4,4,0,22,22,14,,,,,,,,,-0.3587962962962963,0.31527777777777777,1,0,0,4.39370720000079,call1,0.01898148148148148,-0.3013888888888889,1,0,0,5.023420900000929,colour4,0.4134259259259259,-0.0875,1,0,0,5.509693400001197,number3,True,True,True,3,3,2019_Nov_08_1600,MA_Theta_Exp,3.0.7,59.22798688194134,
video/Experiment/zh_sp07_Ad_We_4_NoThetaInAudio_GlobalThetaInVideo.avi,noTheta,plusVideo,sp07,Ad,We,4,4,3,flow/blocks/NoThetaInAudio_GlobalThetaInVideo_A.csv,,,,,,,,,0,4,4,4,0,23,23,15,,,,,,,,,-0.44212962962962965,0.3,1,0,0,4.524055000001681,call1,-0.03518518518518519,-0.2875,1,0,0,5.230616599999848,colour4,0.41203703703703703,-0.3194444444444444,1,0,0,5.710754499999894,number4,True,True,True,3,3,2019_Nov_08_1600,MA_Theta_Exp,3.0.7,59.22798688194134,
video/Experiment/zh_sp07_Dr_Ro_4_NoThetaInAudio_GlobalThetaInVideo.avi,noTheta,plusVideo,sp07,Dr,Ro,4,4,3,flow/blocks/NoThetaInAudio_GlobalThetaInVideo_A.csv,,,,,,,,,0,4,4,4,0,24,24,27,,,,,,,,,-0.3851851851851852,0.30972222222222223,1,0,0,5.628527699998813,call1,0.017592592592592594,-0.15,1,0,0,6.943309199999931,colour3,0.4675925925925926,-0.32916666666666666,1,0,0,8.041418400000111,number4,False,True,True,3,3,2019_Nov_08_1600,MA_Theta_Exp,3.0.7,59.22798688194134,
video/Experiment/zh_sp07_Dr_Ge_1_NoThetaInAudio_GlobalThetaInVideo.avi,noTheta,plusVideo,sp07,Dr,Ge,1,4,3,flow/blocks/NoThetaInAudio_GlobalThetaInVideo_A.csv,,,,,,,,,0,4,4,4,0,25,25,16,,,,,,,,,-0.3699074074074074,0.3125,1,0,0,4.569037699999171,call1,0.005092592592592593,0.2972222222222222,1,0,0,4.949934600001143,colour1,0.37453703703703706,0.28055555555555556,1,0,0,5.32040600000073,number1,False,True,True,3,3,2019_Nov_08_1600,MA_Theta_Exp,3.0.7,59.22798688194134,
video/Experiment/zh_sp01_Ad_Ge_4_NoThetaInAudio_GlobalThetaInVideo.avi,noTheta,plusVideo,sp01,Ad,Ge,4,4,3,flow/blocks/NoThetaInAudio_GlobalThetaInVideo_A.csv,,,,,,,,,0,4,4,4,0,26,26,3,,,,,,,,,-0.38796296296296295,0.3055555555555556,1,0,0,5.259983199999624,call1,-0.022685185185185187,0.28888888888888886,1,0,0,5.848772499999541,colour1,0.36203703703703705,-0.3388888888888889,1,0,0,6.50260949999938,number4,True,True,True,3,3,2019_Nov_08_1600,MA_Theta_Exp,3.0.7,59.22798688194134,
video/Experiment/zh_sp07_Ad_Ge_2_NoThetaInAudio_GlobalThetaInVideo.avi,noTheta,plusVideo,sp07,Ad,Ge,2,4,3,flow/blocks/NoThetaInAudio_GlobalThetaInVideo_A.csv,,,,,,,,,0,4,4,4,0,27,27,1,,,,,,,,,-0.35324074074074074,0.30694444444444446,1,0,0,5.134187399999064,call1,-0.011574074074074073,0.30694444444444446,1,0,0,5.59581419999995,colour1,0.387037037037037,0.10416666666666667,1,0,0,6.069926600001054,number2,True,True,True,3,3,2019_Nov_08_1600,MA_Theta_Exp,3.0.7,59.22798688194134,
video/Experiment/zh_sp01_Dr_Ge_4_NoThetaInAudio_GlobalThetaInVideo.avi,noTheta,plusVideo,sp01,Dr,Ge,4,4,3,flow/blocks/NoThetaInAudio_GlobalThetaInVideo_A.csv,,,,,,,,,0,4,4,4,0,28,28,19,,,,,,,,,-0.412962962962963,0.09861111111111111,1,0,0,5.273258799999894,call2,-0.008796296296296297,0.3347222222222222,1,0,0,6.043789699999252,colour1,0.37175925925925923,-0.3138888888888889,1,0,0,6.66660260000026,number4,True,True,True,3,3,2019_Nov_08_1600,MA_Theta_Exp,3.0.7,59.22798688194134,
video/Experiment/zh_sp07_Ad_Gr_4_NoThetaInAudio_GlobalThetaInVideo.avi,noTheta,plusVideo,sp07,Ad,Gr,4,4,3,flow/blocks/NoThetaInAudio_GlobalThetaInVideo_A.csv,,,,,,,,,0,4,4,4,0,29,29,7,,,,,,,,,-0.40879629629629627,0.2722222222222222,1,0,0,4.627892200000133,call1,0.037037037037037035,0.06805555555555555,1,0,0,5.083197199999631,colour2,0.38287037037037036,-0.3375,1,0,0,5.628526700000293,number4,True,True,True,3,3,2019_Nov_08_1600,MA_Theta_Exp,3.0.7,59.22798688194134,
video/Experiment/zh_sp07_Dr_Ro_1_NoThetaInAudio_GlobalThetaInVideo.avi,noTheta,plusVideo,sp07,Dr,Ro,1,4,3,flow/blocks/NoThetaInAudio_GlobalThetaInVideo_A.csv,,,,,,,,,0,4,4,4,0,30,30,24,,,,,,,,,-0.38935185185185184,0.09722222222222222,1,0,0,4.475577699999121,call2,-0.047685185185185185,-0.12777777777777777,1,0,0,4.861269800001537,colour3,0.3773148148148148,0.2833333333333333,1,0,0,5.340021500000148,number1,True,True,True,3,3,2019_Nov_08_1600,MA_Theta_Exp,3.0.7,59.22798688194134,
video/Experiment/zh_sp01_Ad_Gr_3_NoThetaInAudio_GlobalThetaInVideo.avi,noTheta,plusVideo,sp01,Ad,Gr,3,4,3,flow/blocks/NoThetaInAudio_GlobalThetaInVideo_A.csv,,,,,,,,,0,4,4,4,0,31,31,6,,,,,,,,,-0.37546296296296294,0.2986111111111111,1,0,0,5.391707699998733,call1,-0.03796296296296296,0.11805555555555555,1,0,0,5.898092400000678,colour2,0.4078703703703704,-0.14166666666666666,1,0,0,7.091836300000068,number3,True,True,True,3,3,2019_Nov_08_1600,MA_Theta_Exp,3.0.7,59.22798688194134,
video/Experiment/zh_sp07_Ti_We_1_GlobalTheta_NoVideo.avi,globalTheta,noVideo,sp07,Ti,We,1,0,5,flow/blocks/GlobalTheta_NoVideo_B.csv,,,,,,,,,,,,,,,,,0,0,0,0,0,0,0,12,-0.41712962962962963,-0.11666666666666667,1,0,0,4.649894899999708,call3,0.025925925925925925,-0.34444444444444444,1,0,0,5.1714564000012615,colour4,0.3509259259259259,0.30416666666666664,1,0,0,5.7318623999999545,number1,True,True,True,3,3,2019_Nov_08_1600,MA_Theta_Exp,3.0.7,59.22798688194134,
video/Experiment/zh_sp07_Ti_We_2_GlobalTheta_NoVideo.avi,globalTheta,noVideo,sp07,Ti,We,2,0,5,flow/blocks/GlobalTheta_NoVideo_B.csv,,,,,,,,,,,,,,,,,0,0,0,0,0,1,1,13,-0.4101851851851852,-0.12361111111111112,1,0,0,4.556145799999285,call3,-0.09212962962962963,-0.3263888888888889,1,0,0,4.993720399999802,colour4,0.43425925925925923,0.11388888888888889,1,0,0,6.107134699999733,number2,True,True,True,3,3,2019_Nov_08_1600,MA_Theta_Exp,3.0.7,59.22798688194134,
video/Experiment/zh_sp01_Un_Ro_3_GlobalTheta_NoVideo.avi,globalTheta,noVideo,sp01,Un,Ro,3,0,5,flow/blocks/GlobalTheta_NoVideo_B.csv,,,,,,,,,,,,,,,,,0,0,0,0,0,2,2,26,-0.4074074074074074,-0.3333333333333333,1,0,0,5.00272810000024,call4,0.07175925925925926,-0.05,1,0,0,5.423279700000421,colour3,0.4412037037037037,-0.09444444444444444,1,0,0,5.842061100000137,number3,True,True,True,3,3,2019_Nov_08_1600,MA_Theta_Exp,3.0.7,59.22798688194134,
video/Experiment/zh_sp01_Un_Ge_1_GlobalTheta_NoVideo.avi,globalTheta,noVideo,sp01,Un,Ge,1,0,5,flow/blocks/GlobalTheta_NoVideo_B.csv,,,,,,,,,,,,,,,,,0,0,0,0,0,3,3,16,-0.4046296296296296,-0.33611111111111114,1,0,0,5.056306999998924,call4,0.020370370370370372,0.35,1,0,0,6.390607299999829,colour1,0.43425925925925923,0.3541666666666667,1,0,0,6.984886700000061,number1,True,True,True,3,3,2019_Nov_08_1600,MA_Theta_Exp,3.0.7,59.22798688194134,
video/Experiment/zh_sp07_Un_Ge_4_GlobalTheta_NoVideo.avi,globalTheta,noVideo,sp07,Un,Ge,4,0,5,flow/blocks/GlobalTheta_NoVideo_B.csv,,,,,,,,,,,,,,,,,0,0,0,0,0,4,4,19,-0.42268518518518516,-0.32916666666666666,1,0,0,4.165870200000427,call4,-0.05185185185185185,0.3111111111111111,1,0,0,4.77024209999945,colour1,0.38842592592592595,-0.10138888888888889,1,0,0,6.514685299998746,number3,True,True,False,3,3,2019_Nov_08_1600,MA_Theta_Exp,3.0.7,59.22798688194134,
video/Experiment/zh_sp07_Un_Gr_3_GlobalTheta_NoVideo.avi,globalTheta,noVideo,sp07,Un,Gr,3,0,5,flow/blocks/GlobalTheta_NoVideo_B.csv,,,,,,,,,,,,,,,,,0,0,0,0,0,5,5,22,-0.44907407407407407,-0.35,1,0,0,4.235237099999722,call4,-0.01990740740740741,0.11388888888888889,1,0,0,4.679303299999447,colour2,0.4398148148148148,-0.125,1,0,0,5.09883550000086,number3,True,True,True,3,3,2019_Nov_08_1600,MA_Theta_Exp,3.0.7,59.22798688194134,
video/Experiment/zh_sp07_Un_Ge_3_GlobalTheta_NoVideo.avi,globalTheta,noVideo,sp07,Un,Ge,3,0,5,flow/blocks/GlobalTheta_NoVideo_B.csv,,,,,,,,,,,,,,,,,0,0,0,0,0,6,6,18,-0.37824074074074077,-0.36527777777777776,1,0,0,4.290984699999171,call4,-0.008796296296296297,0.3,1,0,0,4.854362599999149,colour1,0.3800925925925926,-0.13333333333333333,1,0,0,5.494628500000545,number3,True,True,True,3,3,2019_Nov_08_1600,MA_Theta_Exp,3.0.7,59.22798688194134,
video/Experiment/zh_sp01_Ti_Ro_4_GlobalTheta_NoVideo.avi,globalTheta,noVideo,sp01,Ti,Ro,4,0,5,flow/blocks/GlobalTheta_NoVideo_B.csv,,,,,,,,,,,,,,,,,0,0,0,0,0,7,7,11,-0.4185185185185185,-0.1111111111111111,1,0,0,4.844048400000247,call3,-0.033796296296296297,-0.08472222222222223,1,0,0,5.371868599999289,colour3,0.462037037037037,-0.33611111111111114,1,0,0,5.952268799999729,number4,True,True,True,3,3,2019_Nov_08_1600,MA_Theta_Exp,3.0.7,59.22798688194134,
video/Experiment/zh_sp01_Un_Ro_1_GlobalTheta_NoVideo.avi,globalTheta,noVideo,sp01,Un,Ro,1,0,5,flow/blocks/GlobalTheta_NoVideo_B.csv,,,,,,,,,,,,,,,,,0,0,0,0,0,8,8,24,-0.38935185185185184,-0.34305555555555556,1,0,0,5.2124927999993815,call4,0.003703703703703704,-0.12083333333333333,1,0,0,6.510196700000961,colour3,0.33564814814814814,0.30277777777777776,1,0,0,7.256787500000428,number1,True,True,True,3,3,2019_Nov_08_1600,MA_Theta_Exp,3.0.7,59.22798688194134,
video/Experiment/zh_sp01_Ti_Ro_2_GlobalTheta_NoVideo.avi,globalTheta,noVideo,sp01,Ti,Ro,2,0,5,flow/blocks/GlobalTheta_NoVideo_B.csv,,,,,,,,,,,,,,,,,0,0,0,0,0,9,9,9,-0.412962962962963,-0.10972222222222222,1,0,0,5.2710557999998855,call3,-0.018518518518518517,-0.08194444444444444,1,0,0,5.823442099999738,colour3,0.4064814814814815,0.10416666666666667,1,0,0,6.5494448999997985,number2,True,True,True,3,3,2019_Nov_08_1600,MA_Theta_Exp,3.0.7,59.22798688194134,
video/Experiment/zh_sp07_Un_Gr_4_GlobalTheta_NoVideo.avi,globalTheta,noVideo,sp07,Un,Gr,4,0,5,flow/blocks/GlobalTheta_NoVideo_B.csv,,,,,,,,,,,,,,,,,0,0,0,0,0,10,10,23,-0.4115740740740741,-0.32916666666666666,1,0,0,4.739319199999954,call4,-0.011574074074074073,0.13055555555555556,1,0,0,5.691412100000889,colour2,0.3925925925925926,-0.14166666666666666,1,0,0,6.23539879999953,number3,True,True,False,3,3,2019_Nov_08_1600,MA_Theta_Exp,3.0.7,59.22798688194134,
video/Experiment/zh_sp07_Ti_Ge_4_GlobalTheta_NoVideo.avi,globalTheta,noVideo,sp07,Ti,Ge,4,0,5,flow/blocks/GlobalTheta_NoVideo_B.csv,,,,,,,,,,,,,,,,,0,0,0,0,0,11,11,3,-0.43796296296296294,-0.11666666666666667,1,0,0,4.239460900000267,call3,-0.024074074074074074,0.3375,1,0,0,4.780513800000335,colour1,0.44675925925925924,-0.3194444444444444,1,0,0,5.322213899999042,number4,True,True,True,3,3,2019_Nov_08_1600,MA_Theta_Exp,3.0.7,59.22798688194134,
video/Experiment/zh_sp07_Ti_Ge_1_GlobalTheta_NoVideo.avi,globalTheta,noVideo,sp07,Ti,Ge,1,0,5,flow/blocks/GlobalTheta_NoVideo_B.csv,,,,,,,,,,,,,,,,,0,0,0,0,0,12,12,0,-0.40324074074074073,-0.11944444444444445,1,0,0,4.650205599999026,call3,-0.07824074074074074,0.3,1,0,0,5.21361269999943,colour1,0.4203703703703704,0.2652777777777778,1,0,0,5.723382399999537,number1,True,True,True,3,3,2019_Nov_08_1600,MA_Theta_Exp,3.0.7,59.22798688194134,
video/Experiment/zh_sp01_Un_We_3_GlobalTheta_NoVideo.avi,globalTheta,noVideo,sp01,Un,We,3,0,5,flow/blocks/GlobalTheta_NoVideo_B.csv,,,,,,,,,,,,,,,,,0,0,0,0,0,13,13,30,-0.45740740740740743,-0.31805555555555554,1,0,0,4.7713402999997925,call4,-0.07962962962962963,-0.30694444444444446,1,0,0,5.278977300000406,colour4,0.4203703703703704,-0.07222222222222222,1,0,0,5.797296000000642,number3,True,True,True,3,3,2019_Nov_08_1600,MA_Theta_Exp,3.0.7,59.22798688194134,
video/Experiment/zh_sp07_Un_Ge_2_GlobalTheta_NoVideo.avi,globalTheta,noVideo,sp07,Un,Ge,2,0,5,flow/blocks/GlobalTheta_NoVideo_B.csv,,,,,,,,,,,,,,,,,0,0,0,0,0,14,14,17,-0.425462962962963,-0.3388888888888889,1,0,0,4.170301699999982,call4,-0.001851851851851852,0.32916666666666666,1,0,0,4.858599699999104,colour1,0.37453703703703706,0.07916666666666666,1,0,0,5.390619699999661,number2,True,True,True,3,3,2019_Nov_08_1600,MA_Theta_Exp,3.0.7,59.22798688194134,
video/Experiment/zh_sp07_Ti_Gr_2_GlobalTheta_NoVideo.avi,globalTheta,noVideo,sp07,Ti,Gr,2,0,5,flow/blocks/GlobalTheta_NoVideo_B.csv,,,,,,,,,,,,,,,,,0,0,0,0,0,15,15,5,-0.40879629629629627,-0.08333333333333333,1,0,0,4.262393199998769,call3,-0.03935185185185185,0.09444444444444444,1,0,0,4.717654699999912,colour2,0.38287037037037036,0.05555555555555555,1,0,0,5.1988385999993625,number2,True,True,True,3,3,2019_Nov_08_1600,MA_Theta_Exp,3.0.7,59.22798688194134,
video/Experiment/zh_sp01_Un_We_4_GlobalTheta_NoVideo.avi,globalTheta,noVideo,sp01,Un,We,4,0,5,flow/blocks/GlobalTheta_NoVideo_B.csv,,,,,,,,,,,,,,,,,0,0,0,0,0,16,16,31,-0.4393518518518518,-0.3763888888888889,1,0,0,5.46294780000062,call4,0.03287037037037037,-0.30972222222222223,1,0,0,6.819903999999951,colour4,0.39675925925925926,-0.3055555555555556,1,0,0,7.267210899999554,number4,True,True,True,3,3,2019_Nov_08_1600,MA_Theta_Exp,3.0.7,59.22798688194134,
video/Experiment/zh_sp01_Un_We_2_GlobalTheta_NoVideo.avi,globalTheta,noVideo,sp01,Un,We,2,0,5,flow/blocks/GlobalTheta_NoVideo_B.csv,,,,,,,,,,,,,,,,,0,0,0,0,0,17,17,29,-0.44907407407407407,-0.29444444444444445,1,0,0,5.1071339000009175,call4,0.055092592592592596,-0.29444444444444445,1,0,0,5.638823799999955,colour4,0.3925925925925926,0.1111111111111111,1,0,0,6.22743679999985,number2,True,True,True,3,3,2019_Nov_08_1600,MA_Theta_Exp,3.0.7,59.22798688194134,
video/Experiment/zh_sp01_Ti_Ge_3_GlobalTheta_NoVideo.avi,globalTheta,noVideo,sp01,Ti,Ge,3,0,5,flow/blocks/GlobalTheta_NoVideo_B.csv,,,,,,,,,,,,,,,,,0,0,0,0,0,18,18,2,-0.4212962962962963,-0.12083333333333333,1,0,0,4.922194699998727,call3,-0.05324074074074074,0.3,1,0,0,5.433108400000492,colour1,0.38564814814814813,-0.1,1,0,0,5.983612800000628,number3,True,True,True,3,3,2019_Nov_08_1600,MA_Theta_Exp,3.0.7,59.22798688194134,
video/Experiment/zh_sp01_Ti_We_3_GlobalTheta_NoVideo.avi,globalTheta,noVideo,sp01,Ti,We,3,0,5,flow/blocks/GlobalTheta_NoVideo_B.csv,,,,,,,,,,,,,,,,,0,0,0,0,0,19,19,14,-0.40879629629629627,-0.16944444444444445,1,0,0,5.0848267000001215,call3,-0.049074074074074076,-0.35833333333333334,1,0,0,6.119316500000423,colour4,0.39675925925925926,-0.15138888888888888,1,0,0,6.819321700000728,number3,True,True,True,3,3,2019_Nov_08_1600,MA_Theta_Exp,3.0.7,59.22798688194134,
video/Experiment/zh_sp01_Ti_Ro_3_GlobalTheta_NoVideo.avi,globalTheta,noVideo,sp01,Ti,Ro,3,0,5,flow/blocks/GlobalTheta_NoVideo_B.csv,,,,,,,,,,,,,,,,,0,0,0,0,0,20,20,10,-0.4185185185185185,-0.14027777777777778,1,0,0,5.007092900001226,call3,-0.03935185185185185,-0.10972222222222222,1,0,0,5.47814020000078,colour3,0.37175925925925923,-0.08333333333333333,1,0,0,5.923999599999661,number3,True,True,True,3,3,2019_Nov_08_1600,MA_Theta_Exp,3.0.7,59.22798688194134,
video/Experiment/zh_sp07_Un_We_1_GlobalTheta_NoVideo.avi,globalTheta,noVideo,sp07,Un,We,1,0,5,flow/blocks/GlobalTheta_NoVideo_B.csv,,,,,,,,,,,,,,,,,0,0,0,0,0,21,21,28,-0.36712962962962964,-0.3375,1,0,0,4.290900600000896,call4,-0.018518518518518517,-0.37222222222222223,1,0,0,4.807800299999144,colour4,0.34120370370370373,0.25833333333333336,1,0,0,5.377386199999819,number1,True,True,True,3,3,2019_Nov_08_1600,MA_Theta_Exp,3.0.7,59.22798688194134,
video/Experiment/zh_sp01_Un_Gr_1_GlobalTheta_NoVideo.avi,globalTheta,noVideo,sp01,Un,Gr,1,0,5,flow/blocks/GlobalTheta_NoVideo_B.csv,,,,,,,,,,,,,,,,,0,0,0,0,0,22,22,20,-0.4060185185185185,-0.12222222222222222,1,0,0,4.995637100000749,call3,-0.0699074074074074,0.09166666666666666,1,0,0,5.841302300001189,colour2,0.37175925925925923,0.29583333333333334,1,0,0,6.307013800000277,number1,False,True,True,3,3,2019_Nov_08_1600,MA_Theta_Exp,3.0.7,59.22798688194134,
video/Experiment/zh_sp07_Ti_Gr_1_GlobalTheta_NoVideo.avi,globalTheta,noVideo,sp07,Ti,Gr,1,0,5,flow/blocks/GlobalTheta_NoVideo_B.csv,,,,,,,,,,,,,,,,,0,0,0,0,0,23,23,4,-0.362962962962963,-0.10416666666666667,1,0,0,4.699298500001532,call3,0.05092592592592592,0.11805555555555555,1,0,0,5.164156300001196,colour2,0.4064814814814815,0.28055555555555556,1,0,0,5.7156868999991275,number1,True,True,True,3,3,2019_Nov_08_1600,MA_Theta_Exp,3.0.7,59.22798688194134,
video/Experiment/zh_sp07_Ti_Gr_4_GlobalTheta_NoVideo.avi,globalTheta,noVideo,sp07,Ti,Gr,4,0,5,flow/blocks/GlobalTheta_NoVideo_B.csv,,,,,,,,,,,,,,,,,0,0,0,0,0,24,24,7,-0.41712962962962963,-0.1388888888888889,1,0,0,4.746785900000759,call3,-0.001851851851851852,0.10416666666666667,1,0,0,5.15964619999977,colour2,0.41064814814814815,-0.35138888888888886,1,0,0,5.778471900001023,number4,True,True,True,3,3,2019_Nov_08_1600,MA_Theta_Exp,3.0.7,59.22798688194134,
video/Experiment/zh_sp01_Ti_Ge_2_GlobalTheta_NoVideo.avi,globalTheta,noVideo,sp01,Ti,Ge,2,0,5,flow/blocks/GlobalTheta_NoVideo_B.csv,,,,,,,,,,,,,,,,,0,0,0,0,0,25,25,1,-0.38101851851851853,-0.11944444444444445,1,0,0,5.023501499999838,call3,-0.026851851851851852,0.3458333333333333,1,0,0,5.70488049999949,colour1,0.3675925925925926,0.12916666666666668,1,0,0,6.403749799999787,number2,True,True,True,3,3,2019_Nov_08_1600,MA_Theta_Exp,3.0.7,59.22798688194134,
video/Experiment/zh_sp07_Un_Ro_2_GlobalTheta_NoVideo.avi,globalTheta,noVideo,sp07,Un,Ro,2,0,5,flow/blocks/GlobalTheta_NoVideo_B.csv,,,,,,,,,,,,,,,,,0,0,0,0,0,26,26,25,-0.3921296296296296,-0.3263888888888889,1,0,0,5.404920200000561,call4,0.006481481481481481,0.3263888888888889,1,0,0,6.421375199999602,colour1,0.38425925925925924,0.11666666666666667,1,0,0,7.085446800001591,number2,True,False,True,3,3,2019_Nov_08_1600,MA_Theta_Exp,3.0.7,59.22798688194134,
video/Experiment/zh_sp01_Un_Ro_4_GlobalTheta_NoVideo.avi,globalTheta,noVideo,sp01,Un,Ro,4,0,5,flow/blocks/GlobalTheta_NoVideo_B.csv,,,,,,,,,,,,,,,,,0,0,0,0,0,27,27,27,-0.39490740740740743,-0.3111111111111111,1,0,0,5.154237799999464,call4,-0.01712962962962963,-0.12361111111111112,1,0,0,5.721531600000162,colour3,0.32592592592592595,-0.2611111111111111,1,0,0,6.0807089000009,number4,True,True,True,3,3,2019_Nov_08_1600,MA_Theta_Exp,3.0.7,59.22798688194134,
video/Experiment/zh_sp07_Un_Gr_2_GlobalTheta_NoVideo.avi,globalTheta,noVideo,sp07,Un,Gr,2,0,5,flow/blocks/GlobalTheta_NoVideo_B.csv,,,,,,,,,,,,,,,,,0,0,0,0,0,28,28,21,-0.39351851851851855,-0.33611111111111114,1,0,0,4.535345899999811,call4,-0.06574074074074074,0.14166666666666666,1,0,0,5.273532700000942,colour2,0.37037037037037035,0.11666666666666667,1,0,0,5.754630200000975,number2,True,True,True,3,3,2019_Nov_08_1600,MA_Theta_Exp,3.0.7,59.22798688194134,
video/Experiment/zh_sp01_Ti_Ro_1_GlobalTheta_NoVideo.avi,globalTheta,noVideo,sp01,Ti,Ro,1,0,5,flow/blocks/GlobalTheta_NoVideo_B.csv,,,,,,,,,,,,,,,,,0,0,0,0,0,29,29,8,-0.42962962962962964,-0.13333333333333333,1,0,0,5.3867409999984375,call3,-0.026851851851851852,-0.10277777777777777,1,0,0,6.2539348999998765,colour3,0.41203703703703703,0.26666666666666666,1,0,0,6.864373000000342,number1,True,True,True,3,3,2019_Nov_08_1600,MA_Theta_Exp,3.0.7,59.22798688194134,
video/Experiment/zh_sp01_Ti_Gr_3_GlobalTheta_NoVideo.avi,globalTheta,noVideo,sp01,Ti,Gr,3,0,5,flow/blocks/GlobalTheta_NoVideo_B.csv,,,,,,,,,,,,,,,,,0,0,0,0,0,30,30,6,-0.3837962962962963,-0.11944444444444445,1,0,0,4.750992400000541,call3,-0.04490740740740741,0.12638888888888888,1,0,0,5.1695755000000645,colour2,0.3439814814814815,-0.1388888888888889,1,0,0,5.72176010000112,number3,True,True,True,3,3,2019_Nov_08_1600,MA_Theta_Exp,3.0.7,59.22798688194134,
video/Experiment/zh_sp07_Ti_We_4_GlobalTheta_NoVideo.avi,globalTheta,noVideo,sp07,Ti,We,4,0,5,flow/blocks/GlobalTheta_NoVideo_B.csv,,,,,,,,,,,,,,,,,0,0,0,0,0,31,31,15,-0.37962962962962965,-0.13055555555555556,1,0,0,4.592573800000537,call3,-0.033796296296296297,0.05416666666666667,1,0,0,5.026813700000275,colour2,0.5162037037037037,-0.3541666666666667,1,0,0,5.557634799999505,number4,True,False,True,3,3,2019_Nov_08_1600,MA_Theta_Exp,3.0.7,59.22798688194134,
