videoFile,condition,video,speaker,callSign,colour,number,seq,id,block,exp.thisRepN,exp.thisTrialN,exp.thisN,exp.thisIndex,training.thisRepN,training.thisTrialN,training.thisN,training.thisIndex,firstHalf.thisRepN,firstHalf.thisTrialN,firstHalf.thisN,firstHalf.thisIndex,blocksA.thisRepN,blocksA.thisTrialN,blocksA.thisN,blocksA.thisIndex,secondHalf.thisRepN,secondHalf.thisTrialN,secondHalf.thisN,secondHalf.thisIndex,blocksB.thisRepN,blocksB.thisTrialN,blocksB.thisN,blocksB.thisIndex,mouseClickOnCall.x,mouseClickOnCall.y,mouseClickOnCall.leftButton,mouseClickOnCall.midButton,mouseClickOnCall.rightButton,mouseClickOnCall.time,mouseClickOnCall.clicked_name,mouseClickOnColour.x,mouseClickOnColour.y,mouseClickOnColour.leftButton,mouseClickOnColour.midButton,mouseClickOnColour.rightButton,mouseClickOnColour.time,mouseClickOnColour.clicked_name,mouseClickOnNumber.x,mouseClickOnNumber.y,mouseClickOnNumber.leftButton,mouseClickOnNumber.midButton,mouseClickOnNumber.rightButton,mouseClickOnNumber.time,mouseClickOnNumber.clicked_name,callSignCorrect,colourCorrect,numberCorrect,participant,order,date,expName,psychopyVersion,frameRate,
video/Training/zh_sp01_Ad_We_4_NVocInAudio_NoVideo.avi,vocoded,noVideo,sp01,Ad,We,4,,,,,,,,0,0,0,0,,,,,,,,,,,,,,,,,-0.4444444444444444,0.33194444444444443,1,0,0,6.227049099979922,call1,0.005555555555555556,-0.3050925925925926,1,0,0,8.025234000000637,colour4,0.46111111111111114,-0.27037037037037037,1,0,0,8.94113700001617,number4,True,True,True,42,2,2019_Nov_21_1303,MA_Theta_Exp,3.0.7,59.982353189994434,
video/Training/zh_sp07_Ad_Ge_3_NVocInAudio_NoVideo.avi,vocoded,noVideo,sp07,Ad,Ge,3,,,,,,,,0,1,1,1,,,,,,,,,,,,,,,,,-0.3625,0.3087962962962963,1,0,0,5.204432099999394,call1,0.013888888888888888,0.28935185185185186,1,0,0,6.1741755999973975,colour1,0.37222222222222223,-0.10092592592592593,1,0,0,7.052804800012382,number3,True,True,True,42,2,2019_Nov_21_1303,MA_Theta_Exp,3.0.7,59.982353189994434,
video/Training/zh_sp01_Dr_Ro_3_NVocInAudio_GlobalThetaInVideo.avi,vocoded,plusVideo,sp01,Dr,Ro,3,,,,,,,,0,2,2,2,,,,,,,,,,,,,,,,,-0.39166666666666666,0.10740740740740741,1,0,0,5.469428699987475,call2,0.03888888888888889,-0.13703703703703704,1,0,0,6.448675799998455,colour3,0.4166666666666667,-0.11898148148148148,1,0,0,7.248694900015835,number3,True,True,True,42,2,2019_Nov_21_1303,MA_Theta_Exp,3.0.7,59.982353189994434,
video/Training/zh_sp07_Dr_Gr_4_NVocInAudio_GlobalThetaInVideo.avi,vocoded,plusVideo,sp07,Dr,Gr,4,,,,,,,,0,3,3,3,,,,,,,,,,,,,,,,,-0.42083333333333334,0.13518518518518519,1,0,0,5.011860800004797,call2,0.059722222222222225,0.05185185185185185,1,0,0,5.959736699995119,colour2,0.37777777777777777,-0.37175925925925923,1,0,0,6.577508099988336,number4,True,True,True,42,2,2019_Nov_21_1303,MA_Theta_Exp,3.0.7,59.982353189994434,
video/Training/zh_sp01_Ti_Gr_2_NoThetaInAudio_NoVideo.avi,noTheta,noVideo,sp01,Ti,Gr,2,,,,,,,,0,4,4,4,,,,,,,,,,,,,,,,,-0.37916666666666665,0.31574074074074077,1,0,0,12.932052599993767,call1,0.10277777777777777,0.2726851851851852,1,0,0,13.551284799992573,,,,,,,,,False,NO_ANSW,NO_ANSW,42,2,2019_Nov_21_1303,MA_Theta_Exp,3.0.7,59.982353189994434,
video/Training/zh_sp07_Ti_Ro_1_NoThetaInAudio_NoVideo.avi,noTheta,noVideo,sp07,Ti,Ro,1,,,,,,,,0,5,5,5,,,,,,,,,,,,,,,,,-0.3958333333333333,0.11990740740740741,1,0,0,12.61060269997688,call2,,,,,,,,,,,,,,,False,NO_ANSW,NO_ANSW,42,2,2019_Nov_21_1303,MA_Theta_Exp,3.0.7,59.982353189994434,
video/Training/zh_sp01_Un_Ge_1_NoThetaInAudio_GlobalThetaInVideo.avi,noTheta,plusVideo,sp01,Un,Ge,1,,,,,,,,0,6,6,6,,,,,,,,,,,,,,,,,0.4236111111111111,0.3226851851851852,1,0,0,6.023611599986907,call2,0.03611111111111111,0.31851851851851853,1,0,0,11.625118900003145,colour1,0.3902777777777778,0.34074074074074073,1,0,0,12.430289399984758,number1,False,True,True,42,2,2019_Nov_21_1303,MA_Theta_Exp,3.0.7,59.982353189994434,
video/Training/zh_sp07_Un_We_2_NoThetaInAudio_GlobalThetaInVideo.avi,noTheta,plusVideo,sp07,Un,We,2,,,,,,,,0,7,7,7,,,,,,,,,,,,,,,,,-0.37083333333333335,0.0699074074074074,1,0,0,11.71472960000392,call2,,,,,,,,,,,,,,,False,NO_ANSW,NO_ANSW,42,2,2019_Nov_21_1303,MA_Theta_Exp,3.0.7,59.982353189994434,
video/Training/zh_sp01_Ad_Ge_1_GlobalTheta_NoVideo.avi,globalTheta,noVideo,sp01,Ad,Ge,1,,,,,,,,0,8,8,8,,,,,,,,,,,,,,,,,0.325,0.0837962962962963,1,0,0,5.738600900018355,call3,,,,,,,,,,,,,,,False,NO_ANSW,NO_ANSW,42,2,2019_Nov_21_1303,MA_Theta_Exp,3.0.7,59.982353189994434,
video/Training/zh_sp07_Ad_Ro_3_GlobalTheta_NoVideo.avi,globalTheta,noVideo,sp07,Ad,Ro,3,,,,,,,,0,9,9,9,,,,,,,,,,,,,,,,,0.3902777777777778,-0.14953703703703702,1,0,0,8.713128300005337,call3,,,,,,,,,,,,,,,False,NO_ANSW,NO_ANSW,42,2,2019_Nov_21_1303,MA_Theta_Exp,3.0.7,59.982353189994434,
video/Experiment/zh_sp01_Dr_Ge_4_NoThetaInAudio_GlobalThetaInVideo.avi,noTheta,plusVideo,sp01,Dr,Ge,4,0,3,flow/blocks/NoThetaInAudio_GlobalThetaInVideo_A.csv,,,,,,,,,0,0,0,0,0,0,0,19,,,,,,,,,-0.4111111111111111,0.31851851851851853,1,0,0,5.61283659999026,call1,0.03333333333333333,0.27546296296296297,1,0,0,6.280950500018662,colour1,0.43333333333333335,-0.3023148148148148,1,0,0,7.030675499991048,number4,False,True,True,42,2,2019_Nov_21_1303,MA_Theta_Exp,3.0.7,59.982353189994434,
video/Experiment/zh_sp07_Dr_Ge_1_NoThetaInAudio_GlobalThetaInVideo.avi,noTheta,plusVideo,sp07,Dr,Ge,1,0,3,flow/blocks/NoThetaInAudio_GlobalThetaInVideo_A.csv,,,,,,,,,0,0,0,0,0,1,1,0,,,,,,,,,-0.40694444444444444,-0.33564814814814814,1,0,0,5.729063899983885,call4,0.02638888888888889,0.35462962962962963,1,0,0,7.727158399997279,colour1,0.40694444444444444,0.2671296296296296,1,0,0,8.247934799990617,number1,False,True,True,42,2,2019_Nov_21_1303,MA_Theta_Exp,3.0.7,59.982353189994434,
video/Experiment/zh_sp07_Dr_Gr_4_NoThetaInAudio_GlobalThetaInVideo.avi,noTheta,plusVideo,sp07,Dr,Gr,4,0,3,flow/blocks/NoThetaInAudio_GlobalThetaInVideo_A.csv,,,,,,,,,0,0,0,0,0,2,2,23,,,,,,,,,-0.37083333333333335,0.3101851851851852,1,0,0,4.860811699996702,call1,-0.002777777777777778,0.0837962962962963,1,0,0,5.478707100002794,colour2,0.4305555555555556,-0.34675925925925927,1,0,0,6.074057699996047,number4,False,True,True,42,2,2019_Nov_21_1303,MA_Theta_Exp,3.0.7,59.982353189994434,
video/Experiment/zh_sp01_Un_Gr_1_NoThetaInAudio_GlobalThetaInVideo.avi,noTheta,plusVideo,sp01,Un,Gr,1,0,3,flow/blocks/NoThetaInAudio_GlobalThetaInVideo_A.csv,,,,,,,,,0,0,0,0,0,3,3,20,,,,,,,,,-0.4125,0.10601851851851851,1,0,0,9.813404699991224,call2,0.06666666666666667,0.0712962962962963,1,0,0,10.313034399994649,colour2,0.4166666666666667,0.287962962962963,1,0,0,10.851360300002852,number1,False,True,True,42,2,2019_Nov_21_1303,MA_Theta_Exp,3.0.7,59.982353189994434,
video/Experiment/zh_sp07_Ti_Ro_3_NoThetaInAudio_GlobalThetaInVideo.avi,noTheta,plusVideo,sp07,Ti,Ro,3,0,3,flow/blocks/NoThetaInAudio_GlobalThetaInVideo_A.csv,,,,,,,,,0,0,0,0,0,4,4,10,,,,,,,,,-0.4361111111111111,0.3685185185185185,1,0,0,6.1894610000017565,call1,0.09305555555555556,0.2726851851851852,1,0,0,6.789581299992278,colour1,0.4375,-0.13842592592592592,1,0,0,8.29001260001678,number3,False,False,True,42,2,2019_Nov_21_1303,MA_Theta_Exp,3.0.7,59.982353189994434,
video/Experiment/zh_sp01_Ad_Gr_2_NoThetaInAudio_GlobalThetaInVideo.avi,noTheta,plusVideo,sp01,Ad,Gr,2,0,3,flow/blocks/NoThetaInAudio_GlobalThetaInVideo_A.csv,,,,,,,,,0,0,0,0,0,5,5,21,,,,,,,,,-0.4125,0.3351851851851852,1,0,0,5.738306199986255,call1,-0.027777777777777776,0.05462962962962963,1,0,0,6.373733799991896,colour2,0.44722222222222224,0.06296296296296296,1,0,0,6.907955200003926,number2,True,True,True,42,2,2019_Nov_21_1303,MA_Theta_Exp,3.0.7,59.982353189994434,
video/Experiment/zh_sp07_Ti_We_4_NoThetaInAudio_GlobalThetaInVideo.avi,noTheta,plusVideo,sp07,Ti,We,4,0,3,flow/blocks/NoThetaInAudio_GlobalThetaInVideo_A.csv,,,,,,,,,0,0,0,0,0,6,6,31,,,,,,,,,-0.3902777777777778,-0.09259259259259259,1,0,0,6.067551799991634,call3,0.0375,0.08935185185185185,1,0,0,6.717723700014176,colour2,0.43194444444444446,-0.3453703703703704,1,0,0,7.9336150999879465,number4,True,False,True,42,2,2019_Nov_21_1303,MA_Theta_Exp,3.0.7,59.982353189994434,
video/Experiment/zh_sp07_Dr_We_2_NoThetaInAudio_GlobalThetaInVideo.avi,noTheta,plusVideo,sp07,Dr,We,2,0,3,flow/blocks/NoThetaInAudio_GlobalThetaInVideo_A.csv,,,,,,,,,0,0,0,0,0,7,7,13,,,,,,,,,-0.37083333333333335,0.09768518518518518,1,0,0,7.4511284999898635,call2,0.005555555555555556,-0.29953703703703705,1,0,0,8.253006299986737,colour4,0.3458333333333333,0.0824074074074074,1,0,0,9.12177630001679,number2,True,True,True,42,2,2019_Nov_21_1303,MA_Theta_Exp,3.0.7,59.982353189994434,
video/Experiment/zh_sp01_Ti_Ge_1_NoThetaInAudio_GlobalThetaInVideo.avi,noTheta,plusVideo,sp01,Ti,Ge,1,0,3,flow/blocks/NoThetaInAudio_GlobalThetaInVideo_A.csv,,,,,,,,,0,0,0,0,0,8,8,16,,,,,,,,,-0.40555555555555556,0.2601851851851852,1,0,0,8.912554899987299,call1,-0.06666666666666667,-0.09259259259259259,1,0,0,9.528646699996898,colour3,0.4305555555555556,0.3060185185185185,1,0,0,10.211691700009396,number1,False,False,True,42,2,2019_Nov_21_1303,MA_Theta_Exp,3.0.7,59.982353189994434,
video/Experiment/zh_sp07_Ti_Gr_4_NoThetaInAudio_GlobalThetaInVideo.avi,noTheta,plusVideo,sp07,Ti,Gr,4,0,3,flow/blocks/NoThetaInAudio_GlobalThetaInVideo_A.csv,,,,,,,,,0,0,0,0,0,9,9,7,,,,,,,,,-0.3763888888888889,-0.0912037037037037,1,0,0,4.940965399990091,call3,0.041666666666666664,0.10185185185185185,1,0,0,5.611486799985869,colour2,0.4125,-0.324537037037037,1,0,0,6.311868200020399,number4,True,True,True,42,2,2019_Nov_21_1303,MA_Theta_Exp,3.0.7,59.982353189994434,
video/Experiment/zh_sp07_Un_We_3_NoThetaInAudio_GlobalThetaInVideo.avi,noTheta,plusVideo,sp07,Un,We,3,0,3,flow/blocks/NoThetaInAudio_GlobalThetaInVideo_A.csv,,,,,,,,,0,0,0,0,0,10,10,14,,,,,,,,,-0.39861111111111114,-0.1259259259259259,1,0,0,4.449542999995174,call3,0.029166666666666667,-0.35509259259259257,1,0,0,5.210889199981466,colour4,0.41805555555555557,-0.08703703703703704,1,0,0,6.140973100002157,number3,False,True,True,42,2,2019_Nov_21_1303,MA_Theta_Exp,3.0.7,59.982353189994434,
video/Experiment/zh_sp07_Un_Ge_3_NoThetaInAudio_GlobalThetaInVideo.avi,noTheta,plusVideo,sp07,Un,Ge,3,0,3,flow/blocks/NoThetaInAudio_GlobalThetaInVideo_A.csv,,,,,,,,,0,0,0,0,0,11,11,2,,,,,,,,,-0.3972222222222222,-0.11898148148148148,1,0,0,4.956292900023982,call3,0.022222222222222223,0.3087962962962963,1,0,0,5.806293400004506,colour1,0.4041666666666667,-0.08425925925925926,1,0,0,6.4070134999929,number3,False,True,True,42,2,2019_Nov_21_1303,MA_Theta_Exp,3.0.7,59.982353189994434,
video/Experiment/zh_sp01_Ti_Ge_4_NoThetaInAudio_GlobalThetaInVideo.avi,noTheta,plusVideo,sp01,Ti,Ge,4,0,3,flow/blocks/NoThetaInAudio_GlobalThetaInVideo_A.csv,,,,,,,,,0,0,0,0,0,12,12,3,,,,,,,,,-0.3763888888888889,-0.055092592592592596,1,0,0,5.4873092000198085,call3,0.04722222222222222,-0.1259259259259259,1,0,0,6.103850100014824,colour3,0.42916666666666664,-0.32314814814814813,1,0,0,6.636481099994853,number4,True,False,True,42,2,2019_Nov_21_1303,MA_Theta_Exp,3.0.7,59.982353189994434,
video/Experiment/zh_sp01_Un_We_1_NoThetaInAudio_GlobalThetaInVideo.avi,noTheta,plusVideo,sp01,Un,We,1,0,3,flow/blocks/NoThetaInAudio_GlobalThetaInVideo_A.csv,,,,,,,,,0,0,0,0,0,13,13,28,,,,,,,,,-0.3819444444444444,-0.10648148148148148,1,0,0,6.322709500003839,call3,0.001388888888888889,-0.36898148148148147,1,0,0,7.156672199984314,colour4,0.45694444444444443,0.3449074074074074,1,0,0,8.376866499980679,number1,False,True,True,42,2,2019_Nov_21_1303,MA_Theta_Exp,3.0.7,59.982353189994434,
video/Experiment/zh_sp01_Ad_We_2_NoThetaInAudio_GlobalThetaInVideo.avi,noTheta,plusVideo,sp01,Ad,We,2,0,3,flow/blocks/NoThetaInAudio_GlobalThetaInVideo_A.csv,,,,,,,,,0,0,0,0,0,14,14,29,,,,,,,,,-0.3861111111111111,0.30462962962962964,1,0,0,7.777440300007584,call1,-0.034722222222222224,-0.10648148148148148,1,0,0,9.075417400017614,colour3,0.41388888888888886,0.11296296296296296,1,0,0,9.675689900002908,number2,True,False,True,42,2,2019_Nov_21_1303,MA_Theta_Exp,3.0.7,59.982353189994434,
video/Experiment/zh_sp01_Un_Ro_3_NoThetaInAudio_GlobalThetaInVideo.avi,noTheta,plusVideo,sp01,Un,Ro,3,0,3,flow/blocks/NoThetaInAudio_GlobalThetaInVideo_A.csv,,,,,,,,,0,0,0,0,0,15,15,26,,,,,,,,,-0.4027777777777778,-0.04814814814814815,1,0,0,6.170510700001614,call3,-0.011111111111111112,-0.1162037037037037,1,0,0,6.764323100011097,colour3,0.38333333333333336,-0.15231481481481482,1,0,0,7.2501267999759875,number3,False,True,True,42,2,2019_Nov_21_1303,MA_Theta_Exp,3.0.7,59.982353189994434,
video/Experiment/zh_sp07_Ti_Ge_2_NoThetaInAudio_GlobalThetaInVideo.avi,noTheta,plusVideo,sp07,Ti,Ge,2,0,3,flow/blocks/NoThetaInAudio_GlobalThetaInVideo_A.csv,,,,,,,,,0,0,0,0,0,16,16,1,,,,,,,,,-0.39861111111111114,-0.09537037037037037,1,0,0,5.095542600000044,call3,-0.005555555555555556,0.31574074074074077,1,0,0,5.748118499992415,colour1,0.3736111111111111,0.14212962962962963,1,0,0,6.479384899983415,number2,True,True,True,42,2,2019_Nov_21_1303,MA_Theta_Exp,3.0.7,59.982353189994434,
video/Experiment/zh_sp01_Ad_Ro_1_NoThetaInAudio_GlobalThetaInVideo.avi,noTheta,plusVideo,sp01,Ad,Ro,1,0,3,flow/blocks/NoThetaInAudio_GlobalThetaInVideo_A.csv,,,,,,,,,0,0,0,0,0,17,17,8,,,,,,,,,-0.3763888888888889,0.29907407407407405,1,0,0,5.612784800003283,call1,-0.006944444444444444,-0.10231481481481482,1,0,0,6.2958508000010625,colour3,0.4722222222222222,0.3199074074074074,1,0,0,7.09608930000104,number1,True,True,True,42,2,2019_Nov_21_1303,MA_Theta_Exp,3.0.7,59.982353189994434,
video/Experiment/zh_sp01_Dr_Gr_3_NoThetaInAudio_GlobalThetaInVideo.avi,noTheta,plusVideo,sp01,Dr,Gr,3,0,3,flow/blocks/NoThetaInAudio_GlobalThetaInVideo_A.csv,,,,,,,,,0,0,0,0,0,18,18,6,,,,,,,,,-0.3486111111111111,-0.31342592592592594,1,0,0,6.5552575000037905,call4,0.027777777777777776,0.11157407407407408,1,0,0,7.191694099979941,colour2,0.45,-0.1412037037037037,1,0,0,7.960554999997839,number3,False,True,True,42,2,2019_Nov_21_1303,MA_Theta_Exp,3.0.7,59.982353189994434,
video/Experiment/zh_sp01_Dr_Ro_4_NoThetaInAudio_GlobalThetaInVideo.avi,noTheta,plusVideo,sp01,Dr,Ro,4,0,3,flow/blocks/NoThetaInAudio_GlobalThetaInVideo_A.csv,,,,,,,,,0,0,0,0,0,19,19,27,,,,,,,,,-0.3958333333333333,-0.29953703703703705,1,0,0,5.375128900021082,call4,0.06944444444444445,-0.10787037037037037,1,0,0,6.02476190001471,colour3,0.4236111111111111,-0.3050925925925926,1,0,0,6.602744799980428,number4,False,True,True,42,2,2019_Nov_21_1303,MA_Theta_Exp,3.0.7,59.982353189994434,
video/Experiment/zh_sp07_Un_We_4_NoThetaInAudio_GlobalThetaInVideo.avi,noTheta,plusVideo,sp07,Un,We,4,0,3,flow/blocks/NoThetaInAudio_GlobalThetaInVideo_A.csv,,,,,,,,,0,0,0,0,0,20,20,15,,,,,,,,,-0.40694444444444444,-0.27175925925925926,1,0,0,4.873195299995132,call4,-0.011111111111111112,-0.32314814814814813,1,0,0,5.368382100015879,colour4,0.4847222222222222,-0.3300925925925926,1,0,0,5.874841599987121,number4,True,True,True,42,2,2019_Nov_21_1303,MA_Theta_Exp,3.0.7,59.982353189994434,
video/Experiment/zh_sp01_Ad_Ro_4_NoThetaInAudio_GlobalThetaInVideo.avi,noTheta,plusVideo,sp01,Ad,Ro,4,0,3,flow/blocks/NoThetaInAudio_GlobalThetaInVideo_A.csv,,,,,,,,,0,0,0,0,0,21,21,11,,,,,,,,,-0.43333333333333335,0.3101851851851852,1,0,0,5.759253399999579,call1,-0.004166666666666667,-0.06898148148148148,1,0,0,6.491044900001725,colour3,0.4625,-0.3787037037037037,1,0,0,7.158768299996154,number4,True,True,True,42,2,2019_Nov_21_1303,MA_Theta_Exp,3.0.7,59.982353189994434,
video/Experiment/zh_sp07_Ad_Gr_1_NoThetaInAudio_GlobalThetaInVideo.avi,noTheta,plusVideo,sp07,Ad,Gr,1,0,3,flow/blocks/NoThetaInAudio_GlobalThetaInVideo_A.csv,,,,,,,,,0,0,0,0,0,22,22,4,,,,,,,,,-0.375,0.2949074074074074,1,0,0,4.961301899980754,call1,0.041666666666666664,0.0837962962962963,1,0,0,5.5457502999925055,colour2,0.3638888888888889,0.2949074074074074,1,0,0,6.447451499989256,number1,True,True,True,42,2,2019_Nov_21_1303,MA_Theta_Exp,3.0.7,59.982353189994434,
video/Experiment/zh_sp07_Ti_Ge_3_NoThetaInAudio_GlobalThetaInVideo.avi,noTheta,plusVideo,sp07,Ti,Ge,3,0,3,flow/blocks/NoThetaInAudio_GlobalThetaInVideo_A.csv,,,,,,,,,0,0,0,0,0,23,23,18,,,,,,,,,-0.35833333333333334,0.3226851851851852,1,0,0,6.07993260002695,call1,-0.041666666666666664,0.30185185185185187,1,0,0,6.663854599988554,colour1,0.42083333333333334,-0.09259259259259259,1,0,0,7.248721000010846,number3,False,True,True,42,2,2019_Nov_21_1303,MA_Theta_Exp,3.0.7,59.982353189994434,
video/Experiment/zh_sp01_Un_Ro_1_NoThetaInAudio_GlobalThetaInVideo.avi,noTheta,plusVideo,sp01,Un,Ro,1,0,3,flow/blocks/NoThetaInAudio_GlobalThetaInVideo_A.csv,,,,,,,,,0,0,0,0,0,24,24,24,,,,,,,,,-0.38472222222222224,-0.34120370370370373,1,0,0,6.778202999994392,call4,0.027777777777777776,-0.09953703703703703,1,0,0,8.261219799984246,colour3,0.47638888888888886,0.30462962962962964,1,0,0,9.011976700014202,number1,True,True,True,42,2,2019_Nov_21_1303,MA_Theta_Exp,3.0.7,59.982353189994434,
video/Experiment/zh_sp01_Ad_Gr_3_NoThetaInAudio_GlobalThetaInVideo.avi,noTheta,plusVideo,sp01,Ad,Gr,3,0,3,flow/blocks/NoThetaInAudio_GlobalThetaInVideo_A.csv,,,,,,,,,0,0,0,0,0,25,25,22,,,,,,,,,-0.37083333333333335,0.25462962962962965,1,0,0,8.990124499978265,call1,0.022222222222222223,-0.10092592592592593,1,0,0,10.674611499998719,colour3,0.45416666666666666,-0.12453703703703704,1,0,0,11.221526100009214,number3,True,False,True,42,2,2019_Nov_21_1303,MA_Theta_Exp,3.0.7,59.982353189994434,
video/Experiment/zh_sp01_Ad_We_1_NoThetaInAudio_GlobalThetaInVideo.avi,noTheta,plusVideo,sp01,Ad,We,1,0,3,flow/blocks/NoThetaInAudio_GlobalThetaInVideo_A.csv,,,,,,,,,0,0,0,0,0,26,26,12,,,,,,,,,-0.4083333333333333,0.32407407407407407,1,0,0,6.014367800002219,call1,0.013888888888888888,-0.13148148148148148,1,0,0,6.800811599998269,colour3,0.4041666666666667,0.31157407407407406,1,0,0,7.546271300001536,number1,True,False,True,42,2,2019_Nov_21_1303,MA_Theta_Exp,3.0.7,59.982353189994434,
video/Experiment/zh_sp01_Ti_Ro_2_NoThetaInAudio_GlobalThetaInVideo.avi,noTheta,plusVideo,sp01,Ti,Ro,2,0,3,flow/blocks/NoThetaInAudio_GlobalThetaInVideo_A.csv,,,,,,,,,0,0,0,0,0,27,27,25,,,,,,,,,-0.3736111111111111,-0.09814814814814815,1,0,0,6.35702830000082,call3,0.022222222222222223,-0.10787037037037037,1,0,0,6.8666943999996874,colour3,0.43333333333333335,0.11851851851851852,1,0,0,8.173410099989269,number2,True,True,True,42,2,2019_Nov_21_1303,MA_Theta_Exp,3.0.7,59.982353189994434,
video/Experiment/zh_sp07_Un_Ge_2_NoThetaInAudio_GlobalThetaInVideo.avi,noTheta,plusVideo,sp07,Un,Ge,2,0,3,flow/blocks/NoThetaInAudio_GlobalThetaInVideo_A.csv,,,,,,,,,0,0,0,0,0,28,28,17,,,,,,,,,-0.37777777777777777,0.08935185185185185,1,0,0,6.949859500018647,call2,-0.004166666666666667,-0.13842592592592592,1,0,0,7.582484200014733,colour3,0.4041666666666667,0.0962962962962963,1,0,0,8.131748499989044,number2,False,False,True,42,2,2019_Nov_21_1303,MA_Theta_Exp,3.0.7,59.982353189994434,
video/Experiment/zh_sp07_Dr_Gr_2_NoThetaInAudio_GlobalThetaInVideo.avi,noTheta,plusVideo,sp07,Dr,Gr,2,0,3,flow/blocks/NoThetaInAudio_GlobalThetaInVideo_A.csv,,,,,,,,,0,0,0,0,0,29,29,5,,,,,,,,,-0.37222222222222223,-0.14675925925925926,1,0,0,5.405989999999292,call3,0.03611111111111111,0.09768518518518518,1,0,0,6.138511199998902,colour2,0.4111111111111111,0.10324074074074074,1,0,0,6.595461099990644,number2,False,True,True,42,2,2019_Nov_21_1303,MA_Theta_Exp,3.0.7,59.982353189994434,
video/Experiment/zh_sp07_Dr_Ro_2_NoThetaInAudio_GlobalThetaInVideo.avi,noTheta,plusVideo,sp07,Dr,Ro,2,0,3,flow/blocks/NoThetaInAudio_GlobalThetaInVideo_A.csv,,,,,,,,,0,0,0,0,0,30,30,9,,,,,,,,,-0.42916666666666664,0.3226851851851852,1,0,0,4.649642999982461,call1,0.03194444444444444,-0.14675925925925926,1,0,0,5.3175879000045825,colour3,0.3902777777777778,0.06851851851851852,1,0,0,5.963260200020159,number2,False,True,True,42,2,2019_Nov_21_1303,MA_Theta_Exp,3.0.7,59.982353189994434,
video/Experiment/zh_sp07_Ad_We_3_NoThetaInAudio_GlobalThetaInVideo.avi,noTheta,plusVideo,sp07,Ad,We,3,0,3,flow/blocks/NoThetaInAudio_GlobalThetaInVideo_A.csv,,,,,,,,,0,0,0,0,0,31,31,30,,,,,,,,,-0.37777777777777777,0.32685185185185184,1,0,0,4.878397300024517,call1,-0.019444444444444445,-0.32314814814814813,1,0,0,5.561438700009603,colour4,0.3972222222222222,-0.06759259259259259,1,0,0,6.177762799983611,number3,True,True,True,42,2,2019_Nov_21_1303,MA_Theta_Exp,3.0.7,59.982353189994434,
video/Experiment/zh_sp07_Ti_Ro_1_GlobalTheta_NoVideo.avi,globalTheta,noVideo,sp07,Ti,Ro,1,1,5,flow/blocks/GlobalTheta_NoVideo_B.csv,,,,,,,,,0,1,1,1,0,0,0,8,,,,,,,,,-0.39166666666666666,-0.09675925925925925,1,0,0,5.52492669998901,call3,-0.009722222222222222,-0.1300925925925926,1,0,0,6.040988499997184,colour3,0.3597222222222222,0.3421296296296296,1,0,0,6.829207100003259,number1,True,True,True,42,2,2019_Nov_21_1303,MA_Theta_Exp,3.0.7,59.982353189994434,
video/Experiment/zh_sp07_Dr_Ro_1_GlobalTheta_NoVideo.avi,globalTheta,noVideo,sp07,Dr,Ro,1,1,5,flow/blocks/GlobalTheta_NoVideo_B.csv,,,,,,,,,0,1,1,1,0,1,1,24,,,,,,,,,-0.36527777777777776,0.31574074074074077,1,0,0,5.012588699988555,call1,-0.03194444444444444,-0.12453703703703704,1,0,0,5.598518799990416,colour3,0.35138888888888886,0.3337962962962963,1,0,0,6.412793199997395,number1,False,True,True,42,2,2019_Nov_21_1303,MA_Theta_Exp,3.0.7,59.982353189994434,
video/Experiment/zh_sp01_Ad_We_4_GlobalTheta_NoVideo.avi,globalTheta,noVideo,sp01,Ad,We,4,1,5,flow/blocks/GlobalTheta_NoVideo_B.csv,,,,,,,,,0,1,1,1,0,2,2,31,,,,,,,,,-0.3416666666666667,0.30324074074074076,1,0,0,6.888625699997647,call1,0.009722222222222222,-0.11342592592592593,1,0,0,7.539563400001498,colour3,0.425,-0.09398148148148149,1,0,0,7.956796899990877,number3,True,False,False,42,2,2019_Nov_21_1303,MA_Theta_Exp,3.0.7,59.982353189994434,
video/Experiment/zh_sp07_Dr_Ge_3_GlobalTheta_NoVideo.avi,globalTheta,noVideo,sp07,Dr,Ge,3,1,5,flow/blocks/GlobalTheta_NoVideo_B.csv,,,,,,,,,0,1,1,1,0,3,3,2,,,,,,,,,-0.3486111111111111,0.31296296296296294,1,0,0,4.734398800006602,call1,0.05138888888888889,0.26990740740740743,1,0,0,5.21785469999304,colour1,0.4236111111111111,-0.1398148148148148,1,0,0,5.819148200011114,number3,False,True,True,42,2,2019_Nov_21_1303,MA_Theta_Exp,3.0.7,59.982353189994434,
video/Experiment/zh_sp07_Dr_Ge_2_GlobalTheta_NoVideo.avi,globalTheta,noVideo,sp07,Dr,Ge,2,1,5,flow/blocks/GlobalTheta_NoVideo_B.csv,,,,,,,,,0,1,1,1,0,4,4,17,,,,,,,,,-0.39861111111111114,0.27685185185185185,1,0,0,5.109568899992155,call1,0.04722222222222222,0.300462962962963,1,0,0,5.709819700015942,colour1,0.4166666666666667,0.07407407407407407,1,0,0,6.42589709997992,number2,False,True,True,42,2,2019_Nov_21_1303,MA_Theta_Exp,3.0.7,59.982353189994434,
video/Experiment/zh_sp07_Ad_Ro_2_GlobalTheta_NoVideo.avi,globalTheta,noVideo,sp07,Ad,Ro,2,1,5,flow/blocks/GlobalTheta_NoVideo_B.csv,,,,,,,,,0,1,1,1,0,5,5,25,,,,,,,,,-0.30833333333333335,0.3074074074074074,1,0,0,5.328218099981314,call1,-0.006944444444444444,-0.12314814814814815,1,0,0,6.5328097000019625,colour3,0.40694444444444444,0.24074074074074073,1,0,0,7.149611600005301,number1,True,True,False,42,2,2019_Nov_21_1303,MA_Theta_Exp,3.0.7,59.982353189994434,
video/Experiment/zh_sp07_Dr_We_3_GlobalTheta_NoVideo.avi,globalTheta,noVideo,sp07,Dr,We,3,1,5,flow/blocks/GlobalTheta_NoVideo_B.csv,,,,,,,,,0,1,1,1,0,6,6,14,,,,,,,,,-0.36666666666666664,0.2671296296296296,1,0,0,4.605210100009572,call1,-0.025,-0.3398148148148148,1,0,0,5.31289500001003,colour4,0.44305555555555554,-0.15648148148148147,1,0,0,5.9101039999804925,number3,False,True,True,42,2,2019_Nov_21_1303,MA_Theta_Exp,3.0.7,59.982353189994434,
video/Experiment/zh_sp07_Un_Ge_4_GlobalTheta_NoVideo.avi,globalTheta,noVideo,sp07,Un,Ge,4,1,5,flow/blocks/GlobalTheta_NoVideo_B.csv,,,,,,,,,0,1,1,1,0,7,7,19,,,,,,,,,-0.3861111111111111,-0.30648148148148147,1,0,0,4.957631000026595,call4,0.06388888888888888,0.31296296296296294,1,0,0,5.904550199978985,colour1,0.37777777777777777,-0.13287037037037036,1,0,0,6.557132899994031,number3,True,True,False,42,2,2019_Nov_21_1303,MA_Theta_Exp,3.0.7,59.982353189994434,
video/Experiment/zh_sp07_Ad_Ge_2_GlobalTheta_NoVideo.avi,globalTheta,noVideo,sp07,Ad,Ge,2,1,5,flow/blocks/GlobalTheta_NoVideo_B.csv,,,,,,,,,0,1,1,1,0,8,8,1,,,,,,,,,-0.4027777777777778,0.3365740740740741,1,0,0,4.496992300002603,call1,0.043055555555555555,0.2671296296296296,1,0,0,5.063404300017282,colour1,0.35694444444444445,0.16018518518518518,1,0,0,5.498977799987188,number2,True,True,True,42,2,2019_Nov_21_1303,MA_Theta_Exp,3.0.7,59.982353189994434,
video/Experiment/zh_sp07_Ti_Ro_4_GlobalTheta_NoVideo.avi,globalTheta,noVideo,sp07,Ti,Ro,4,1,5,flow/blocks/GlobalTheta_NoVideo_B.csv,,,,,,,,,0,1,1,1,0,9,9,11,,,,,,,,,-0.38472222222222224,0.3587962962962963,1,0,0,7.249139599996852,call1,0.013888888888888888,0.2824074074074074,1,0,0,9.313803400000324,colour1,0.3680555555555556,-0.1175925925925926,1,0,0,9.814899999997579,number3,False,False,False,42,2,2019_Nov_21_1303,MA_Theta_Exp,3.0.7,59.982353189994434,
video/Experiment/zh_sp07_Dr_We_4_GlobalTheta_NoVideo.avi,globalTheta,noVideo,sp07,Dr,We,4,1,5,flow/blocks/GlobalTheta_NoVideo_B.csv,,,,,,,,,0,1,1,1,0,10,10,15,,,,,,,,,-0.40555555555555556,-0.3287037037037037,1,0,0,4.634293700015405,call4,-0.02361111111111111,-0.2773148148148148,1,0,0,5.1790494000015315,colour4,0.39166666666666666,-0.11898148148148148,1,0,0,5.8443179999885615,number3,False,True,False,42,2,2019_Nov_21_1303,MA_Theta_Exp,3.0.7,59.982353189994434,
video/Experiment/zh_sp01_Dr_We_1_GlobalTheta_NoVideo.avi,globalTheta,noVideo,sp01,Dr,We,1,1,5,flow/blocks/GlobalTheta_NoVideo_B.csv,,,,,,,,,0,1,1,1,0,11,11,28,,,,,,,,,-0.44166666666666665,0.33101851851851855,1,0,0,7.068289899994852,call1,-0.029166666666666667,-0.3773148148148148,1,0,0,7.884817700018175,colour4,0.4041666666666667,0.31712962962962965,1,0,0,8.65421750000678,number1,False,True,True,42,2,2019_Nov_21_1303,MA_Theta_Exp,3.0.7,59.982353189994434,
video/Experiment/zh_sp07_Un_Gr_2_GlobalTheta_NoVideo.avi,globalTheta,noVideo,sp07,Un,Gr,2,1,5,flow/blocks/GlobalTheta_NoVideo_B.csv,,,,,,,,,0,1,1,1,0,12,12,5,,,,,,,,,-0.3625,-0.32592592592592595,1,0,0,4.761556500016013,call4,0.059722222222222225,0.06157407407407407,1,0,0,5.58061049997923,colour2,0.4638888888888889,0.07962962962962963,1,0,0,6.113058699993417,number2,True,True,True,42,2,2019_Nov_21_1303,MA_Theta_Exp,3.0.7,59.982353189994434,
video/Experiment/zh_sp01_Un_Gr_4_GlobalTheta_NoVideo.avi,globalTheta,noVideo,sp01,Un,Gr,4,1,5,flow/blocks/GlobalTheta_NoVideo_B.csv,,,,,,,,,0,1,1,1,0,13,13,23,,,,,,,,,-0.36944444444444446,-0.33425925925925926,1,0,0,6.304742700012866,call4,0.05416666666666667,-0.09675925925925925,1,0,0,7.40615299998899,colour3,0.43194444444444446,-0.1287037037037037,1,0,0,8.277248500002315,number3,True,False,False,42,2,2019_Nov_21_1303,MA_Theta_Exp,3.0.7,59.982353189994434,
video/Experiment/zh_sp01_Ti_We_1_GlobalTheta_NoVideo.avi,globalTheta,noVideo,sp01,Ti,We,1,1,5,flow/blocks/GlobalTheta_NoVideo_B.csv,,,,,,,,,0,1,1,1,0,14,14,12,,,,,,,,,-0.36944444444444446,-0.3300925925925926,1,0,0,5.721083799988264,call4,0.03194444444444444,-0.09398148148148149,1,0,0,6.567967200011481,colour3,0.3486111111111111,0.29212962962962963,1,0,0,7.352302099985536,number1,False,False,True,42,2,2019_Nov_21_1303,MA_Theta_Exp,3.0.7,59.982353189994434,
video/Experiment/zh_sp01_Un_Ro_2_GlobalTheta_NoVideo.avi,globalTheta,noVideo,sp01,Un,Ro,2,1,5,flow/blocks/GlobalTheta_NoVideo_B.csv,,,,,,,,,0,1,1,1,0,15,15,9,,,,,,,,,-0.4583333333333333,-0.29953703703703705,1,0,0,5.330005700001493,call4,0.03611111111111111,-0.1259259259259259,1,0,0,6.00869600000442,colour3,0.4083333333333333,0.12962962962962962,1,0,0,6.55864620002103,number2,True,True,True,42,2,2019_Nov_21_1303,MA_Theta_Exp,3.0.7,59.982353189994434,
video/Experiment/zh_sp07_Ti_We_3_GlobalTheta_NoVideo.avi,globalTheta,noVideo,sp07,Ti,We,3,1,5,flow/blocks/GlobalTheta_NoVideo_B.csv,,,,,,,,,0,1,1,1,0,16,16,30,,,,,,,,,-0.4444444444444444,-0.10231481481481482,1,0,0,4.7344909999810625,call3,-0.02638888888888889,-0.3453703703703704,1,0,0,5.268752700008918,colour4,0.38055555555555554,-0.1037037037037037,1,0,0,5.8380420000175945,number3,True,True,True,42,2,2019_Nov_21_1303,MA_Theta_Exp,3.0.7,59.982353189994434,
video/Experiment/zh_sp07_Ti_Gr_1_GlobalTheta_NoVideo.avi,globalTheta,noVideo,sp07,Ti,Gr,1,1,5,flow/blocks/GlobalTheta_NoVideo_B.csv,,,,,,,,,0,1,1,1,0,17,17,4,,,,,,,,,-0.44722222222222224,-0.1162037037037037,1,0,0,4.8200961999828,call3,0.022222222222222223,0.13796296296296295,1,0,0,5.454203500004951,colour2,0.39166666666666666,0.3199074074074074,1,0,0,5.9697624999971595,number1,True,True,True,42,2,2019_Nov_21_1303,MA_Theta_Exp,3.0.7,59.982353189994434,
video/Experiment/zh_sp01_Dr_Gr_1_GlobalTheta_NoVideo.avi,globalTheta,noVideo,sp01,Dr,Gr,1,1,5,flow/blocks/GlobalTheta_NoVideo_B.csv,,,,,,,,,0,1,1,1,0,18,18,20,,,,,,,,,-0.37083333333333335,-0.10092592592592593,1,0,0,5.993597099994076,call3,-0.027777777777777776,-0.12314814814814815,1,0,0,6.5279122999927495,colour3,0.4513888888888889,0.31851851851851853,1,0,0,7.776201999979094,number1,False,False,True,42,2,2019_Nov_21_1303,MA_Theta_Exp,3.0.7,59.982353189994434,
video/Experiment/zh_sp01_Un_We_2_GlobalTheta_NoVideo.avi,globalTheta,noVideo,sp01,Un,We,2,1,5,flow/blocks/GlobalTheta_NoVideo_B.csv,,,,,,,,,0,1,1,1,0,19,19,13,,,,,,,,,-0.4152777777777778,-0.32314814814814813,1,0,0,6.26372730001458,call4,0.004166666666666667,-0.30648148148148147,1,0,0,7.364716400014004,colour4,0.42083333333333334,0.03518518518518519,1,0,0,8.149668300000485,number2,True,True,True,42,2,2019_Nov_21_1303,MA_Theta_Exp,3.0.7,59.982353189994434,
video/Experiment/zh_sp01_Ad_Ge_4_GlobalTheta_NoVideo.avi,globalTheta,noVideo,sp01,Ad,Ge,4,1,5,flow/blocks/GlobalTheta_NoVideo_B.csv,,,,,,,,,0,1,1,1,0,20,20,3,,,,,,,,,-0.4263888888888889,0.3143518518518518,1,0,0,5.4043053000059444,call1,-0.043055555555555555,-0.08148148148148149,1,0,0,6.037096399988513,colour3,0.39166666666666666,-0.10231481481481482,1,0,0,6.534525199997006,number3,True,False,False,42,2,2019_Nov_21_1303,MA_Theta_Exp,3.0.7,59.982353189994434,
video/Experiment/zh_sp01_Un_Ge_1_GlobalTheta_NoVideo.avi,globalTheta,noVideo,sp01,Un,Ge,1,1,5,flow/blocks/GlobalTheta_NoVideo_B.csv,,,,,,,,,0,1,1,1,0,21,21,0,,,,,,,,,-0.36944444444444446,-0.34814814814814815,1,0,0,5.346682999981567,call4,0.044444444444444446,-0.14953703703703702,1,0,0,6.183181900007185,colour3,0.39305555555555555,0.25462962962962965,1,0,0,7.050194200011902,number1,True,False,True,42,2,2019_Nov_21_1303,MA_Theta_Exp,3.0.7,59.982353189994434,
video/Experiment/zh_sp01_Un_Ro_4_GlobalTheta_NoVideo.avi,globalTheta,noVideo,sp01,Un,Ro,4,1,5,flow/blocks/GlobalTheta_NoVideo_B.csv,,,,,,,,,0,1,1,1,0,22,22,27,,,,,,,,,-0.4222222222222222,-0.30648148148148147,1,0,0,5.416845400002785,call4,-0.001388888888888889,-0.1037037037037037,1,0,0,5.964460899995174,colour3,0.4236111111111111,-0.09953703703703703,1,0,0,6.5544754000147805,number3,True,True,False,42,2,2019_Nov_21_1303,MA_Theta_Exp,3.0.7,59.982353189994434,
video/Experiment/zh_sp01_Ad_Gr_4_GlobalTheta_NoVideo.avi,globalTheta,noVideo,sp01,Ad,Gr,4,1,5,flow/blocks/GlobalTheta_NoVideo_B.csv,,,,,,,,,0,1,1,1,0,23,23,7,,,,,,,,,-0.32916666666666666,0.300462962962963,1,0,0,5.558480699983193,call1,-0.044444444444444446,-0.10231481481481482,1,0,0,6.17318109999178,colour3,0.48194444444444445,-0.08842592592592592,1,0,0,6.9236587999912445,number3,True,False,False,42,2,2019_Nov_21_1303,MA_Theta_Exp,3.0.7,59.982353189994434,
video/Experiment/zh_sp07_Dr_Ro_3_GlobalTheta_NoVideo.avi,globalTheta,noVideo,sp07,Dr,Ro,3,1,5,flow/blocks/GlobalTheta_NoVideo_B.csv,,,,,,,,,0,1,1,1,0,24,24,26,,,,,,,,,-0.39166666666666666,0.08101851851851852,1,0,0,5.0053257000108715,call2,0.020833333333333332,-0.15092592592592594,1,0,0,5.556413900019834,colour3,0.40555555555555556,-0.12453703703703704,1,0,0,6.009659199975431,number3,True,True,True,42,2,2019_Nov_21_1303,MA_Theta_Exp,3.0.7,59.982353189994434,
video/Experiment/zh_sp01_Ad_Ge_3_GlobalTheta_NoVideo.avi,globalTheta,noVideo,sp01,Ad,Ge,3,1,5,flow/blocks/GlobalTheta_NoVideo_B.csv,,,,,,,,,0,1,1,1,0,25,25,18,,,,,,,,,-0.32916666666666666,0.3449074074074074,1,0,0,5.66519060000428,call1,0.0763888888888889,-0.09537037037037037,1,0,0,6.297197200008668,colour3,0.35694444444444445,-0.08703703703703704,1,0,0,6.82857429998694,number3,True,False,True,42,2,2019_Nov_21_1303,MA_Theta_Exp,3.0.7,59.982353189994434,
video/Experiment/zh_sp01_Ad_Ge_1_GlobalTheta_NoVideo.avi,globalTheta,noVideo,sp01,Ad,Ge,1,1,5,flow/blocks/GlobalTheta_NoVideo_B.csv,,,,,,,,,0,1,1,1,0,26,26,16,,,,,,,,,-0.3277777777777778,0.3074074074074074,1,0,0,5.3283650999946985,call1,0.02638888888888889,0.29212962962962963,1,0,0,5.760635100014042,colour1,0.4652777777777778,0.26435185185185184,1,0,0,6.376738799997838,number1,True,True,True,42,2,2019_Nov_21_1303,MA_Theta_Exp,3.0.7,59.982353189994434,
video/Experiment/zh_sp07_Ti_We_2_GlobalTheta_NoVideo.avi,globalTheta,noVideo,sp07,Ti,We,2,1,5,flow/blocks/GlobalTheta_NoVideo_B.csv,,,,,,,,,0,1,1,1,0,27,27,29,,,,,,,,,-0.4027777777777778,0.13518518518518519,1,0,0,6.669394399999874,call2,0.005555555555555556,0.10046296296296296,1,0,0,7.705803999997443,colour2,0.4166666666666667,0.3226851851851852,1,0,0,8.749612400017213,number1,False,False,False,42,2,2019_Nov_21_1303,MA_Theta_Exp,3.0.7,59.982353189994434,
video/Experiment/zh_sp01_Un_Gr_3_GlobalTheta_NoVideo.avi,globalTheta,noVideo,sp01,Un,Gr,3,1,5,flow/blocks/GlobalTheta_NoVideo_B.csv,,,,,,,,,0,1,1,1,0,28,28,6,,,,,,,,,-0.375,-0.1300925925925926,1,0,0,5.431636300025275,call3,0.07361111111111111,0.12962962962962962,1,0,0,6.115339300013147,colour2,0.38472222222222224,-0.10787037037037037,1,0,0,6.668020099983551,number3,False,True,True,42,2,2019_Nov_21_1303,MA_Theta_Exp,3.0.7,59.982353189994434,
video/Experiment/zh_sp01_Ad_Ro_3_GlobalTheta_NoVideo.avi,globalTheta,noVideo,sp01,Ad,Ro,3,1,5,flow/blocks/GlobalTheta_NoVideo_B.csv,,,,,,,,,0,1,1,1,0,29,29,10,,,,,,,,,-0.33611111111111114,0.0837962962962963,1,0,0,7.589445199992042,call2,-0.011111111111111112,0.10462962962962963,1,0,0,8.122278499999084,colour2,0.41944444444444445,-0.1037037037037037,1,0,0,8.572127200022805,number3,False,False,True,42,2,2019_Nov_21_1303,MA_Theta_Exp,3.0.7,59.982353189994434,
video/Experiment/zh_sp07_Ti_Gr_3_GlobalTheta_NoVideo.avi,globalTheta,noVideo,sp07,Ti,Gr,3,1,5,flow/blocks/GlobalTheta_NoVideo_B.csv,,,,,,,,,0,1,1,1,0,30,30,22,,,,,,,,,-0.43194444444444446,-0.1287037037037037,1,0,0,4.469990499987034,call3,-0.020833333333333332,0.06851851851851852,1,0,0,5.186202999990201,colour2,0.46111111111111114,-0.1287037037037037,1,0,0,5.797837999998592,number3,True,True,True,42,2,2019_Nov_21_1303,MA_Theta_Exp,3.0.7,59.982353189994434,
video/Experiment/zh_sp01_Ti_Gr_2_GlobalTheta_NoVideo.avi,globalTheta,noVideo,sp01,Ti,Gr,2,1,5,flow/blocks/GlobalTheta_NoVideo_B.csv,,,,,,,,,0,1,1,1,0,31,31,21,,,,,,,,,-0.3861111111111111,-0.08009259259259259,1,0,0,6.346534399985103,call3,0.019444444444444445,-0.1037037037037037,1,0,0,6.984693200007314,colour3,0.3888888888888889,0.0824074074074074,1,0,0,7.494089200015878,number2,True,False,True,42,2,2019_Nov_21_1303,MA_Theta_Exp,3.0.7,59.982353189994434,
video/Experiment/zh_sp07_Ad_We_2_NVocInAudio_GlobalThetaInVideo.avi,vocoded,plusVideo,sp07,Ad,We,2,2,1,flow/blocks/NVocInAudio_GlobalThetaInVideo_A.csv,,,,,,,,,0,2,2,2,0,0,0,29,,,,,,,,,-0.3625,0.3087962962962963,1,0,0,4.9021084000123665,call1,0.03888888888888889,-0.274537037037037,1,0,0,5.732039099995745,colour4,0.33194444444444443,0.0699074074074074,1,0,0,6.498848200018983,number2,True,True,True,42,2,2019_Nov_21_1303,MA_Theta_Exp,3.0.7,59.982353189994434,
video/Experiment/zh_sp07_Dr_Gr_4_NVocInAudio_GlobalThetaInVideo.avi,vocoded,plusVideo,sp07,Dr,Gr,4,2,1,flow/blocks/NVocInAudio_GlobalThetaInVideo_A.csv,,,,,,,,,0,2,2,2,0,1,1,23,,,,,,,,,-0.41805555555555557,0.12685185185185185,1,0,0,5.831166699994355,call2,-0.005555555555555556,0.08935185185185185,1,0,0,6.424584299995331,colour2,0.4222222222222222,-0.3662037037037037,1,0,0,7.09100899999612,number4,True,True,True,42,2,2019_Nov_21_1303,MA_Theta_Exp,3.0.7,59.982353189994434,
video/Experiment/zh_sp01_Ad_Ro_1_NVocInAudio_GlobalThetaInVideo.avi,vocoded,plusVideo,sp01,Ad,Ro,1,2,1,flow/blocks/NVocInAudio_GlobalThetaInVideo_A.csv,,,,,,,,,0,2,2,2,0,2,2,8,,,,,,,,,-0.3888888888888889,0.287962962962963,1,0,0,5.772230900009163,call1,0.009722222222222222,-0.12314814814814815,1,0,0,6.406445700005861,colour3,0.40555555555555556,0.3337962962962963,1,0,0,7.259244799992302,number1,True,True,True,42,2,2019_Nov_21_1303,MA_Theta_Exp,3.0.7,59.982353189994434,
video/Experiment/zh_sp07_Ti_Ge_3_NVocInAudio_GlobalThetaInVideo.avi,vocoded,plusVideo,sp07,Ti,Ge,3,2,1,flow/blocks/NVocInAudio_GlobalThetaInVideo_A.csv,,,,,,,,,0,2,2,2,0,3,3,18,,,,,,,,,-0.3972222222222222,-0.11203703703703703,1,0,0,4.798564900003839,call3,0.002777777777777778,0.2962962962962963,1,0,0,5.885182099998929,colour1,0.45694444444444443,-0.11064814814814815,1,0,0,6.534686900005909,number3,True,True,True,42,2,2019_Nov_21_1303,MA_Theta_Exp,3.0.7,59.982353189994434,
video/Experiment/zh_sp01_Ti_Ro_2_NVocInAudio_GlobalThetaInVideo.avi,vocoded,plusVideo,sp01,Ti,Ro,2,2,1,flow/blocks/NVocInAudio_GlobalThetaInVideo_A.csv,,,,,,,,,0,2,2,2,0,4,4,25,,,,,,,,,-0.375,-0.11064814814814815,1,0,0,5.208144900010666,call3,0.015277777777777777,-0.15092592592592594,1,0,0,5.790606599999592,colour3,0.42777777777777776,0.07962962962962963,1,0,0,6.5403020000085235,number2,True,True,True,42,2,2019_Nov_21_1303,MA_Theta_Exp,3.0.7,59.982353189994434,
video/Experiment/zh_sp07_Dr_Ro_4_NVocInAudio_GlobalThetaInVideo.avi,vocoded,plusVideo,sp07,Dr,Ro,4,2,1,flow/blocks/NVocInAudio_GlobalThetaInVideo_A.csv,,,,,,,,,0,2,2,2,0,5,5,27,,,,,,,,,-0.4013888888888889,0.12824074074074074,1,0,0,4.777101700019557,call2,-0.0125,-0.08287037037037037,1,0,0,5.376308500010055,colour3,0.38472222222222224,-0.31342592592592594,1,0,0,5.988959499984048,number4,True,True,True,42,2,2019_Nov_21_1303,MA_Theta_Exp,3.0.7,59.982353189994434,
video/Experiment/zh_sp01_Ad_We_3_NVocInAudio_GlobalThetaInVideo.avi,vocoded,plusVideo,sp01,Ad,We,3,2,1,flow/blocks/NVocInAudio_GlobalThetaInVideo_A.csv,,,,,,,,,0,2,2,2,0,6,6,30,,,,,,,,,-0.40694444444444444,0.29212962962962963,1,0,0,5.052460400009295,call1,-0.030555555555555555,-0.3509259259259259,1,0,0,5.67034420001437,colour4,0.44722222222222224,-0.1259259259259259,1,0,0,6.236255099996924,number3,True,True,True,42,2,2019_Nov_21_1303,MA_Theta_Exp,3.0.7,59.982353189994434,
video/Experiment/zh_sp01_Un_We_3_NVocInAudio_GlobalThetaInVideo.avi,vocoded,plusVideo,sp01,Un,We,3,2,1,flow/blocks/NVocInAudio_GlobalThetaInVideo_A.csv,,,,,,,,,0,2,2,2,0,7,7,14,,,,,,,,,-0.37916666666666665,-0.3162037037037037,1,0,0,5.125560299988138,call4,0.05277777777777778,-0.337037037037037,1,0,0,5.856292200012831,colour4,0.3972222222222222,-0.1175925925925926,1,0,0,6.467724600021029,number3,True,True,True,42,2,2019_Nov_21_1303,MA_Theta_Exp,3.0.7,59.982353189994434,
video/Experiment/zh_sp01_Un_Gr_1_NVocInAudio_GlobalThetaInVideo.avi,vocoded,plusVideo,sp01,Un,Gr,1,2,1,flow/blocks/NVocInAudio_GlobalThetaInVideo_A.csv,,,,,,,,,0,2,2,2,0,8,8,20,,,,,,,,,-0.35694444444444445,-0.3050925925925926,1,0,0,5.454378700000234,call4,0.06666666666666667,0.06712962962962964,1,0,0,6.319771699985722,colour2,0.3972222222222222,0.35462962962962963,1,0,0,7.091575600003125,number1,True,True,True,42,2,2019_Nov_21_1303,MA_Theta_Exp,3.0.7,59.982353189994434,
video/Experiment/zh_sp07_Un_We_1_NVocInAudio_GlobalThetaInVideo.avi,vocoded,plusVideo,sp07,Un,We,1,2,1,flow/blocks/NVocInAudio_GlobalThetaInVideo_A.csv,,,,,,,,,0,2,2,2,0,9,9,28,,,,,,,,,-0.43194444444444446,-0.324537037037037,1,0,0,4.609543200000189,call4,0.0,-0.28703703703703703,1,0,0,5.148921000014525,colour4,0.4486111111111111,0.2574074074074074,1,0,0,5.992420700000366,number1,True,True,True,42,2,2019_Nov_21_1303,MA_Theta_Exp,3.0.7,59.982353189994434,
video/Experiment/zh_sp07_Ad_Ro_4_NVocInAudio_GlobalThetaInVideo.avi,vocoded,plusVideo,sp07,Ad,Ro,4,2,1,flow/blocks/NVocInAudio_GlobalThetaInVideo_A.csv,,,,,,,,,0,2,2,2,0,10,10,11,,,,,,,,,-0.4083333333333333,0.32407407407407407,1,0,0,5.115249299997231,call1,-0.016666666666666666,-0.1175925925925926,1,0,0,6.132171600009315,colour3,0.425,-0.337037037037037,1,0,0,6.750060599995777,number4,True,True,True,42,2,2019_Nov_21_1303,MA_Theta_Exp,3.0.7,59.982353189994434,
video/Experiment/zh_sp07_Ti_We_4_NVocInAudio_GlobalThetaInVideo.avi,vocoded,plusVideo,sp07,Ti,We,4,2,1,flow/blocks/NVocInAudio_GlobalThetaInVideo_A.csv,,,,,,,,,0,2,2,2,0,11,11,31,,,,,,,,,-0.39166666666666666,-0.10925925925925926,1,0,0,4.834540100011509,call3,-0.05416666666666667,-0.32314814814814813,1,0,0,5.568409200001042,colour4,0.4097222222222222,-0.34120370370370373,1,0,0,6.184428400010802,number4,True,True,True,42,2,2019_Nov_21_1303,MA_Theta_Exp,3.0.7,59.982353189994434,
video/Experiment/zh_sp01_Ti_Ge_2_NVocInAudio_GlobalThetaInVideo.avi,vocoded,plusVideo,sp01,Ti,Ge,2,2,1,flow/blocks/NVocInAudio_GlobalThetaInVideo_A.csv,,,,,,,,,0,2,2,2,0,12,12,1,,,,,,,,,-0.4,-0.1050925925925926,1,0,0,5.3975529999879654,call3,0.03194444444444444,0.3087962962962963,1,0,0,6.214470200007781,colour1,0.35,0.14074074074074075,1,0,0,6.830936800019117,number2,True,True,True,42,2,2019_Nov_21_1303,MA_Theta_Exp,3.0.7,59.982353189994434,
video/Experiment/zh_sp07_Dr_Gr_2_NVocInAudio_GlobalThetaInVideo.avi,vocoded,plusVideo,sp07,Dr,Gr,2,2,1,flow/blocks/NVocInAudio_GlobalThetaInVideo_A.csv,,,,,,,,,0,2,2,2,0,13,13,5,,,,,,,,,-0.34444444444444444,0.12407407407407407,1,0,0,5.28158720000647,call2,0.041666666666666664,0.06574074074074074,1,0,0,5.784031699993648,colour2,0.4027777777777778,0.06296296296296296,1,0,0,6.237074799981201,number2,True,True,True,42,2,2019_Nov_21_1303,MA_Theta_Exp,3.0.7,59.982353189994434,
video/Experiment/zh_sp01_Dr_Ro_2_NVocInAudio_GlobalThetaInVideo.avi,vocoded,plusVideo,sp01,Dr,Ro,2,2,1,flow/blocks/NVocInAudio_GlobalThetaInVideo_A.csv,,,,,,,,,0,2,2,2,0,14,14,9,,,,,,,,,-0.36944444444444446,0.09768518518518518,1,0,0,5.5077141000074334,call2,0.008333333333333333,-0.1050925925925926,1,0,0,6.058076599991182,colour3,0.4041666666666667,0.12407407407407407,1,0,0,6.575812099996256,number2,True,True,True,42,2,2019_Nov_21_1303,MA_Theta_Exp,3.0.7,59.982353189994434,
video/Experiment/zh_sp01_Ad_We_1_NVocInAudio_GlobalThetaInVideo.avi,vocoded,plusVideo,sp01,Ad,We,1,2,1,flow/blocks/NVocInAudio_GlobalThetaInVideo_A.csv,,,,,,,,,0,2,2,2,0,15,15,12,,,,,,,,,-0.4388888888888889,0.287962962962963,1,0,0,5.545094600005541,call1,-0.03333333333333333,-0.3162037037037037,1,0,0,6.22911159999785,colour4,0.39305555555555555,0.3296296296296296,1,0,0,7.110160599986557,number1,True,True,True,42,2,2019_Nov_21_1303,MA_Theta_Exp,3.0.7,59.982353189994434,
video/Experiment/zh_sp01_Un_Ro_3_NVocInAudio_GlobalThetaInVideo.avi,vocoded,plusVideo,sp01,Un,Ro,3,2,1,flow/blocks/NVocInAudio_GlobalThetaInVideo_A.csv,,,,,,,,,0,2,2,2,0,16,16,26,,,,,,,,,-0.3472222222222222,-0.34120370370370373,1,0,0,5.119943500001682,call4,-0.03194444444444444,-0.11898148148148148,1,0,0,5.852278000005754,colour3,0.4666666666666667,-0.055092592592592596,1,0,0,6.457927800016478,number3,True,True,True,42,2,2019_Nov_21_1303,MA_Theta_Exp,3.0.7,59.982353189994434,
video/Experiment/zh_sp07_Ti_Ge_4_NVocInAudio_GlobalThetaInVideo.avi,vocoded,plusVideo,sp07,Ti,Ge,4,2,1,flow/blocks/NVocInAudio_GlobalThetaInVideo_A.csv,,,,,,,,,0,2,2,2,0,17,17,3,,,,,,,,,-0.3861111111111111,-0.10925925925925926,1,0,0,4.8553978000127245,call3,-0.006944444444444444,0.3282407407407407,1,0,0,5.583189700002549,colour1,0.4152777777777778,-0.3509259259259259,1,0,0,6.21702800001367,number4,True,True,True,42,2,2019_Nov_21_1303,MA_Theta_Exp,3.0.7,59.982353189994434,
video/Experiment/zh_sp01_Ti_Ro_3_NVocInAudio_GlobalThetaInVideo.avi,vocoded,plusVideo,sp01,Ti,Ro,3,2,1,flow/blocks/NVocInAudio_GlobalThetaInVideo_A.csv,,,,,,,,,0,2,2,2,0,18,18,10,,,,,,,,,-0.3902777777777778,-0.13287037037037036,1,0,0,5.280353899986949,call3,0.0,-0.12175925925925926,1,0,0,5.916067799989833,colour3,0.3819444444444444,-0.08981481481481482,1,0,0,6.5662238000077195,number3,True,True,True,42,2,2019_Nov_21_1303,MA_Theta_Exp,3.0.7,59.982353189994434,
video/Experiment/zh_sp07_Ad_Gr_1_NVocInAudio_GlobalThetaInVideo.avi,vocoded,plusVideo,sp07,Ad,Gr,1,2,1,flow/blocks/NVocInAudio_GlobalThetaInVideo_A.csv,,,,,,,,,0,2,2,2,0,19,19,4,,,,,,,,,-0.4152777777777778,0.31574074074074077,1,0,0,5.214998699986609,call1,0.008333333333333333,0.08657407407407407,1,0,0,5.717024599987781,colour2,0.4236111111111111,0.33101851851851855,1,0,0,6.521616100013489,number1,True,True,True,42,2,2019_Nov_21_1303,MA_Theta_Exp,3.0.7,59.982353189994434,
video/Experiment/zh_sp07_Ti_Ge_1_NVocInAudio_GlobalThetaInVideo.avi,vocoded,plusVideo,sp07,Ti,Ge,1,2,1,flow/blocks/NVocInAudio_GlobalThetaInVideo_A.csv,,,,,,,,,0,2,2,2,0,20,20,16,,,,,,,,,-0.39166666666666666,-0.12731481481481483,1,0,0,4.924912400019821,call3,0.004166666666666667,0.32407407407407407,1,0,0,5.7573624000069685,colour1,0.32083333333333336,0.2935185185185185,1,0,0,6.290785299992422,number1,True,True,True,42,2,2019_Nov_21_1303,MA_Theta_Exp,3.0.7,59.982353189994434,
video/Experiment/zh_sp01_Ad_Gr_3_NVocInAudio_GlobalThetaInVideo.avi,vocoded,plusVideo,sp01,Ad,Gr,3,2,1,flow/blocks/NVocInAudio_GlobalThetaInVideo_A.csv,,,,,,,,,0,2,2,2,0,21,21,22,,,,,,,,,-0.3763888888888889,0.30185185185185187,1,0,0,5.532175399974221,call1,-0.03194444444444444,0.13240740740740742,1,0,0,6.114736799994716,colour2,0.4652777777777778,-0.1814814814814815,1,0,0,6.748603699990781,number3,True,True,True,42,2,2019_Nov_21_1303,MA_Theta_Exp,3.0.7,59.982353189994434,
video/Experiment/zh_sp01_Ti_Gr_4_NVocInAudio_GlobalThetaInVideo.avi,vocoded,plusVideo,sp01,Ti,Gr,4,2,1,flow/blocks/NVocInAudio_GlobalThetaInVideo_A.csv,,,,,,,,,0,2,2,2,0,22,22,7,,,,,,,,,-0.36527777777777776,-0.07731481481481481,1,0,0,5.29826929999399,call3,0.043055555555555555,0.10740740740740741,1,0,0,6.301455800014082,colour2,0.4486111111111111,-0.34814814814814815,1,0,0,6.919158700009575,number4,True,True,True,42,2,2019_Nov_21_1303,MA_Theta_Exp,3.0.7,59.982353189994434,
video/Experiment/zh_sp07_Dr_Ge_4_NVocInAudio_GlobalThetaInVideo.avi,vocoded,plusVideo,sp07,Dr,Ge,4,2,1,flow/blocks/NVocInAudio_GlobalThetaInVideo_A.csv,,,,,,,,,0,2,2,2,0,23,23,19,,,,,,,,,-0.4111111111111111,0.14074074074074075,1,0,0,5.615951200015843,call2,-0.0125,0.3143518518518518,1,0,0,6.393178800004534,colour1,0.4152777777777778,-0.3314814814814815,1,0,0,7.185196400008863,number4,True,True,True,42,2,2019_Nov_21_1303,MA_Theta_Exp,3.0.7,59.982353189994434,
video/Experiment/zh_sp07_Un_Ge_2_NVocInAudio_GlobalThetaInVideo.avi,vocoded,plusVideo,sp07,Un,Ge,2,2,1,flow/blocks/NVocInAudio_GlobalThetaInVideo_A.csv,,,,,,,,,0,2,2,2,0,24,24,17,,,,,,,,,-0.38472222222222224,-0.31342592592592594,1,0,0,4.360594400000991,call4,0.015277777777777777,0.3296296296296296,1,0,0,5.427476999990176,colour1,0.45416666666666666,0.06157407407407407,1,0,0,6.141019500006223,number2,True,True,True,42,2,2019_Nov_21_1303,MA_Theta_Exp,3.0.7,59.982353189994434,
video/Experiment/zh_sp01_Un_We_4_NVocInAudio_GlobalThetaInVideo.avi,vocoded,plusVideo,sp01,Un,We,4,2,1,flow/blocks/NVocInAudio_GlobalThetaInVideo_A.csv,,,,,,,,,0,2,2,2,0,25,25,15,,,,,,,,,-0.3277777777777778,-0.29259259259259257,1,0,0,5.157447300007334,call4,0.03333333333333333,-0.29259259259259257,1,0,0,5.640828200004762,colour4,0.31527777777777777,-0.25787037037037036,1,0,0,6.1098325999919325,number4,True,True,True,42,2,2019_Nov_21_1303,MA_Theta_Exp,3.0.7,59.982353189994434,
video/Experiment/zh_sp01_Un_Ro_1_NVocInAudio_GlobalThetaInVideo.avi,vocoded,plusVideo,sp01,Un,Ro,1,2,1,flow/blocks/NVocInAudio_GlobalThetaInVideo_A.csv,,,,,,,,,0,2,2,2,0,26,26,24,,,,,,,,,-0.37916666666666665,-0.2828703703703704,1,0,0,5.300513900001533,call4,-0.020833333333333332,-0.12037037037037036,1,0,0,5.952343400014797,colour3,0.46805555555555556,0.300462962962963,1,0,0,6.784294299985049,number1,True,True,True,42,2,2019_Nov_21_1303,MA_Theta_Exp,3.0.7,59.982353189994434,
video/Experiment/zh_sp01_Dr_We_2_NVocInAudio_GlobalThetaInVideo.avi,vocoded,plusVideo,sp01,Dr,We,2,2,1,flow/blocks/NVocInAudio_GlobalThetaInVideo_A.csv,,,,,,,,,0,2,2,2,0,27,27,13,,,,,,,,,-0.4027777777777778,0.12685185185185185,1,0,0,6.410852600005455,call2,-0.03611111111111111,-0.36203703703703705,1,0,0,7.43275320000248,colour4,0.37222222222222223,0.08935185185185185,1,0,0,8.142863799992483,number2,True,True,True,42,2,2019_Nov_21_1303,MA_Theta_Exp,3.0.7,59.982353189994434,
video/Experiment/zh_sp07_Dr_Ge_1_NVocInAudio_GlobalThetaInVideo.avi,vocoded,plusVideo,sp07,Dr,Ge,1,2,1,flow/blocks/NVocInAudio_GlobalThetaInVideo_A.csv,,,,,,,,,0,2,2,2,0,28,28,0,,,,,,,,,-0.3458333333333333,0.08935185185185185,1,0,0,5.630523600004381,call2,0.027777777777777776,0.32546296296296295,1,0,0,6.281224499980453,colour1,0.41944444444444445,0.31851851851851853,1,0,0,6.752604500012239,number1,True,True,True,42,2,2019_Nov_21_1303,MA_Theta_Exp,3.0.7,59.982353189994434,
video/Experiment/zh_sp01_Ad_Gr_2_NVocInAudio_GlobalThetaInVideo.avi,vocoded,plusVideo,sp01,Ad,Gr,2,2,1,flow/blocks/NVocInAudio_GlobalThetaInVideo_A.csv,,,,,,,,,0,2,2,2,0,29,29,21,,,,,,,,,-0.38055555555555554,0.33240740740740743,1,0,0,5.823266099992907,call1,0.034722222222222224,0.0837962962962963,1,0,0,6.405706899997313,colour2,0.3597222222222222,0.10046296296296296,1,0,0,6.94293399999151,number2,True,True,True,42,2,2019_Nov_21_1303,MA_Theta_Exp,3.0.7,59.982353189994434,
video/Experiment/zh_sp07_Un_Ge_3_NVocInAudio_GlobalThetaInVideo.avi,vocoded,plusVideo,sp07,Un,Ge,3,2,1,flow/blocks/NVocInAudio_GlobalThetaInVideo_A.csv,,,,,,,,,0,2,2,2,0,30,30,2,,,,,,,,,-0.36527777777777776,-0.28703703703703703,1,0,0,6.167672200012021,call4,-0.011111111111111112,0.3143518518518518,1,0,0,6.839530299999751,colour1,0.45555555555555555,-0.13148148148148148,1,0,0,7.417585800023517,number3,True,True,True,42,2,2019_Nov_21_1303,MA_Theta_Exp,3.0.7,59.982353189994434,
video/Experiment/zh_sp07_Dr_Gr_3_NVocInAudio_GlobalThetaInVideo.avi,vocoded,plusVideo,sp07,Dr,Gr,3,2,1,flow/blocks/NVocInAudio_GlobalThetaInVideo_A.csv,,,,,,,,,0,2,2,2,0,31,31,6,,,,,,,,,-0.42083333333333334,0.12824074074074074,1,0,0,5.2432799999951385,call2,-0.011111111111111112,0.04351851851851852,1,0,0,5.8089241000125185,colour2,0.4305555555555556,-0.1439814814814815,1,0,0,6.293063899996923,number3,True,True,True,42,2,2019_Nov_21_1303,MA_Theta_Exp,3.0.7,59.982353189994434,
video/Experiment/zh_sp01_Dr_Ro_1_NoThetaInAudio_NoVideo.avi,noTheta,noVideo,sp01,Dr,Ro,1,3,4,flow/blocks/NoThetaInAudio_NoVideo_B.csv,,,,,,,,,0,3,3,3,0,0,0,24,,,,,,,,,-0.3958333333333333,0.09212962962962963,1,0,0,6.945136399997864,call2,0.011111111111111112,0.2962962962962963,1,0,0,7.495845800003735,colour1,0.3972222222222222,0.32685185185185184,1,0,0,7.944913899991661,number1,True,False,True,42,2,2019_Nov_21_1303,MA_Theta_Exp,3.0.7,59.982353189994434,
video/Experiment/zh_sp01_Un_Ge_4_NoThetaInAudio_NoVideo.avi,noTheta,noVideo,sp01,Un,Ge,4,3,4,flow/blocks/NoThetaInAudio_NoVideo_B.csv,,,,,,,,,0,3,3,3,0,1,1,19,,,,,,,,,-0.39166666666666666,-0.30648148148148147,1,0,0,5.6877684999781195,call4,0.002777777777777778,0.31574074074074077,1,0,0,6.504791199986357,colour1,0.41388888888888886,-0.38425925925925924,1,0,0,7.401330699998653,number4,True,True,True,42,2,2019_Nov_21_1303,MA_Theta_Exp,3.0.7,59.982353189994434,
video/Experiment/zh_sp01_Dr_Ge_3_NoThetaInAudio_NoVideo.avi,noTheta,noVideo,sp01,Dr,Ge,3,3,4,flow/blocks/NoThetaInAudio_NoVideo_B.csv,,,,,,,,,0,3,3,3,0,2,2,2,,,,,,,,,-0.37916666666666665,-0.3175925925925926,1,0,0,5.693587099987781,call4,0.0,0.32407407407407407,1,0,0,6.446684399998048,colour1,0.39305555555555555,-0.08009259259259259,1,0,0,7.199520599999232,number3,False,True,True,42,2,2019_Nov_21_1303,MA_Theta_Exp,3.0.7,59.982353189994434,
video/Experiment/zh_sp01_Ti_We_1_NoThetaInAudio_NoVideo.avi,noTheta,noVideo,sp01,Ti,We,1,3,4,flow/blocks/NoThetaInAudio_NoVideo_B.csv,,,,,,,,,0,3,3,3,0,3,3,12,,,,,,,,,-0.3625,-0.15231481481481482,1,0,0,8.617175199993653,call3,0.07916666666666666,-0.38287037037037036,1,0,0,9.121853000018746,colour4,0.37777777777777777,0.3055555555555556,1,0,0,10.067256199981784,number1,True,True,True,42,2,2019_Nov_21_1303,MA_Theta_Exp,3.0.7,59.982353189994434,
video/Experiment/zh_sp07_Un_Ro_2_NoThetaInAudio_NoVideo.avi,noTheta,noVideo,sp07,Un,Ro,2,3,4,flow/blocks/NoThetaInAudio_NoVideo_B.csv,,,,,,,,,0,3,3,3,0,4,4,9,,,,,,,,,-0.3958333333333333,-0.29583333333333334,1,0,0,5.11594960000366,call4,0.09166666666666666,-0.14166666666666666,1,0,0,5.663365000014892,colour3,0.3541666666666667,-0.2972222222222222,1,0,0,6.761983100004727,number4,True,True,False,42,2,2019_Nov_21_1303,MA_Theta_Exp,3.0.7,59.982353189994434,
video/Experiment/zh_sp01_Dr_Ge_2_NoThetaInAudio_NoVideo.avi,noTheta,noVideo,sp01,Dr,Ge,2,3,4,flow/blocks/NoThetaInAudio_NoVideo_B.csv,,,,,,,,,0,3,3,3,0,5,5,17,,,,,,,,,-0.3486111111111111,0.10833333333333334,1,0,0,7.0535237999865785,call2,-0.0125,0.32916666666666666,1,0,0,7.77241779997712,colour1,0.4013888888888889,0.1,1,0,0,8.487933500000509,number2,True,True,True,42,2,2019_Nov_21_1303,MA_Theta_Exp,3.0.7,59.982353189994434,
video/Experiment/zh_sp07_Ad_Gr_4_NoThetaInAudio_NoVideo.avi,noTheta,noVideo,sp07,Ad,Gr,4,3,4,flow/blocks/NoThetaInAudio_NoVideo_B.csv,,,,,,,,,0,3,3,3,0,6,6,7,,,,,,,,,-0.4027777777777778,-0.28888888888888886,1,0,0,4.7968121000158135,call4,-0.0375,0.12777777777777777,1,0,0,6.179598400020041,colour2,0.44722222222222224,-0.32916666666666666,1,0,0,7.212942099984502,number4,False,True,True,42,2,2019_Nov_21_1303,MA_Theta_Exp,3.0.7,59.982353189994434,
video/Experiment/zh_sp07_Ti_We_3_NoThetaInAudio_NoVideo.avi,noTheta,noVideo,sp07,Ti,We,3,3,4,flow/blocks/NoThetaInAudio_NoVideo_B.csv,,,,,,,,,0,3,3,3,0,7,7,30,,,,,,,,,-0.4,-0.08055555555555556,1,0,0,4.807302400004119,call3,0.001388888888888889,-0.3,1,0,0,5.524281999998493,colour4,0.3972222222222222,-0.058333333333333334,1,0,0,6.543468499992741,number3,True,True,True,42,2,2019_Nov_21_1303,MA_Theta_Exp,3.0.7,59.982353189994434,
video/Experiment/zh_sp01_Un_We_2_NoThetaInAudio_NoVideo.avi,noTheta,noVideo,sp01,Un,We,2,3,4,flow/blocks/NoThetaInAudio_NoVideo_B.csv,,,,,,,,,0,3,3,3,0,8,8,13,,,,,,,,,-0.38055555555555554,-0.2833333333333333,1,0,0,5.421223299985286,call4,-0.03333333333333333,-0.3194444444444444,1,0,0,5.9714465999859385,colour4,0.37916666666666665,0.11527777777777778,1,0,0,6.888437000015983,number2,True,True,True,42,2,2019_Nov_21_1303,MA_Theta_Exp,3.0.7,59.982353189994434,
video/Experiment/zh_sp07_Dr_We_4_NoThetaInAudio_NoVideo.avi,noTheta,noVideo,sp07,Dr,We,4,3,4,flow/blocks/NoThetaInAudio_NoVideo_B.csv,,,,,,,,,0,3,3,3,0,9,9,15,,,,,,,,,-0.3625,0.09305555555555556,1,0,0,4.700261799996952,call2,0.015277777777777777,-0.29444444444444445,1,0,0,5.384652500011725,colour4,0.4013888888888889,-0.30833333333333335,1,0,0,5.834003199997824,number4,True,True,True,42,2,2019_Nov_21_1303,MA_Theta_Exp,3.0.7,59.982353189994434,
video/Experiment/zh_sp07_Un_Ro_4_NoThetaInAudio_NoVideo.avi,noTheta,noVideo,sp07,Un,Ro,4,3,4,flow/blocks/NoThetaInAudio_NoVideo_B.csv,,,,,,,,,0,3,3,3,0,10,10,27,,,,,,,,,-0.425,-0.3458333333333333,1,0,0,4.632388600002741,call4,-0.043055555555555555,-0.10555555555555556,1,0,0,5.185976100008702,colour3,0.39444444444444443,-0.3333333333333333,1,0,0,5.786842999979854,number4,True,True,True,42,2,2019_Nov_21_1303,MA_Theta_Exp,3.0.7,59.982353189994434,
video/Experiment/zh_sp01_Ad_Ge_1_NoThetaInAudio_NoVideo.avi,noTheta,noVideo,sp01,Ad,Ge,1,3,4,flow/blocks/NoThetaInAudio_NoVideo_B.csv,,,,,,,,,0,3,3,3,0,11,11,16,,,,,,,,,-0.3861111111111111,0.2638888888888889,1,0,0,5.817481900012353,call1,0.07222222222222222,0.2652777777777778,1,0,0,6.490423599985661,colour1,0.48333333333333334,0.30416666666666664,1,0,0,7.366143300023396,number1,True,True,True,42,2,2019_Nov_21_1303,MA_Theta_Exp,3.0.7,59.982353189994434,
video/Experiment/zh_sp07_Un_Gr_3_NoThetaInAudio_NoVideo.avi,noTheta,noVideo,sp07,Un,Gr,3,3,4,flow/blocks/NoThetaInAudio_NoVideo_B.csv,,,,,,,,,0,3,3,3,0,12,12,6,,,,,,,,,-0.3875,-0.3138888888888889,1,0,0,4.555615999997826,call4,-0.058333333333333334,0.08055555555555556,1,0,0,5.294001699978253,colour2,0.3541666666666667,-0.08611111111111111,1,0,0,5.800060300010955,number3,True,True,True,42,2,2019_Nov_21_1303,MA_Theta_Exp,3.0.7,59.982353189994434,
video/Experiment/zh_sp07_Ad_Ro_2_NoThetaInAudio_NoVideo.avi,noTheta,noVideo,sp07,Ad,Ro,2,3,4,flow/blocks/NoThetaInAudio_NoVideo_B.csv,,,,,,,,,0,3,3,3,0,13,13,25,,,,,,,,,-0.37222222222222223,0.29583333333333334,1,0,0,4.931256999989273,call1,-0.006944444444444444,-0.03194444444444444,1,0,0,5.483128699997906,colour3,0.3486111111111111,0.08333333333333333,1,0,0,6.0322690999892075,number2,True,True,True,42,2,2019_Nov_21_1303,MA_Theta_Exp,3.0.7,59.982353189994434,
video/Experiment/zh_sp01_Ti_Ro_1_NoThetaInAudio_NoVideo.avi,noTheta,noVideo,sp01,Ti,Ro,1,3,4,flow/blocks/NoThetaInAudio_NoVideo_B.csv,,,,,,,,,0,3,3,3,0,14,14,8,,,,,,,,,-0.3625,-0.13194444444444445,1,0,0,5.92970609999611,call3,0.02361111111111111,0.31527777777777777,1,0,0,6.495195099996636,colour1,0.4305555555555556,0.3055555555555556,1,0,0,6.994148700003279,number1,True,False,True,42,2,2019_Nov_21_1303,MA_Theta_Exp,3.0.7,59.982353189994434,
video/Experiment/zh_sp07_Ti_Gr_2_NoThetaInAudio_NoVideo.avi,noTheta,noVideo,sp07,Ti,Gr,2,3,4,flow/blocks/NoThetaInAudio_NoVideo_B.csv,,,,,,,,,0,3,3,3,0,15,15,21,,,,,,,,,-0.4097222222222222,-0.13055555555555556,1,0,0,4.625469699996756,call3,0.03611111111111111,0.10555555555555556,1,0,0,5.208444199990481,colour2,0.375,0.10972222222222222,1,0,0,5.692318700021133,number2,True,True,True,42,2,2019_Nov_21_1303,MA_Theta_Exp,3.0.7,59.982353189994434,
video/Experiment/zh_sp01_Ad_Ge_2_NoThetaInAudio_NoVideo.avi,noTheta,noVideo,sp01,Ad,Ge,2,3,4,flow/blocks/NoThetaInAudio_NoVideo_B.csv,,,,,,,,,0,3,3,3,0,16,16,1,,,,,,,,,-0.3486111111111111,0.3125,1,0,0,5.269306400005007,call1,0.0,0.2972222222222222,1,0,0,5.820243099995423,colour1,0.3611111111111111,0.10694444444444444,1,0,0,6.411610000010114,number2,True,True,True,42,2,2019_Nov_21_1303,MA_Theta_Exp,3.0.7,59.982353189994434,
video/Experiment/zh_sp01_Ad_Ge_3_NoThetaInAudio_NoVideo.avi,noTheta,noVideo,sp01,Ad,Ge,3,3,4,flow/blocks/NoThetaInAudio_NoVideo_B.csv,,,,,,,,,0,3,3,3,0,17,17,18,,,,,,,,,-0.42083333333333334,0.3472222222222222,1,0,0,4.994048300024588,call1,0.019444444444444445,0.2986111111111111,1,0,0,5.7912452000018675,colour1,0.4083333333333333,-0.09027777777777778,1,0,0,6.597553800005699,number3,True,True,True,42,2,2019_Nov_21_1303,MA_Theta_Exp,3.0.7,59.982353189994434,
video/Experiment/zh_sp01_Un_Gr_2_NoThetaInAudio_NoVideo.avi,noTheta,noVideo,sp01,Un,Gr,2,3,4,flow/blocks/NoThetaInAudio_NoVideo_B.csv,,,,,,,,,0,3,3,3,0,18,18,5,,,,,,,,,-0.3472222222222222,-0.10138888888888889,1,0,0,5.3352911999973,call3,0.0125,0.08611111111111111,1,0,0,5.836389900010545,colour2,0.4166666666666667,0.05277777777777778,1,0,0,6.280985799996415,number2,False,True,True,42,2,2019_Nov_21_1303,MA_Theta_Exp,3.0.7,59.982353189994434,
video/Experiment/zh_sp07_Ti_Ro_4_NoThetaInAudio_NoVideo.avi,noTheta,noVideo,sp07,Ti,Ro,4,3,4,flow/blocks/NoThetaInAudio_NoVideo_B.csv,,,,,,,,,0,3,3,3,0,19,19,11,,,,,,,,,-0.3458333333333333,-0.1111111111111111,1,0,0,5.141500300000189,call3,-0.008333333333333333,-0.1486111111111111,1,0,0,5.641395200014813,colour3,0.4111111111111111,-0.29583333333333334,1,0,0,6.253839499986498,number4,True,True,True,42,2,2019_Nov_21_1303,MA_Theta_Exp,3.0.7,59.982353189994434,
video/Experiment/zh_sp01_Un_Gr_4_NoThetaInAudio_NoVideo.avi,noTheta,noVideo,sp01,Un,Gr,4,3,4,flow/blocks/NoThetaInAudio_NoVideo_B.csv,,,,,,,,,0,3,3,3,0,20,20,23,,,,,,,,,-0.36666666666666664,-0.30416666666666664,1,0,0,5.300354100007098,call4,0.06388888888888888,0.1361111111111111,1,0,0,5.90189239999745,colour2,0.3333333333333333,-0.31805555555555554,1,0,0,6.615574299998116,number4,True,True,True,42,2,2019_Nov_21_1303,MA_Theta_Exp,3.0.7,59.982353189994434,
video/Experiment/zh_sp01_Ad_We_4_NoThetaInAudio_NoVideo.avi,noTheta,noVideo,sp01,Ad,We,4,3,4,flow/blocks/NoThetaInAudio_NoVideo_B.csv,,,,,,,,,0,3,3,3,0,21,21,31,,,,,,,,,-0.37083333333333335,0.34305555555555556,1,0,0,6.525802399992244,call1,-0.044444444444444446,-0.2875,1,0,0,7.581509500014363,colour4,0.3958333333333333,-0.3347222222222222,1,0,0,8.191379000025336,number4,True,True,True,42,2,2019_Nov_21_1303,MA_Theta_Exp,3.0.7,59.982353189994434,
video/Experiment/zh_sp07_Un_Ge_1_NoThetaInAudio_NoVideo.avi,noTheta,noVideo,sp07,Un,Ge,1,3,4,flow/blocks/NoThetaInAudio_NoVideo_B.csv,,,,,,,,,0,3,3,3,0,22,22,0,,,,,,,,,-0.3819444444444444,-0.31666666666666665,1,0,0,4.395942600007402,call4,-0.008333333333333333,0.3013888888888889,1,0,0,5.299873300013132,colour1,0.4263888888888889,0.2722222222222222,1,0,0,5.824045599991223,number1,True,True,True,42,2,2019_Nov_21_1303,MA_Theta_Exp,3.0.7,59.982353189994434,
video/Experiment/zh_sp07_Dr_We_3_NoThetaInAudio_NoVideo.avi,noTheta,noVideo,sp07,Dr,We,3,3,4,flow/blocks/NoThetaInAudio_NoVideo_B.csv,,,,,,,,,0,3,3,3,0,23,23,14,,,,,,,,,-0.39305555555555555,-0.30277777777777776,1,0,0,4.594954400003189,call4,-0.044444444444444446,-0.2777777777777778,1,0,0,5.160185399989132,colour4,0.45555555555555555,-0.09583333333333334,1,0,0,6.2143187999899965,number3,False,True,True,42,2,2019_Nov_21_1303,MA_Theta_Exp,3.0.7,59.982353189994434,
video/Experiment/zh_sp07_Dr_Ro_3_NoThetaInAudio_NoVideo.avi,noTheta,noVideo,sp07,Dr,Ro,3,3,4,flow/blocks/NoThetaInAudio_NoVideo_B.csv,,,,,,,,,0,3,3,3,0,24,24,26,,,,,,,,,-0.3680555555555556,0.2791666666666667,1,0,0,4.696727800008375,call1,0.006944444444444444,-0.14444444444444443,1,0,0,5.2805232999962755,colour3,0.3819444444444444,-0.12222222222222222,1,0,0,5.814963999990141,number3,False,True,True,42,2,2019_Nov_21_1303,MA_Theta_Exp,3.0.7,59.982353189994434,
video/Experiment/zh_sp01_Dr_We_1_NoThetaInAudio_NoVideo.avi,noTheta,noVideo,sp01,Dr,We,1,3,4,flow/blocks/NoThetaInAudio_NoVideo_B.csv,,,,,,,,,0,3,3,3,0,25,25,28,,,,,,,,,-0.4013888888888889,-0.32592592592592595,1,0,0,5.969863099977374,call4,0.020833333333333332,-0.29814814814814816,1,0,0,6.5688285999931395,colour4,0.39444444444444443,0.30462962962962964,1,0,0,7.278739000001224,number1,False,True,True,42,2,2019_Nov_21_1303,MA_Theta_Exp,3.0.7,59.982353189994434,
video/Experiment/zh_sp07_Ad_Ge_4_NoThetaInAudio_NoVideo.avi,noTheta,noVideo,sp07,Ad,Ge,4,3,4,flow/blocks/NoThetaInAudio_NoVideo_B.csv,,,,,,,,,0,3,3,3,0,26,26,3,,,,,,,,,-0.38055555555555554,0.31574074074074077,1,0,0,4.8103593999985605,call1,0.022222222222222223,-0.34675925925925927,1,0,0,5.590435599995544,colour4,0.41944444444444445,-0.3509259259259259,1,0,0,6.136608000000706,number4,True,False,True,42,2,2019_Nov_21_1303,MA_Theta_Exp,3.0.7,59.982353189994434,
video/Experiment/zh_sp01_Ti_Gr_3_NoThetaInAudio_NoVideo.avi,noTheta,noVideo,sp01,Ti,Gr,3,3,4,flow/blocks/NoThetaInAudio_NoVideo_B.csv,,,,,,,,,0,3,3,3,0,27,27,22,,,,,,,,,-0.4097222222222222,-0.1439814814814815,1,0,0,5.445267599978251,call3,-0.006944444444444444,0.06157407407407407,1,0,0,6.0447054999822285,colour2,0.41388888888888886,-0.09398148148148149,1,0,0,6.6291522000101395,number3,True,True,True,42,2,2019_Nov_21_1303,MA_Theta_Exp,3.0.7,59.982353189994434,
video/Experiment/zh_sp07_Ti_Gr_1_NoThetaInAudio_NoVideo.avi,noTheta,noVideo,sp07,Ti,Gr,1,3,4,flow/blocks/NoThetaInAudio_NoVideo_B.csv,,,,,,,,,0,3,3,3,0,28,28,4,,,,,,,,,-0.3888888888888889,-0.1259259259259259,1,0,0,4.649405799980741,call3,-0.027777777777777776,0.07407407407407407,1,0,0,5.246896399999969,colour2,0.4125,0.287962962962963,1,0,0,5.881839700014098,number1,True,True,True,42,2,2019_Nov_21_1303,MA_Theta_Exp,3.0.7,59.982353189994434,
video/Experiment/zh_sp07_Ti_We_2_NoThetaInAudio_NoVideo.avi,noTheta,noVideo,sp07,Ti,We,2,3,4,flow/blocks/NoThetaInAudio_NoVideo_B.csv,,,,,,,,,0,3,3,3,0,29,29,29,,,,,,,,,-0.4041666666666667,-0.10092592592592593,1,0,0,4.759674499975517,call3,-0.05555555555555555,-0.3050925925925926,1,0,0,5.362947199988412,colour4,0.34305555555555556,0.06435185185185185,1,0,0,6.260050200013211,number2,True,True,True,42,2,2019_Nov_21_1303,MA_Theta_Exp,3.0.7,59.982353189994434,
video/Experiment/zh_sp01_Dr_Gr_1_NoThetaInAudio_NoVideo.avi,noTheta,noVideo,sp01,Dr,Gr,1,3,4,flow/blocks/NoThetaInAudio_NoVideo_B.csv,,,,,,,,,0,3,3,3,0,30,30,20,,,,,,,,,-0.41388888888888886,-0.32037037037037036,1,0,0,5.409417900023982,call4,0.09027777777777778,0.09907407407407408,1,0,0,6.072793400002411,colour2,0.41805555555555557,0.3435185185185185,1,0,0,7.305171700019855,number1,False,True,True,42,2,2019_Nov_21_1303,MA_Theta_Exp,3.0.7,59.982353189994434,
video/Experiment/zh_sp07_Ad_Ro_3_NoThetaInAudio_NoVideo.avi,noTheta,noVideo,sp07,Ad,Ro,3,3,4,flow/blocks/NoThetaInAudio_NoVideo_B.csv,,,,,,,,,0,3,3,3,0,31,31,10,,,,,,,,,-0.35,0.3087962962962963,1,0,0,4.655889499990735,call1,-0.05694444444444444,-0.1648148148148148,1,0,0,5.373180800001137,colour3,0.3611111111111111,-0.15925925925925927,1,0,0,5.974715599993942,number3,True,True,True,42,2,2019_Nov_21_1303,MA_Theta_Exp,3.0.7,59.982353189994434,
video/Experiment/zh_sp01_Un_Ro_3_NVocInAudio_NoVideo.avi,vocoded,noVideo,sp01,Un,Ro,3,4,2,flow/blocks/NVocInAudio_NoVideo_A.csv,,,,,,,,,0,4,4,4,0,0,0,26,,,,,,,,,-0.4097222222222222,-0.3106481481481482,1,0,0,5.189752000005683,call4,0.029166666666666667,-0.11064814814814815,1,0,0,5.728183600003831,colour3,0.4027777777777778,-0.09675925925925925,1,0,0,6.2468622000014875,number3,True,True,True,42,2,2019_Nov_21_1303,MA_Theta_Exp,3.0.7,59.982353189994434,
video/Experiment/zh_sp01_Dr_Ge_1_NVocInAudio_NoVideo.avi,vocoded,noVideo,sp01,Dr,Ge,1,4,2,flow/blocks/NVocInAudio_NoVideo_A.csv,,,,,,,,,0,4,4,4,0,1,1,0,,,,,,,,,-0.35694444444444445,0.07685185185185185,1,0,0,5.33536150000873,call2,0.05694444444444444,0.26851851851851855,1,0,0,5.95172330000787,colour1,0.3972222222222222,0.25046296296296294,1,0,0,6.617797499988228,number1,True,True,True,42,2,2019_Nov_21_1303,MA_Theta_Exp,3.0.7,59.982353189994434,
video/Experiment/zh_sp07_Ad_Gr_3_NVocInAudio_NoVideo.avi,vocoded,noVideo,sp07,Ad,Gr,3,4,2,flow/blocks/NVocInAudio_NoVideo_A.csv,,,,,,,,,0,4,4,4,0,2,2,22,,,,,,,,,-0.38333333333333336,0.30185185185185187,1,0,0,4.662714400008554,call1,0.002777777777777778,0.08796296296296297,1,0,0,5.246805200004019,colour2,0.38472222222222224,-0.07037037037037037,1,0,0,5.845289700024296,number3,True,True,True,42,2,2019_Nov_21_1303,MA_Theta_Exp,3.0.7,59.982353189994434,
video/Experiment/zh_sp07_Ti_Ge_4_NVocInAudio_NoVideo.avi,vocoded,noVideo,sp07,Ti,Ge,4,4,2,flow/blocks/NVocInAudio_NoVideo_A.csv,,,,,,,,,0,4,4,4,0,3,3,3,,,,,,,,,-0.3875,-0.08842592592592592,1,0,0,4.779794399975799,call3,0.08194444444444444,0.3226851851851852,1,0,0,5.37523139998666,colour1,0.3875,-0.31342592592592594,1,0,0,6.008789899991825,number4,True,True,True,42,2,2019_Nov_21_1303,MA_Theta_Exp,3.0.7,59.982353189994434,
video/Experiment/zh_sp01_Dr_Gr_3_NVocInAudio_NoVideo.avi,vocoded,noVideo,sp01,Dr,Gr,3,4,2,flow/blocks/NVocInAudio_NoVideo_A.csv,,,,,,,,,0,4,4,4,0,4,4,6,,,,,,,,,-0.4,0.1685185185185185,1,0,0,6.59374929999467,call2,0.002777777777777778,0.07685185185185185,1,0,0,7.212931700021727,colour2,0.475,-0.09259259259259259,1,0,0,7.683035499998368,number3,True,True,True,42,2,2019_Nov_21_1303,MA_Theta_Exp,3.0.7,59.982353189994434,
video/Experiment/zh_sp07_Ad_Ro_1_NVocInAudio_NoVideo.avi,vocoded,noVideo,sp07,Ad,Ro,1,4,2,flow/blocks/NVocInAudio_NoVideo_A.csv,,,,,,,,,0,4,4,4,0,5,5,8,,,,,,,,,-0.4111111111111111,0.32685185185185184,1,0,0,5.342171700001927,call1,0.06388888888888888,-0.1287037037037037,1,0,0,5.924207100004423,colour3,0.45,0.3101851851851852,1,0,0,6.5904976000019815,number1,True,True,True,42,2,2019_Nov_21_1303,MA_Theta_Exp,3.0.7,59.982353189994434,
video/Experiment/zh_sp07_Ad_We_2_NVocInAudio_NoVideo.avi,vocoded,noVideo,sp07,Ad,We,2,4,2,flow/blocks/NVocInAudio_NoVideo_A.csv,,,,,,,,,0,4,4,4,0,6,6,29,,,,,,,,,-0.4486111111111111,0.3282407407407407,1,0,0,4.725489500007825,call1,0.03611111111111111,-0.26064814814814813,1,0,0,5.510084100009408,colour4,0.38472222222222224,0.11018518518518519,1,0,0,6.092105099989567,number2,True,True,True,42,2,2019_Nov_21_1303,MA_Theta_Exp,3.0.7,59.982353189994434,
video/Experiment/zh_sp01_Ad_We_1_NVocInAudio_NoVideo.avi,vocoded,noVideo,sp01,Ad,We,1,4,2,flow/blocks/NVocInAudio_NoVideo_A.csv,,,,,,,,,0,4,4,4,0,7,7,12,,,,,,,,,-0.4305555555555556,0.33935185185185185,1,0,0,5.316701500007184,call1,0.002777777777777778,-0.32592592592592595,1,0,0,6.085140500013949,colour4,0.4083333333333333,0.31712962962962965,1,0,0,6.921877200016752,number1,True,True,True,42,2,2019_Nov_21_1303,MA_Theta_Exp,3.0.7,59.982353189994434,
video/Experiment/zh_sp01_Un_Ge_2_NVocInAudio_NoVideo.avi,vocoded,noVideo,sp01,Un,Ge,2,4,2,flow/blocks/NVocInAudio_NoVideo_A.csv,,,,,,,,,0,4,4,4,0,8,8,17,,,,,,,,,-0.44027777777777777,-0.34675925925925927,1,0,0,5.462229299999308,call4,0.03194444444444444,0.33796296296296297,1,0,0,6.158587999991141,colour1,0.4722222222222222,0.07268518518518519,1,0,0,6.813116200006334,number2,True,True,True,42,2,2019_Nov_21_1303,MA_Theta_Exp,3.0.7,59.982353189994434,
video/Experiment/zh_sp07_Ti_Ro_2_NVocInAudio_NoVideo.avi,vocoded,noVideo,sp07,Ti,Ro,2,4,2,flow/blocks/NVocInAudio_NoVideo_A.csv,,,,,,,,,0,4,4,4,0,9,9,25,,,,,,,,,-0.44027777777777777,-0.13564814814814816,1,0,0,4.716686500003561,call3,0.015277777777777777,-0.13148148148148148,1,0,0,5.196853599976748,colour3,0.45694444444444443,0.10324074074074074,1,0,0,5.696960300003411,number2,True,True,True,42,2,2019_Nov_21_1303,MA_Theta_Exp,3.0.7,59.982353189994434,
video/Experiment/zh_sp01_Ti_Gr_4_NVocInAudio_NoVideo.avi,vocoded,noVideo,sp01,Ti,Gr,4,4,2,flow/blocks/NVocInAudio_NoVideo_A.csv,,,,,,,,,0,4,4,4,0,10,10,7,,,,,,,,,-0.3625,-0.08564814814814815,1,0,0,5.274284599989187,call3,0.027777777777777776,0.08101851851851852,1,0,0,5.807260300003691,colour2,0.40555555555555556,-0.29259259259259257,1,0,0,6.391195600008359,number4,True,True,True,42,2,2019_Nov_21_1303,MA_Theta_Exp,3.0.7,59.982353189994434,
video/Experiment/zh_sp01_Ti_We_4_NVocInAudio_NoVideo.avi,vocoded,noVideo,sp01,Ti,We,4,4,2,flow/blocks/NVocInAudio_NoVideo_A.csv,,,,,,,,,0,4,4,4,0,11,11,31,,,,,,,,,-0.3763888888888889,-0.09814814814814815,1,0,0,5.100103800010402,call3,-0.058333333333333334,-0.262037037037037,1,0,0,5.83303610002622,colour4,0.39305555555555555,-0.3439814814814815,1,0,0,6.352067700005136,number4,True,True,True,42,2,2019_Nov_21_1303,MA_Theta_Exp,3.0.7,59.982353189994434,
video/Experiment/zh_sp07_Un_We_4_NVocInAudio_NoVideo.avi,vocoded,noVideo,sp07,Un,We,4,4,2,flow/blocks/NVocInAudio_NoVideo_A.csv,,,,,,,,,0,4,4,4,0,12,12,15,,,,,,,,,-0.37083333333333335,-0.2675925925925926,1,0,0,4.810305799997877,call4,-0.06527777777777778,-0.34814814814814815,1,0,0,5.293946000019787,colour4,0.3819444444444444,-0.38564814814814813,1,0,0,5.7804613999906,number4,True,True,True,42,2,2019_Nov_21_1303,MA_Theta_Exp,3.0.7,59.982353189994434,
video/Experiment/zh_sp07_Un_We_3_NVocInAudio_NoVideo.avi,vocoded,noVideo,sp07,Un,We,3,4,2,flow/blocks/NVocInAudio_NoVideo_A.csv,,,,,,,,,0,4,4,4,0,13,13,14,,,,,,,,,-0.35555555555555557,-0.29814814814814816,1,0,0,4.3837537999788765,call4,-0.03888888888888889,-0.3384259259259259,1,0,0,4.9791032999928575,colour4,0.3263888888888889,-0.1287037037037037,1,0,0,5.696971299999859,number3,True,True,True,42,2,2019_Nov_21_1303,MA_Theta_Exp,3.0.7,59.982353189994434,
video/Experiment/zh_sp01_Dr_Ge_4_NVocInAudio_NoVideo.avi,vocoded,noVideo,sp01,Dr,Ge,4,4,2,flow/blocks/NVocInAudio_NoVideo_A.csv,,,,,,,,,0,4,4,4,0,14,14,19,,,,,,,,,-0.4375,0.10185185185185185,1,0,0,5.110708000021987,call2,-0.059722222222222225,0.30462962962962964,1,0,0,5.749409199983347,colour1,0.37777777777777777,-0.32731481481481484,1,0,0,6.4339987999992445,number4,True,True,True,42,2,2019_Nov_21_1303,MA_Theta_Exp,3.0.7,59.982353189994434,
video/Experiment/zh_sp01_Ad_Gr_1_NVocInAudio_NoVideo.avi,vocoded,noVideo,sp01,Ad,Gr,1,4,2,flow/blocks/NVocInAudio_NoVideo_A.csv,,,,,,,,,0,4,4,4,0,15,15,4,,,,,,,,,-0.3902777777777778,0.30185185185185187,1,0,0,5.801579799997853,call1,0.015277777777777777,0.0837962962962963,1,0,0,6.300811900000554,colour2,0.43333333333333335,0.3199074074074074,1,0,0,7.082104799977969,number1,True,True,True,42,2,2019_Nov_21_1303,MA_Theta_Exp,3.0.7,59.982353189994434,
video/Experiment/zh_sp01_Ad_Ro_4_NVocInAudio_NoVideo.avi,vocoded,noVideo,sp01,Ad,Ro,4,4,2,flow/blocks/NVocInAudio_NoVideo_A.csv,,,,,,,,,0,4,4,4,0,16,16,11,,,,,,,,,-0.4305555555555556,0.35462962962962963,1,0,0,5.730844599980628,call1,0.009722222222222222,-0.13148148148148148,1,0,0,6.255819000012707,colour3,0.38055555555555554,-0.34953703703703703,1,0,0,6.7139636000210885,number4,True,True,True,42,2,2019_Nov_21_1303,MA_Theta_Exp,3.0.7,59.982353189994434,
video/Experiment/zh_sp07_Un_We_1_NVocInAudio_NoVideo.avi,vocoded,noVideo,sp07,Un,We,1,4,2,flow/blocks/NVocInAudio_NoVideo_A.csv,,,,,,,,,0,4,4,4,0,17,17,28,,,,,,,,,-0.3861111111111111,-0.32731481481481484,1,0,0,5.27840430001379,call4,-0.059722222222222225,-0.34675925925925927,1,0,0,5.843544700008351,colour4,0.43472222222222223,0.2949074074074074,1,0,0,6.760293300001649,number1,True,True,True,42,2,2019_Nov_21_1303,MA_Theta_Exp,3.0.7,59.982353189994434,
video/Experiment/zh_sp01_Dr_Ro_2_NVocInAudio_NoVideo.avi,vocoded,noVideo,sp01,Dr,Ro,2,4,2,flow/blocks/NVocInAudio_NoVideo_A.csv,,,,,,,,,0,4,4,4,0,18,18,9,,,,,,,,,-0.38333333333333336,0.07546296296296297,1,0,0,5.398258500004886,call2,0.019444444444444445,-0.13564814814814816,1,0,0,5.948088600009214,colour3,0.3138888888888889,0.08101851851851852,1,0,0,6.6814540999766905,number2,True,True,True,42,2,2019_Nov_21_1303,MA_Theta_Exp,3.0.7,59.982353189994434,
video/Experiment/zh_sp07_Un_Ge_3_NVocInAudio_NoVideo.avi,vocoded,noVideo,sp07,Un,Ge,3,4,2,flow/blocks/NVocInAudio_NoVideo_A.csv,,,,,,,,,0,4,4,4,0,19,19,2,,,,,,,,,-0.3958333333333333,-0.3300925925925926,1,0,0,4.755860300007043,call4,-0.008333333333333333,0.31157407407407406,1,0,0,5.443591399991419,colour1,0.38472222222222224,-0.11203703703703703,1,0,0,5.988501700019697,number3,True,True,True,42,2,2019_Nov_21_1303,MA_Theta_Exp,3.0.7,59.982353189994434,
video/Experiment/zh_sp07_Dr_Ro_4_NVocInAudio_NoVideo.avi,vocoded,noVideo,sp07,Dr,Ro,4,4,2,flow/blocks/NVocInAudio_NoVideo_A.csv,,,,,,,,,0,4,4,4,0,20,20,27,,,,,,,,,-0.4013888888888889,0.12268518518518519,1,0,0,5.431466999987606,call2,-0.025,-0.13287037037037036,1,0,0,6.015367000014521,colour3,0.41805555555555557,-0.3731481481481482,1,0,0,6.518191499984823,number4,True,True,True,42,2,2019_Nov_21_1303,MA_Theta_Exp,3.0.7,59.982353189994434,
video/Experiment/zh_sp07_Un_Gr_1_NVocInAudio_NoVideo.avi,vocoded,noVideo,sp07,Un,Gr,1,4,2,flow/blocks/NVocInAudio_NoVideo_A.csv,,,,,,,,,0,4,4,4,0,21,21,20,,,,,,,,,-0.3625,-0.3037037037037037,1,0,0,4.69868219998898,call4,0.018055555555555554,0.12546296296296297,1,0,0,5.264962699991884,colour2,0.3375,0.3212962962962963,1,0,0,5.867155799991451,number1,True,True,True,42,2,2019_Nov_21_1303,MA_Theta_Exp,3.0.7,59.982353189994434,
video/Experiment/zh_sp01_Ti_Ge_3_NVocInAudio_NoVideo.avi,vocoded,noVideo,sp01,Ti,Ge,3,4,2,flow/blocks/NVocInAudio_NoVideo_A.csv,,,,,,,,,0,4,4,4,0,22,22,18,,,,,,,,,-0.3902777777777778,-0.08842592592592592,1,0,0,5.50671919999877,call3,0.02361111111111111,0.3296296296296296,1,0,0,6.491058799991151,colour1,0.43194444444444446,-0.1037037037037037,1,0,0,7.108148800005438,number3,True,True,True,42,2,2019_Nov_21_1303,MA_Theta_Exp,3.0.7,59.982353189994434,
video/Experiment/zh_sp07_Un_Ro_1_NVocInAudio_NoVideo.avi,vocoded,noVideo,sp07,Un,Ro,1,4,2,flow/blocks/NVocInAudio_NoVideo_A.csv,,,,,,,,,0,4,4,4,0,23,23,24,,,,,,,,,-0.3763888888888889,-0.31203703703703706,1,0,0,5.2181169000105,call4,0.05416666666666667,-0.1037037037037037,1,0,0,5.8145756000012625,colour3,0.3888888888888889,0.35185185185185186,1,0,0,6.738133299979381,number1,True,True,True,42,2,2019_Nov_21_1303,MA_Theta_Exp,3.0.7,59.982353189994434,
video/Experiment/zh_sp07_Dr_Gr_4_NVocInAudio_NoVideo.avi,vocoded,noVideo,sp07,Dr,Gr,4,4,2,flow/blocks/NVocInAudio_NoVideo_A.csv,,,,,,,,,0,4,4,4,0,24,24,23,,,,,,,,,-0.40694444444444444,0.14212962962962963,1,0,0,5.388077000010526,call2,-0.05138888888888889,0.10740740740740741,1,0,0,5.886185600014869,colour2,0.425,-0.10925925925925926,1,0,0,6.439987499994459,number3,True,True,False,42,2,2019_Nov_21_1303,MA_Theta_Exp,3.0.7,59.982353189994434,
video/Experiment/zh_sp07_Ad_We_3_NVocInAudio_NoVideo.avi,vocoded,noVideo,sp07,Ad,We,3,4,2,flow/blocks/NVocInAudio_NoVideo_A.csv,,,,,,,,,0,4,4,4,0,25,25,30,,,,,,,,,-0.4041666666666667,0.30185185185185187,1,0,0,5.0006470999796875,call1,0.006944444444444444,-0.27175925925925926,1,0,0,5.9366898000007495,colour4,0.35694444444444445,-0.09953703703703703,1,0,0,6.502820199995767,number3,True,True,True,42,2,2019_Nov_21_1303,MA_Theta_Exp,3.0.7,59.982353189994434,
video/Experiment/zh_sp01_Ti_Ge_1_NVocInAudio_NoVideo.avi,vocoded,noVideo,sp01,Ti,Ge,1,4,2,flow/blocks/NVocInAudio_NoVideo_A.csv,,,,,,,,,0,4,4,4,0,26,26,16,,,,,,,,,-0.41805555555555557,-0.07037037037037037,1,0,0,5.93629530002363,call3,0.05277777777777778,0.33935185185185185,1,0,0,6.529727699991781,colour1,0.37083333333333335,0.29212962962962963,1,0,0,7.043323899997631,number1,True,True,True,42,2,2019_Nov_21_1303,MA_Theta_Exp,3.0.7,59.982353189994434,
video/Experiment/zh_sp01_Dr_Gr_2_NVocInAudio_NoVideo.avi,vocoded,noVideo,sp01,Dr,Gr,2,4,2,flow/blocks/NVocInAudio_NoVideo_A.csv,,,,,,,,,0,4,4,4,0,27,27,5,,,,,,,,,-0.37222222222222223,0.10324074074074074,1,0,0,5.351318900007755,call2,0.011111111111111112,0.07685185185185185,1,0,0,5.825161300017498,colour2,0.36944444444444446,0.10462962962962963,1,0,0,6.255030200001784,number2,True,True,True,42,2,2019_Nov_21_1303,MA_Theta_Exp,3.0.7,59.982353189994434,
video/Experiment/zh_sp07_Ti_Ge_2_NVocInAudio_NoVideo.avi,vocoded,noVideo,sp07,Ti,Ge,2,4,2,flow/blocks/NVocInAudio_NoVideo_A.csv,,,,,,,,,0,4,4,4,0,28,28,1,,,,,,,,,-0.4166666666666667,-0.12731481481481483,1,0,0,4.657837800012203,call3,0.044444444444444446,0.29768518518518516,1,0,0,5.278875699994387,colour1,0.4361111111111111,0.04212962962962963,1,0,0,5.813099799997872,number2,True,True,True,42,2,2019_Nov_21_1303,MA_Theta_Exp,3.0.7,59.982353189994434,
video/Experiment/zh_sp01_Ti_Ro_3_NVocInAudio_NoVideo.avi,vocoded,noVideo,sp01,Ti,Ro,3,4,2,flow/blocks/NVocInAudio_NoVideo_A.csv,,,,,,,,,0,4,4,4,0,29,29,10,,,,,,,,,-0.4388888888888889,-0.09814814814814815,1,0,0,5.042230400023982,call3,0.07777777777777778,-0.1050925925925926,1,0,0,9.425703800021438,colour3,0.4388888888888889,-0.15231481481481482,1,0,0,9.808219700003974,number3,True,True,True,42,2,2019_Nov_21_1303,MA_Theta_Exp,3.0.7,59.982353189994434,
video/Experiment/zh_sp01_Ad_Gr_2_NVocInAudio_NoVideo.avi,vocoded,noVideo,sp01,Ad,Gr,2,4,2,flow/blocks/NVocInAudio_NoVideo_A.csv,,,,,,,,,0,4,4,4,0,30,30,21,,,,,,,,,-0.3625,0.2935185185185185,1,0,0,6.614403499988839,call1,0.0625,0.10046296296296296,1,0,0,7.081354800000554,colour2,0.45555555555555555,0.026851851851851852,1,0,0,7.6308093999978155,number2,True,True,True,42,2,2019_Nov_21_1303,MA_Theta_Exp,3.0.7,59.982353189994434,
video/Experiment/zh_sp07_Dr_We_2_NVocInAudio_NoVideo.avi,vocoded,noVideo,sp07,Dr,We,2,4,2,flow/blocks/NVocInAudio_NoVideo_A.csv,,,,,,,,,0,4,4,4,0,31,31,13,,,,,,,,,-0.4,0.10185185185185185,1,0,0,4.916848699998809,call2,-0.022222222222222223,-0.30092592592592593,1,0,0,5.582987600006163,colour4,0.41944444444444445,0.08101851851851852,1,0,0,6.233628600020893,number2,True,True,True,42,2,2019_Nov_21_1303,MA_Theta_Exp,3.0.7,59.982353189994434,
video/Experiment/zh_sp01_Dr_Ro_3_NoThetaInAudio_GlobalThetaInVideo.avi,noTheta,plusVideo,sp01,Dr,Ro,3,0,3,flow/blocks/NoThetaInAudio_GlobalThetaInVideo_B.csv,,,,,,,,,,,,,,,,,0,0,0,0,0,0,0,26,-0.3736111111111111,0.1087962962962963,1,0,0,5.821717200014973,call2,0.018055555555555554,-0.08981481481481482,1,0,0,6.2880210999865085,colour3,0.37777777777777777,-0.10231481481481482,1,0,0,6.755102399998577,number3,True,True,True,42,2,2019_Nov_21_1303,MA_Theta_Exp,3.0.7,59.982353189994434,
video/Experiment/zh_sp07_Un_Gr_3_NoThetaInAudio_GlobalThetaInVideo.avi,noTheta,plusVideo,sp07,Un,Gr,3,0,3,flow/blocks/NoThetaInAudio_GlobalThetaInVideo_B.csv,,,,,,,,,,,,,,,,,0,0,0,0,0,1,1,6,-0.39444444444444443,-0.09537037037037037,1,0,0,5.351307300006738,call3,-0.02638888888888889,0.10740740740740741,1,0,0,5.893441599997459,colour2,0.41805555555555557,-0.1037037037037037,1,0,0,6.490770599979442,number3,False,True,True,42,2,2019_Nov_21_1303,MA_Theta_Exp,3.0.7,59.982353189994434,
video/Experiment/zh_sp01_Ti_We_3_NoThetaInAudio_GlobalThetaInVideo.avi,noTheta,plusVideo,sp01,Ti,We,3,0,3,flow/blocks/NoThetaInAudio_GlobalThetaInVideo_B.csv,,,,,,,,,,,,,,,,,0,0,0,0,0,2,2,30,-0.3819444444444444,-0.06342592592592593,1,0,0,5.815876400010893,call3,0.0625,-0.3592592592592593,1,0,0,6.564220300002489,colour4,0.4486111111111111,-0.11064814814814815,1,0,0,7.414109000004828,number3,True,True,True,42,2,2019_Nov_21_1303,MA_Theta_Exp,3.0.7,59.982353189994434,
video/Experiment/zh_sp07_Ti_Gr_1_NoThetaInAudio_GlobalThetaInVideo.avi,noTheta,plusVideo,sp07,Ti,Gr,1,0,3,flow/blocks/NoThetaInAudio_GlobalThetaInVideo_B.csv,,,,,,,,,,,,,,,,,0,0,0,0,0,3,3,4,-0.37916666666666665,-0.12314814814814815,1,0,0,4.666015299997525,call3,0.02361111111111111,0.09074074074074075,1,0,0,5.215944399998989,colour2,0.4125,0.2865740740740741,1,0,0,5.851984800014179,number1,True,True,True,42,2,2019_Nov_21_1303,MA_Theta_Exp,3.0.7,59.982353189994434,
video/Experiment/zh_sp01_Un_Gr_4_NoThetaInAudio_GlobalThetaInVideo.avi,noTheta,plusVideo,sp01,Un,Gr,4,0,3,flow/blocks/NoThetaInAudio_GlobalThetaInVideo_B.csv,,,,,,,,,,,,,,,,,0,0,0,0,0,4,4,23,-0.3625,0.1337962962962963,1,0,0,5.598358499992173,call2,0.04722222222222222,0.0699074074074074,1,0,0,6.449389400018845,colour2,0.44027777777777777,-0.2953703703703704,1,0,0,7.070456200017361,number4,False,True,True,42,2,2019_Nov_21_1303,MA_Theta_Exp,3.0.7,59.982353189994434,
video/Experiment/zh_sp01_Un_Ro_4_NoThetaInAudio_GlobalThetaInVideo.avi,noTheta,plusVideo,sp01,Un,Ro,4,0,3,flow/blocks/NoThetaInAudio_GlobalThetaInVideo_B.csv,,,,,,,,,,,,,,,,,0,0,0,0,0,5,5,27,-0.4152777777777778,-0.3023148148148148,1,0,0,5.429735100013204,call4,-0.03194444444444444,-0.1259259259259259,1,0,0,6.02431800001068,colour3,0.43333333333333335,-0.3398148148148148,1,0,0,6.664058599999407,number4,True,True,True,42,2,2019_Nov_21_1303,MA_Theta_Exp,3.0.7,59.982353189994434,
video/Experiment/zh_sp07_Dr_We_3_NoThetaInAudio_GlobalThetaInVideo.avi,noTheta,plusVideo,sp07,Dr,We,3,0,3,flow/blocks/NoThetaInAudio_GlobalThetaInVideo_B.csv,,,,,,,,,,,,,,,,,0,0,0,0,0,6,6,14,-0.38472222222222224,0.06712962962962964,1,0,0,4.8174474999832455,call2,-0.020833333333333332,-0.30787037037037035,1,0,0,5.554377299995394,colour4,0.3888888888888889,-0.05092592592592592,1,0,0,6.236576700001024,number3,True,True,True,42,2,2019_Nov_21_1303,MA_Theta_Exp,3.0.7,59.982353189994434,
video/Experiment/zh_sp07_Dr_Ro_1_NoThetaInAudio_GlobalThetaInVideo.avi,noTheta,plusVideo,sp07,Dr,Ro,1,0,3,flow/blocks/NoThetaInAudio_GlobalThetaInVideo_B.csv,,,,,,,,,,,,,,,,,0,0,0,0,0,7,7,24,-0.37407407407407406,0.1087962962962963,1,0,0,5.200238100020215,call2,0.04398148148148148,-0.15231481481481482,1,0,0,5.716412700014189,colour3,0.41064814814814815,0.30324074074074076,1,0,0,6.464998899988132,number1,True,True,True,42,2,2019_Nov_21_1303,MA_Theta_Exp,3.0.7,59.982353189994434,
video/Experiment/zh_sp07_Un_Ge_4_NoThetaInAudio_GlobalThetaInVideo.avi,noTheta,plusVideo,sp07,Un,Ge,4,0,3,flow/blocks/NoThetaInAudio_GlobalThetaInVideo_B.csv,,,,,,,,,,,,,,,,,0,0,0,0,0,8,8,19,-0.3699074074074074,-0.3537037037037037,1,0,0,4.597564099996816,call4,0.05092592592592592,0.33935185185185185,1,0,0,5.466435200010892,colour1,0.4273148148148148,-0.37453703703703706,1,0,0,6.246522900008131,number4,True,True,True,42,2,2019_Nov_21_1303,MA_Theta_Exp,3.0.7,59.982353189994434,
video/Experiment/zh_sp01_Dr_Ge_2_NoThetaInAudio_GlobalThetaInVideo.avi,noTheta,plusVideo,sp01,Dr,Ge,2,0,3,flow/blocks/NoThetaInAudio_GlobalThetaInVideo_B.csv,,,,,,,,,,,,,,,,,0,0,0,0,0,9,9,17,-0.4199074074074074,-0.3300925925925926,1,0,0,6.250579999992624,call4,0.013425925925925926,0.36435185185185187,1,0,0,7.448197699995944,colour1,0.3925925925925926,0.06435185185185185,1,0,0,8.116603399976157,number2,False,True,True,42,2,2019_Nov_21_1303,MA_Theta_Exp,3.0.7,59.982353189994434,
video/Experiment/zh_sp01_Dr_Ge_3_NoThetaInAudio_GlobalThetaInVideo.avi,noTheta,plusVideo,sp01,Dr,Ge,3,0,3,flow/blocks/NoThetaInAudio_GlobalThetaInVideo_B.csv,,,,,,,,,,,,,,,,,0,0,0,0,0,10,10,2,-0.3726851851851852,-0.3148148148148148,1,0,0,6.085956399998395,call4,0.05092592592592592,0.3421296296296296,1,0,0,6.688282299990533,colour1,0.36898148148148147,-0.08148148148148149,1,0,0,7.268492900009733,number3,False,True,True,42,2,2019_Nov_21_1303,MA_Theta_Exp,3.0.7,59.982353189994434,
video/Experiment/zh_sp07_Ti_Gr_3_NoThetaInAudio_GlobalThetaInVideo.avi,noTheta,plusVideo,sp07,Ti,Gr,3,0,3,flow/blocks/NoThetaInAudio_GlobalThetaInVideo_B.csv,,,,,,,,,,,,,,,,,0,0,0,0,0,11,11,22,-0.35462962962962963,-0.11342592592592593,1,0,0,4.781604699994205,call3,-0.04490740740740741,0.08518518518518518,1,0,0,5.353706599998986,colour2,0.40925925925925927,-0.12314814814814815,1,0,0,5.935329800006002,number3,True,True,True,42,2,2019_Nov_21_1303,MA_Theta_Exp,3.0.7,59.982353189994434,
video/Experiment/zh_sp07_Ad_Gr_4_NoThetaInAudio_GlobalThetaInVideo.avi,noTheta,plusVideo,sp07,Ad,Gr,4,0,3,flow/blocks/NoThetaInAudio_GlobalThetaInVideo_B.csv,,,,,,,,,,,,,,,,,0,0,0,0,0,12,12,7,-0.40879629629629627,-0.3314814814814815,1,0,0,5.081973899999866,call4,0.003703703703703704,0.09490740740740741,1,0,0,5.701368199981516,colour2,0.38842592592592595,-0.30648148148148147,1,0,0,6.635518299997784,number4,False,True,True,42,2,2019_Nov_21_1303,MA_Theta_Exp,3.0.7,59.982353189994434,
video/Experiment/zh_sp01_Un_Ge_1_NoThetaInAudio_GlobalThetaInVideo.avi,noTheta,plusVideo,sp01,Un,Ge,1,0,3,flow/blocks/NoThetaInAudio_GlobalThetaInVideo_B.csv,,,,,,,,,,,,,,,,,0,0,0,0,0,13,13,0,-0.34629629629629627,-0.3175925925925926,1,0,0,5.60721069999272,call4,0.03564814814814815,0.3351851851851852,1,0,0,6.909045199980028,colour1,0.37453703703703706,0.3087962962962963,1,0,0,7.509444800001802,number1,True,True,True,42,2,2019_Nov_21_1303,MA_Theta_Exp,3.0.7,59.982353189994434,
video/Experiment/zh_sp01_Dr_We_1_NoThetaInAudio_GlobalThetaInVideo.avi,noTheta,plusVideo,sp01,Dr,We,1,0,3,flow/blocks/NoThetaInAudio_GlobalThetaInVideo_B.csv,,,,,,,,,,,,,,,,,0,0,0,0,0,14,14,28,-0.3824074074074074,-0.2828703703703704,1,0,0,5.0890535000071395,call4,-0.046296296296296294,-0.34675925925925927,1,0,0,5.690288100013277,colour4,0.3939814814814815,0.29768518518518516,1,0,0,6.538571400014916,number1,False,True,True,42,2,2019_Nov_21_1303,MA_Theta_Exp,3.0.7,59.982353189994434,
video/Experiment/zh_sp07_Ti_Gr_2_NoThetaInAudio_GlobalThetaInVideo.avi,noTheta,plusVideo,sp07,Ti,Gr,2,0,3,flow/blocks/NoThetaInAudio_GlobalThetaInVideo_B.csv,,,,,,,,,,,,,,,,,0,0,0,0,0,15,15,21,-0.38101851851851853,-0.08425925925925926,1,0,0,4.710151600011159,call3,-0.024074074074074074,0.0837962962962963,1,0,0,5.320881000021473,colour2,0.4634259259259259,0.1476851851851852,1,0,0,5.8066679000039585,number2,True,True,True,42,2,2019_Nov_21_1303,MA_Theta_Exp,3.0.7,59.982353189994434,
video/Experiment/zh_sp01_Ad_Ge_2_NoThetaInAudio_GlobalThetaInVideo.avi,noTheta,plusVideo,sp01,Ad,Ge,2,0,3,flow/blocks/NoThetaInAudio_GlobalThetaInVideo_B.csv,,,,,,,,,,,,,,,,,0,0,0,0,0,16,16,1,-0.4074074074074074,0.31574074074074077,1,0,0,5.329698299989104,call1,0.0023148148148148147,0.3199074074074074,1,0,0,5.911948399996618,colour1,0.38842592592592595,0.12962962962962962,1,0,0,6.480800599994836,number2,True,True,True,42,2,2019_Nov_21_1303,MA_Theta_Exp,3.0.7,59.982353189994434,
video/Experiment/zh_sp07_Un_Ro_2_NoThetaInAudio_GlobalThetaInVideo.avi,noTheta,plusVideo,sp07,Un,Ro,2,0,3,flow/blocks/NoThetaInAudio_GlobalThetaInVideo_B.csv,,,,,,,,,,,,,,,,,0,0,0,0,0,17,17,9,-0.3726851851851852,-0.2773148148148148,1,0,0,4.746050100016873,call4,-0.0032407407407407406,-0.10231481481481482,1,0,0,5.315214900008868,colour3,0.4300925925925926,0.1699074074074074,1,0,0,6.029057699983241,number2,True,True,True,42,2,2019_Nov_21_1303,MA_Theta_Exp,3.0.7,59.982353189994434,
video/Experiment/zh_sp07_Ad_Ro_2_NoThetaInAudio_GlobalThetaInVideo.avi,noTheta,plusVideo,sp07,Ad,Ro,2,0,3,flow/blocks/NoThetaInAudio_GlobalThetaInVideo_B.csv,,,,,,,,,,,,,,,,,0,0,0,0,0,18,18,25,-0.44351851851851853,0.29212962962962963,1,0,0,5.394130800006678,call1,0.037037037037037035,0.3337962962962963,1,0,0,6.196231400012039,colour1,0.38842592592592595,0.07546296296296297,1,0,0,6.764389699994354,number2,True,False,True,42,2,2019_Nov_21_1303,MA_Theta_Exp,3.0.7,59.982353189994434,
video/Experiment/zh_sp07_Ti_We_2_NoThetaInAudio_GlobalThetaInVideo.avi,noTheta,plusVideo,sp07,Ti,We,2,0,3,flow/blocks/NoThetaInAudio_GlobalThetaInVideo_B.csv,,,,,,,,,,,,,,,,,0,0,0,0,0,19,19,29,-0.3824074074074074,-0.1425925925925926,1,0,0,5.063922699977411,call3,-0.001851851851851852,0.12824074074074074,1,0,0,5.694697999977507,colour2,0.4634259259259259,0.03518518518518519,1,0,0,6.177920699992683,number2,True,False,True,42,2,2019_Nov_21_1303,MA_Theta_Exp,3.0.7,59.982353189994434,
video/Experiment/zh_sp07_Ad_Ge_1_NoThetaInAudio_GlobalThetaInVideo.avi,noTheta,plusVideo,sp07,Ad,Ge,1,0,3,flow/blocks/NoThetaInAudio_GlobalThetaInVideo_B.csv,,,,,,,,,,,,,,,,,0,0,0,0,0,20,20,16,-0.40046296296296297,0.32546296296296295,1,0,0,4.713227700005518,call1,-0.018518518518518517,0.2671296296296296,1,0,0,5.329089000006206,colour1,0.47314814814814815,0.26851851851851855,1,0,0,5.940895599982468,number1,True,True,True,42,2,2019_Nov_21_1303,MA_Theta_Exp,3.0.7,59.982353189994434,
video/Experiment/zh_sp01_Ti_Ro_4_NoThetaInAudio_GlobalThetaInVideo.avi,noTheta,plusVideo,sp01,Ti,Ro,4,0,3,flow/blocks/NoThetaInAudio_GlobalThetaInVideo_B.csv,,,,,,,,,,,,,,,,,0,0,0,0,0,21,21,11,-0.41712962962962963,-0.08703703703703704,1,0,0,5.402289099991322,call3,-0.014351851851851852,0.03657407407407407,1,0,0,6.065281099989079,colour2,0.3800925925925926,-0.30092592592592593,1,0,0,6.873873900010949,number4,True,False,True,42,2,2019_Nov_21_1303,MA_Theta_Exp,3.0.7,59.982353189994434,
video/Experiment/zh_sp01_Ad_Ge_4_NoThetaInAudio_GlobalThetaInVideo.avi,noTheta,plusVideo,sp01,Ad,Ge,4,0,3,flow/blocks/NoThetaInAudio_GlobalThetaInVideo_B.csv,,,,,,,,,,,,,,,,,0,0,0,0,0,22,22,3,-0.4587962962962963,0.300462962962963,1,0,0,5.4802442000072915,call1,-0.050462962962962966,0.28379629629629627,1,0,0,6.014435099990806,colour1,0.43287037037037035,-0.2550925925925926,1,0,0,6.685294299997622,number4,True,True,True,42,2,2019_Nov_21_1303,MA_Theta_Exp,3.0.7,59.982353189994434,
video/Experiment/zh_sp01_Un_We_2_NoThetaInAudio_GlobalThetaInVideo.avi,noTheta,plusVideo,sp01,Un,We,2,0,3,flow/blocks/NoThetaInAudio_GlobalThetaInVideo_B.csv,,,,,,,,,,,,,,,,,0,0,0,0,0,23,23,13,-0.38935185185185184,-0.32314814814814813,1,0,0,5.466261800000211,call4,-0.007407407407407408,-0.3787037037037037,1,0,0,5.977796099992702,colour4,0.3675925925925926,0.033796296296296297,1,0,0,6.815419100021245,number2,True,True,True,42,2,2019_Nov_21_1303,MA_Theta_Exp,3.0.7,59.982353189994434,
video/Experiment/zh_sp01_Un_Gr_2_NoThetaInAudio_GlobalThetaInVideo.avi,noTheta,plusVideo,sp01,Un,Gr,2,0,3,flow/blocks/NoThetaInAudio_GlobalThetaInVideo_B.csv,,,,,,,,,,,,,,,,,0,0,0,0,0,24,24,5,-0.3768518518518518,-0.3050925925925926,1,0,0,5.713908200006699,call4,0.03009259259259259,0.11018518518518519,1,0,0,6.291758300008951,colour2,0.48009259259259257,0.056018518518518516,1,0,0,6.741894299979322,number2,True,True,True,42,2,2019_Nov_21_1303,MA_Theta_Exp,3.0.7,59.982353189994434,
video/Experiment/zh_sp07_Ad_Ro_3_NoThetaInAudio_GlobalThetaInVideo.avi,noTheta,plusVideo,sp07,Ad,Ro,3,0,3,flow/blocks/NoThetaInAudio_GlobalThetaInVideo_B.csv,,,,,,,,,,,,,,,,,0,0,0,0,0,25,25,10,-0.37824074074074077,0.27685185185185185,1,0,0,4.672609900007956,call1,-0.01990740740740741,-0.037037037037037035,1,0,0,5.1729567000002135,colour3,0.37175925925925923,-0.14953703703703702,1,0,0,5.678277800005162,number3,True,True,True,42,2,2019_Nov_21_1303,MA_Theta_Exp,3.0.7,59.982353189994434,
video/Experiment/zh_sp01_Ad_Ge_3_NoThetaInAudio_GlobalThetaInVideo.avi,noTheta,plusVideo,sp01,Ad,Ge,3,0,3,flow/blocks/NoThetaInAudio_GlobalThetaInVideo_B.csv,,,,,,,,,,,,,,,,,0,0,0,0,0,26,26,18,-0.41712962962962963,0.2518518518518518,1,0,0,4.960701800009701,call1,-0.03518518518518519,0.09074074074074075,1,0,0,5.473226300004171,colour2,0.45231481481481484,-0.1259259259259259,1,0,0,6.0171080000000075,number3,True,False,True,42,2,2019_Nov_21_1303,MA_Theta_Exp,3.0.7,59.982353189994434,
video/Experiment/zh_sp07_Dr_We_4_NoThetaInAudio_GlobalThetaInVideo.avi,noTheta,plusVideo,sp07,Dr,We,4,0,3,flow/blocks/NoThetaInAudio_GlobalThetaInVideo_B.csv,,,,,,,,,,,,,,,,,0,0,0,0,0,27,27,15,-0.3768518518518518,-0.3300925925925926,1,0,0,4.705311099998653,call4,-0.0032407407407407406,-0.34814814814814815,1,0,0,5.274303499987582,colour4,0.43842592592592594,-0.3106481481481482,1,0,0,5.774748199997703,number4,False,True,True,42,2,2019_Nov_21_1303,MA_Theta_Exp,3.0.7,59.982353189994434,
video/Experiment/zh_sp07_Ad_We_4_NoThetaInAudio_GlobalThetaInVideo.avi,noTheta,plusVideo,sp07,Ad,We,4,0,3,flow/blocks/NoThetaInAudio_GlobalThetaInVideo_B.csv,,,,,,,,,,,,,,,,,0,0,0,0,0,28,28,31,-0.44907407407407407,0.3143518518518518,1,0,0,5.054055399989011,call1,0.037037037037037035,-0.29953703703703705,1,0,0,5.803888099995675,colour4,0.42314814814814816,-0.3398148148148148,1,0,0,6.271399200020824,number4,True,True,True,42,2,2019_Nov_21_1303,MA_Theta_Exp,3.0.7,59.982353189994434,
video/Experiment/zh_sp01_Ti_Ro_1_NoThetaInAudio_GlobalThetaInVideo.avi,noTheta,plusVideo,sp01,Ti,Ro,1,0,3,flow/blocks/NoThetaInAudio_GlobalThetaInVideo_B.csv,,,,,,,,,,,,,,,,,0,0,0,0,0,29,29,8,-0.35462962962962963,-0.08564814814814815,1,0,0,5.467137900006492,call3,0.03564814814814815,-0.11342592592592593,1,0,0,5.950766499998281,colour3,0.43842592592592594,0.27824074074074073,1,0,0,6.5502603000204545,number1,True,True,True,42,2,2019_Nov_21_1303,MA_Theta_Exp,3.0.7,59.982353189994434,
video/Experiment/zh_sp01_Ti_We_1_NoThetaInAudio_GlobalThetaInVideo.avi,noTheta,plusVideo,sp01,Ti,We,1,0,3,flow/blocks/NoThetaInAudio_GlobalThetaInVideo_B.csv,,,,,,,,,,,,,,,,,0,0,0,0,0,30,30,12,-0.3685185185185185,-0.07175925925925926,1,0,0,5.131421000027331,call3,0.04814814814814815,-0.39814814814814814,1,0,0,5.616516400012188,colour4,0.34953703703703703,0.2824074074074074,1,0,0,6.685024599981261,number1,True,True,True,42,2,2019_Nov_21_1303,MA_Theta_Exp,3.0.7,59.982353189994434,
video/Experiment/zh_sp07_Dr_Gr_1_NoThetaInAudio_GlobalThetaInVideo.avi,noTheta,plusVideo,sp07,Dr,Gr,1,0,3,flow/blocks/NoThetaInAudio_GlobalThetaInVideo_B.csv,,,,,,,,,,,,,,,,,0,0,0,0,0,31,31,20,-0.36018518518518516,-0.28703703703703703,1,0,0,4.587072900001658,call4,0.023148148148148147,0.1337962962962963,1,0,0,5.187940999981947,colour2,0.45787037037037037,0.32546296296296295,1,0,0,5.837964300008025,number1,False,True,True,42,2,2019_Nov_21_1303,MA_Theta_Exp,3.0.7,59.982353189994434,
video/Experiment/zh_sp01_Ti_Ge_3_NVocInAudio_NoVideo.avi,vocoded,noVideo,sp01,Ti,Ge,3,1,2,flow/blocks/NVocInAudio_NoVideo_A.csv,,,,,,,,,,,,,,,,,0,1,1,1,0,0,0,18,-0.3712962962962963,-0.0912037037037037,1,0,0,5.706093399989186,call3,0.06481481481481481,0.33935185185185185,1,0,0,6.273894299985841,colour1,0.4300925925925926,-0.1037037037037037,1,0,0,6.891101799992612,number3,True,True,True,42,2,2019_Nov_21_1303,MA_Theta_Exp,3.0.7,59.982353189994434,
video/Experiment/zh_sp01_Un_Ge_2_NVocInAudio_NoVideo.avi,vocoded,noVideo,sp01,Un,Ge,2,1,2,flow/blocks/NVocInAudio_NoVideo_A.csv,,,,,,,,,,,,,,,,,0,1,1,1,0,1,1,17,-0.4185185185185185,-0.35509259259259257,1,0,0,5.227015000011306,call4,-0.031018518518518518,0.3087962962962963,1,0,0,5.924161800008733,colour1,0.43287037037037035,0.06018518518518518,1,0,0,6.411303700006101,number2,True,True,True,42,2,2019_Nov_21_1303,MA_Theta_Exp,3.0.7,59.982353189994434,
video/Experiment/zh_sp01_Ad_Ro_4_NVocInAudio_NoVideo.avi,vocoded,noVideo,sp01,Ad,Ro,4,1,2,flow/blocks/NVocInAudio_NoVideo_A.csv,,,,,,,,,,,,,,,,,0,1,1,1,0,2,2,11,-0.38796296296296295,0.2712962962962963,1,0,0,5.814038100012112,call1,0.04537037037037037,-0.06898148148148148,1,0,0,6.3661947999789845,colour3,0.4217592592592593,-0.33287037037037037,1,0,0,6.897513200005051,number4,True,True,True,42,2,2019_Nov_21_1303,MA_Theta_Exp,3.0.7,59.982353189994434,
video/Experiment/zh_sp01_Dr_Gr_3_NVocInAudio_NoVideo.avi,vocoded,noVideo,sp01,Dr,Gr,3,1,2,flow/blocks/NVocInAudio_NoVideo_A.csv,,,,,,,,,,,,,,,,,0,1,1,1,0,3,3,6,-0.37962962962962965,0.10462962962962963,1,0,0,5.249279200012097,call2,0.053703703703703705,0.056018518518518516,1,0,0,5.782299800019246,colour2,0.399537037037037,-0.10925925925925926,1,0,0,6.417501199990511,number3,True,True,True,42,2,2019_Nov_21_1303,MA_Theta_Exp,3.0.7,59.982353189994434,
video/Experiment/zh_sp07_Un_We_3_NVocInAudio_NoVideo.avi,vocoded,noVideo,sp07,Un,We,3,1,2,flow/blocks/NVocInAudio_NoVideo_A.csv,,,,,,,,,,,,,,,,,0,1,1,1,0,4,4,14,-0.3851851851851852,-0.26342592592592595,1,0,0,4.299125999998068,call4,-0.011574074074074073,-0.3453703703703704,1,0,0,4.814511400007177,colour4,0.4134259259259259,-0.17175925925925925,1,0,0,5.418067999999039,number3,True,True,True,42,2,2019_Nov_21_1303,MA_Theta_Exp,3.0.7,59.982353189994434,
video/Experiment/zh_sp01_Un_Ro_3_NVocInAudio_NoVideo.avi,vocoded,noVideo,sp01,Un,Ro,3,1,2,flow/blocks/NVocInAudio_NoVideo_A.csv,,,,,,,,,,,,,,,,,0,1,1,1,0,5,5,26,-0.4074074074074074,-0.29953703703703705,1,0,0,5.305048799986253,call4,0.038425925925925926,-0.1675925925925926,1,0,0,5.8081844999978784,colour3,0.37175925925925923,-0.14537037037037037,1,0,0,6.303735900000902,number3,True,True,True,42,2,2019_Nov_21_1303,MA_Theta_Exp,3.0.7,59.982353189994434,
video/Experiment/zh_sp07_Ad_Gr_3_NVocInAudio_NoVideo.avi,vocoded,noVideo,sp07,Ad,Gr,3,1,2,flow/blocks/NVocInAudio_NoVideo_A.csv,,,,,,,,,,,,,,,,,0,1,1,1,0,6,6,22,-0.425462962962963,0.26296296296296295,1,0,0,5.502128299995093,call1,0.02175925925925926,0.10740740740740741,1,0,0,6.117109600018011,colour2,0.4064814814814815,-0.10092592592592593,1,0,0,6.650808100006543,number3,True,True,True,42,2,2019_Nov_21_1303,MA_Theta_Exp,3.0.7,59.982353189994434,
video/Experiment/zh_sp01_Dr_Ge_4_NVocInAudio_NoVideo.avi,vocoded,noVideo,sp01,Dr,Ge,4,1,2,flow/blocks/NVocInAudio_NoVideo_A.csv,,,,,,,,,,,,,,,,,0,1,1,1,0,7,7,19,-0.37546296296296294,0.08101851851851852,1,0,0,5.739405499974964,call2,0.04814814814814815,0.34074074074074073,1,0,0,6.285479599988321,colour1,0.41064814814814815,-0.324537037037037,1,0,0,6.853556699992623,number4,True,True,True,42,2,2019_Nov_21_1303,MA_Theta_Exp,3.0.7,59.982353189994434,
video/Experiment/zh_sp01_Ti_We_4_NVocInAudio_NoVideo.avi,vocoded,noVideo,sp01,Ti,We,4,1,2,flow/blocks/NVocInAudio_NoVideo_A.csv,,,,,,,,,,,,,,,,,0,1,1,1,0,8,8,31,-0.3337962962962963,-0.13425925925925927,1,0,0,5.214906000008341,call3,0.00787037037037037,-0.3023148148148148,1,0,0,5.783110799995484,colour4,0.3662037037037037,-0.3773148148148148,1,0,0,6.293360799987568,number4,True,True,True,42,2,2019_Nov_21_1303,MA_Theta_Exp,3.0.7,59.982353189994434,
video/Experiment/zh_sp07_Un_Ge_3_NVocInAudio_NoVideo.avi,vocoded,noVideo,sp07,Un,Ge,3,1,2,flow/blocks/NVocInAudio_NoVideo_A.csv,,,,,,,,,,,,,,,,,0,1,1,1,0,9,9,2,-0.4074074074074074,-0.33564814814814814,1,0,0,4.879558900021948,call4,-0.03518518518518519,0.32685185185185184,1,0,0,5.642164700024296,colour1,0.35648148148148145,-0.09398148148148149,1,0,0,6.131017799983965,number3,True,True,True,42,2,2019_Nov_21_1303,MA_Theta_Exp,3.0.7,59.982353189994434,
video/Experiment/zh_sp07_Un_Ro_1_NVocInAudio_NoVideo.avi,vocoded,noVideo,sp07,Un,Ro,1,1,2,flow/blocks/NVocInAudio_NoVideo_A.csv,,,,,,,,,,,,,,,,,0,1,1,1,0,10,10,24,-0.3726851851851852,-0.31342592592592594,1,0,0,4.807763100019656,call4,0.038425925925925926,-0.11203703703703703,1,0,0,5.360439400014002,colour3,0.37453703703703706,0.3074074074074074,1,0,0,6.125095900002634,number1,True,True,True,42,2,2019_Nov_21_1303,MA_Theta_Exp,3.0.7,59.982353189994434,
video/Experiment/zh_sp07_Un_Gr_1_NVocInAudio_NoVideo.avi,vocoded,noVideo,sp07,Un,Gr,1,1,2,flow/blocks/NVocInAudio_NoVideo_A.csv,,,,,,,,,,,,,,,,,0,1,1,1,0,11,11,20,-0.40185185185185185,-0.3453703703703704,1,0,0,4.734914900007425,call4,0.052314814814814814,0.10046296296296296,1,0,0,5.304329700011294,colour2,0.4162037037037037,0.3476851851851852,1,0,0,5.935241400002269,number1,True,True,True,42,2,2019_Nov_21_1303,MA_Theta_Exp,3.0.7,59.982353189994434,
