videoFile,condition,video,speaker,callSign,colour,number,seq,id,block,exp.thisRepN,exp.thisTrialN,exp.thisN,exp.thisIndex,training.thisRepN,training.thisTrialN,training.thisN,training.thisIndex,firstHalf.thisRepN,firstHalf.thisTrialN,firstHalf.thisN,firstHalf.thisIndex,blocksA.thisRepN,blocksA.thisTrialN,blocksA.thisN,blocksA.thisIndex,mouseClickOnCall.x,mouseClickOnCall.y,mouseClickOnCall.leftButton,mouseClickOnCall.midButton,mouseClickOnCall.rightButton,mouseClickOnCall.time,mouseClickOnCall.clicked_name,mouseClickOnColour.x,mouseClickOnColour.y,mouseClickOnColour.leftButton,mouseClickOnColour.midButton,mouseClickOnColour.rightButton,mouseClickOnColour.time,mouseClickOnColour.clicked_name,mouseClickOnNumber.x,mouseClickOnNumber.y,mouseClickOnNumber.leftButton,mouseClickOnNumber.midButton,mouseClickOnNumber.rightButton,mouseClickOnNumber.time,mouseClickOnNumber.clicked_name,callSignCorrect,colourCorrect,numberCorrect,participant,order,date,expName,psychopyVersion,frameRate,
video/Training/zh_sp01_Ad_We_4_NVocInAudio_NoVideo.avi,vocoded,noVideo,sp01,Ad,We,4,,,,,,,,0,0,0,0,,,,,,,,,-0.4064814814814815,0.30277777777777776,1,0,0,5.781558899994707,call1,-0.001388888888888889,-0.3314814814814815,1,0,0,6.597765299986349,colour4,0.3912037037037037,-0.3458333333333333,1,0,0,7.2811808999977075,number4,True,True,True,43,3,2019_Nov_21_1405,MA_Theta_Exp,3.0.7,59.83466485591335,
video/Training/zh_sp07_Ad_Ge_3_NVocInAudio_NoVideo.avi,vocoded,noVideo,sp07,Ad,Ge,3,,,,,,,,0,1,1,1,,,,,,,,,-0.41712962962962963,0.30925925925925923,1,0,0,5.127975300012622,call1,-0.03287037037037037,0.2972222222222222,1,0,0,6.111361499992199,colour1,0.4111111111111111,-0.12175925925925926,1,0,0,6.947432000015397,number3,True,True,True,43,3,2019_Nov_21_1405,MA_Theta_Exp,3.0.7,59.83466485591335,
video/Training/zh_sp01_Dr_Ro_3_NVocInAudio_GlobalThetaInVideo.avi,vocoded,plusVideo,sp01,Dr,Ro,3,,,,,,,,0,2,2,2,,,,,,,,,-0.37962962962962965,0.1388888888888889,1,0,0,5.793495300022187,call2,-0.016666666666666666,-0.11018518518518519,1,0,0,6.462014000018826,colour3,0.4013888888888889,-0.13333333333333333,1,0,0,7.293318199983332,number3,True,True,True,43,3,2019_Nov_21_1405,MA_Theta_Exp,3.0.7,59.83466485591335,
video/Training/zh_sp07_Dr_Gr_4_NVocInAudio_GlobalThetaInVideo.avi,vocoded,plusVideo,sp07,Dr,Gr,4,,,,,,,,0,3,3,3,,,,,,,,,-0.3611111111111111,0.11712962962962963,1,0,0,5.25610470000538,call2,0.000925925925925926,0.11064814814814815,1,0,0,6.033881300012581,colour2,0.40370370370370373,-0.32175925925925924,1,0,0,6.722516899986658,number4,True,True,True,43,3,2019_Nov_21_1405,MA_Theta_Exp,3.0.7,59.83466485591335,
video/Training/zh_sp01_Ti_Gr_2_NoThetaInAudio_NoVideo.avi,noTheta,noVideo,sp01,Ti,Gr,2,,,,,,,,0,4,4,4,,,,,,,,,-0.39490740740740743,0.28379629629629627,1,0,0,7.643235099996673,call1,-0.03564814814814815,0.2712962962962963,1,0,0,8.459543299977668,colour1,0.3384259259259259,0.06944444444444445,1,0,0,9.211306999990484,number2,False,False,True,43,3,2019_Nov_21_1405,MA_Theta_Exp,3.0.7,59.83466485591335,
video/Training/zh_sp07_Ti_Ro_1_NoThetaInAudio_NoVideo.avi,noTheta,noVideo,sp07,Ti,Ro,1,,,,,,,,0,5,5,5,,,,,,,,,-0.3587962962962963,-0.27314814814814814,1,0,0,5.228887500008568,call4,0.028703703703703703,-0.125,1,0,0,6.322307099995669,colour3,0.42962962962962964,0.2865740740740741,1,0,0,8.157525599992368,number1,False,True,True,43,3,2019_Nov_21_1405,MA_Theta_Exp,3.0.7,59.83466485591335,
video/Training/zh_sp01_Un_Ge_1_NoThetaInAudio_GlobalThetaInVideo.avi,noTheta,plusVideo,sp01,Un,Ge,1,,,,,,,,0,6,6,6,,,,,,,,,-0.41203703703703703,-0.2851851851851852,1,0,0,5.543763599998783,call4,0.026851851851851852,0.2625,1,0,0,6.277256299974397,colour1,0.40694444444444444,0.2796296296296296,1,0,0,6.946866599988425,number1,True,True,True,43,3,2019_Nov_21_1405,MA_Theta_Exp,3.0.7,59.83466485591335,
video/Training/zh_sp07_Un_We_2_NoThetaInAudio_GlobalThetaInVideo.avi,noTheta,plusVideo,sp07,Un,We,2,,,,,,,,0,7,7,7,,,,,,,,,-0.3939814814814815,-0.28935185185185186,1,0,0,5.017559600004461,call4,0.0032407407407407406,0.29583333333333334,1,0,0,6.148844800016377,colour1,0.4111111111111111,0.1287037037037037,1,0,0,6.913223800016567,number2,True,False,True,43,3,2019_Nov_21_1405,MA_Theta_Exp,3.0.7,59.83466485591335,
video/Training/zh_sp01_Ad_Ge_1_GlobalTheta_NoVideo.avi,globalTheta,noVideo,sp01,Ad,Ge,1,,,,,,,,0,8,8,8,,,,,,,,,-0.3958333333333333,0.33194444444444443,1,0,0,5.529406199988443,call1,0.056018518518518516,0.32546296296296295,1,0,0,6.162178099999437,colour1,0.3574074074074074,0.2884259259259259,1,0,0,6.798481100006029,number1,True,True,True,43,3,2019_Nov_21_1405,MA_Theta_Exp,3.0.7,59.83466485591335,
video/Training/zh_sp07_Ad_Ro_3_GlobalTheta_NoVideo.avi,globalTheta,noVideo,sp07,Ad,Ro,3,,,,,,,,0,9,9,9,,,,,,,,,-0.4027777777777778,0.27037037037037037,1,0,0,4.839544299989939,call1,0.38657407407407407,-0.07314814814814814,1,0,0,6.373812299978454,colour3,0.3819444444444444,-0.10231481481481482,1,0,0,8.206115900014993,number3,True,True,True,43,3,2019_Nov_21_1405,MA_Theta_Exp,3.0.7,59.83466485591335,
video/Experiment/zh_sp07_Un_Gr_1_GlobalTheta_NoVideo.avi,globalTheta,noVideo,sp07,Un,Gr,1,0,5,flow/blocks/GlobalTheta_NoVideo_A.csv,,,,,,,,,0,0,0,0,0,0,0,20,-0.38981481481481484,-0.07731481481481481,1,0,0,5.239284099981887,call3,-0.006944444444444444,0.09398148148148149,1,0,0,6.2554719999898225,colour2,0.4148148148148148,0.3143518518518518,1,0,0,8.29134029999841,number1,False,True,True,43,3,2019_Nov_21_1405,MA_Theta_Exp,3.0.7,59.83466485591335,
video/Experiment/zh_sp01_Dr_We_2_GlobalTheta_NoVideo.avi,globalTheta,noVideo,sp01,Dr,We,2,0,5,flow/blocks/GlobalTheta_NoVideo_A.csv,,,,,,,,,0,0,0,0,0,1,1,13,-0.37777777777777777,0.28425925925925927,1,0,0,5.809808299993165,call1,-0.018055555555555554,-0.26944444444444443,1,0,0,7.544122799998149,colour4,0.41203703703703703,0.10925925925925926,1,0,0,8.174902899976587,number2,False,True,True,43,3,2019_Nov_21_1405,MA_Theta_Exp,3.0.7,59.83466485591335,
video/Experiment/zh_sp01_Ti_Ge_3_GlobalTheta_NoVideo.avi,globalTheta,noVideo,sp01,Ti,Ge,3,0,5,flow/blocks/GlobalTheta_NoVideo_A.csv,,,,,,,,,0,0,0,0,0,2,2,18,-0.4287037037037037,-0.08842592592592592,1,0,0,6.489744199992856,call3,-0.015277777777777777,0.32916666666666666,1,0,0,7.15927480001119,colour1,0.38287037037037036,-0.0912037037037037,1,0,0,8.122755500022322,number3,True,True,True,43,3,2019_Nov_21_1405,MA_Theta_Exp,3.0.7,59.83466485591335,
video/Experiment/zh_sp07_Ti_We_4_GlobalTheta_NoVideo.avi,globalTheta,noVideo,sp07,Ti,We,4,0,5,flow/blocks/GlobalTheta_NoVideo_A.csv,,,,,,,,,0,0,0,0,0,3,3,31,-0.4009259259259259,0.07777777777777778,1,0,0,5.534106100007193,call2,0.014814814814814815,-0.14166666666666666,1,0,0,6.363918399991235,colour3,0.3509259259259259,-0.30972222222222223,1,0,0,7.097612800018396,number4,False,False,True,43,3,2019_Nov_21_1405,MA_Theta_Exp,3.0.7,59.83466485591335,
video/Experiment/zh_sp07_Ti_Ge_4_GlobalTheta_NoVideo.avi,globalTheta,noVideo,sp07,Ti,Ge,4,0,5,flow/blocks/GlobalTheta_NoVideo_A.csv,,,,,,,,,0,0,0,0,0,4,4,3,-0.36898148148148147,-0.2652777777777778,1,0,0,5.3073851999943145,call4,0.027314814814814816,-0.26944444444444443,1,0,0,6.2921722999890335,colour4,0.35694444444444445,-0.1310185185185185,1,0,0,7.39319030000479,number3,False,False,False,43,3,2019_Nov_21_1405,MA_Theta_Exp,3.0.7,59.83466485591335,
video/Experiment/zh_sp07_Ti_Gr_4_GlobalTheta_NoVideo.avi,globalTheta,noVideo,sp07,Ti,Gr,4,0,5,flow/blocks/GlobalTheta_NoVideo_A.csv,,,,,,,,,0,0,0,0,0,5,5,7,-0.4046296296296296,-0.1398148148148148,1,0,0,5.172318400000222,call3,0.04027777777777778,0.09490740740740741,1,0,0,5.873242100002244,colour2,0.3773148148148148,-0.30185185185185187,1,0,0,6.9444688000075985,number4,True,True,True,43,3,2019_Nov_21_1405,MA_Theta_Exp,3.0.7,59.83466485591335,
video/Experiment/zh_sp07_Un_Ge_3_GlobalTheta_NoVideo.avi,globalTheta,noVideo,sp07,Un,Ge,3,0,5,flow/blocks/GlobalTheta_NoVideo_A.csv,,,,,,,,,0,0,0,0,0,6,6,2,-0.3912037037037037,-0.33287037037037037,1,0,0,7.410159100021701,call4,-0.0125,0.10138888888888889,1,0,0,8.27590069998405,colour2,0.40370370370370373,-0.13703703703703704,1,0,0,8.926599099999294,number3,True,False,True,43,3,2019_Nov_21_1405,MA_Theta_Exp,3.0.7,59.83466485591335,
video/Experiment/zh_sp01_Dr_Ge_4_GlobalTheta_NoVideo.avi,globalTheta,noVideo,sp01,Dr,Ge,4,0,5,flow/blocks/GlobalTheta_NoVideo_A.csv,,,,,,,,,0,0,0,0,0,7,7,19,-0.399537037037037,-0.2712962962962963,1,0,0,6.540103200008161,call4,-0.06759259259259259,0.34629629629629627,1,0,0,7.571493099996587,colour1,0.4310185185185185,-0.2222222222222222,1,0,0,8.440781700017396,number4,False,True,True,43,3,2019_Nov_21_1405,MA_Theta_Exp,3.0.7,59.83466485591335,
video/Experiment/zh_sp01_Ad_Ro_4_GlobalTheta_NoVideo.avi,globalTheta,noVideo,sp01,Ad,Ro,4,0,5,flow/blocks/GlobalTheta_NoVideo_A.csv,,,,,,,,,0,0,0,0,0,8,8,11,-0.38333333333333336,0.32592592592592595,1,0,0,5.520651500002714,call1,-0.007407407407407408,-0.15416666666666667,1,0,0,6.587621499988018,colour3,0.40925925925925927,-0.3384259259259259,1,0,0,7.587561499996809,number4,True,True,True,43,3,2019_Nov_21_1405,MA_Theta_Exp,3.0.7,59.83466485591335,
video/Experiment/zh_sp07_Dr_Ge_1_GlobalTheta_NoVideo.avi,globalTheta,noVideo,sp07,Dr,Ge,1,0,5,flow/blocks/GlobalTheta_NoVideo_A.csv,,,,,,,,,0,0,0,0,0,9,9,0,-0.4388888888888889,-0.300462962962963,1,0,0,6.753356700006407,call4,0.04212962962962963,-0.1412037037037037,1,0,0,7.670519899984356,colour3,0.3972222222222222,0.23703703703703705,1,0,0,8.405526799993822,number1,False,False,True,43,3,2019_Nov_21_1405,MA_Theta_Exp,3.0.7,59.83466485591335,
video/Experiment/zh_sp01_Un_Ge_2_GlobalTheta_NoVideo.avi,globalTheta,noVideo,sp01,Un,Ge,2,0,5,flow/blocks/GlobalTheta_NoVideo_A.csv,,,,,,,,,0,0,0,0,0,10,10,17,-0.4097222222222222,-0.325,1,0,0,5.274151999998139,call4,0.011574074074074073,0.2574074074074074,1,0,0,5.989046700007748,colour1,0.42777777777777776,0.09583333333333334,1,0,0,6.656587700010277,number2,True,True,True,43,3,2019_Nov_21_1405,MA_Theta_Exp,3.0.7,59.83466485591335,
video/Experiment/zh_sp01_Dr_Gr_3_GlobalTheta_NoVideo.avi,globalTheta,noVideo,sp01,Dr,Gr,3,0,5,flow/blocks/GlobalTheta_NoVideo_A.csv,,,,,,,,,0,0,0,0,0,11,11,6,-0.37453703703703706,-0.275,1,0,0,5.495342000009259,call4,0.046296296296296294,0.09074074074074075,1,0,0,6.158167700021295,colour2,0.36203703703703705,-0.09583333333333334,1,0,0,6.8270238999975845,number3,False,True,True,43,3,2019_Nov_21_1405,MA_Theta_Exp,3.0.7,59.83466485591335,
video/Experiment/zh_sp07_Ad_Ro_1_GlobalTheta_NoVideo.avi,globalTheta,noVideo,sp07,Ad,Ro,1,0,5,flow/blocks/GlobalTheta_NoVideo_A.csv,,,,,,,,,0,0,0,0,0,12,12,8,-0.3458333333333333,0.08703703703703704,1,0,0,5.2170138000219595,call2,-0.014351851851851852,0.10925925925925926,1,0,0,6.2635625999828335,colour2,0.36527777777777776,0.2564814814814815,1,0,0,7.049789299984695,number1,False,False,True,43,3,2019_Nov_21_1405,MA_Theta_Exp,3.0.7,59.83466485591335,
video/Experiment/zh_sp01_Un_We_1_GlobalTheta_NoVideo.avi,globalTheta,noVideo,sp01,Un,We,1,0,5,flow/blocks/GlobalTheta_NoVideo_A.csv,,,,,,,,,0,0,0,0,0,13,13,28,-0.3731481481481482,-0.25972222222222224,1,0,0,5.433941799972672,call4,-0.000462962962962963,-0.2611111111111111,1,0,0,6.188017999986187,colour4,0.4351851851851852,0.29814814814814816,1,0,0,7.166727200004971,number1,True,True,True,43,3,2019_Nov_21_1405,MA_Theta_Exp,3.0.7,59.83466485591335,
video/Experiment/zh_sp07_Ti_Ge_2_GlobalTheta_NoVideo.avi,globalTheta,noVideo,sp07,Ti,Ge,2,0,5,flow/blocks/GlobalTheta_NoVideo_A.csv,,,,,,,,,0,0,0,0,0,14,14,1,-0.4101851851851852,-0.12314814814814815,1,0,0,6.018175000004703,call3,-0.019444444444444445,0.2847222222222222,1,0,0,6.982423200010089,colour1,0.44027777777777777,0.09861111111111111,1,0,0,8.582736300013494,number2,True,True,True,43,3,2019_Nov_21_1405,MA_Theta_Exp,3.0.7,59.83466485591335,
video/Experiment/zh_sp01_Ti_Ro_3_GlobalTheta_NoVideo.avi,globalTheta,noVideo,sp01,Ti,Ro,3,0,5,flow/blocks/GlobalTheta_NoVideo_A.csv,,,,,,,,,0,0,0,0,0,15,15,10,-0.39675925925925926,0.25046296296296294,1,0,0,7.704092400002992,call1,-0.06157407407407407,0.2847222222222222,1,0,0,8.38878609999665,colour1,0.3902777777777778,-0.10416666666666667,1,0,0,9.421641099994304,number3,False,False,True,43,3,2019_Nov_21_1405,MA_Theta_Exp,3.0.7,59.83466485591335,
video/Experiment/zh_sp01_Dr_Ro_4_GlobalTheta_NoVideo.avi,globalTheta,noVideo,sp01,Dr,Ro,4,0,5,flow/blocks/GlobalTheta_NoVideo_A.csv,,,,,,,,,0,0,0,0,0,16,16,27,-0.3972222222222222,-0.24814814814814815,1,0,0,5.639152100018691,call4,-0.037037037037037035,-0.11064814814814815,1,0,0,6.538726300001144,colour3,0.3912037037037037,-0.3337962962962963,1,0,0,7.381709100009175,number4,False,True,True,43,3,2019_Nov_21_1405,MA_Theta_Exp,3.0.7,59.83466485591335,
video/Experiment/zh_sp01_Ad_We_1_GlobalTheta_NoVideo.avi,globalTheta,noVideo,sp01,Ad,We,1,0,5,flow/blocks/GlobalTheta_NoVideo_A.csv,,,,,,,,,0,0,0,0,0,17,17,12,-0.3699074074074074,0.2814814814814815,1,0,0,6.394929200003389,call1,0.025925925925925925,-0.23194444444444445,1,0,0,7.362822700000834,colour4,0.38472222222222224,0.35185185185185186,1,0,0,8.427805399987847,number1,True,True,True,43,3,2019_Nov_21_1405,MA_Theta_Exp,3.0.7,59.83466485591335,
video/Experiment/zh_sp01_Dr_Gr_2_GlobalTheta_NoVideo.avi,globalTheta,noVideo,sp01,Dr,Gr,2,0,5,flow/blocks/GlobalTheta_NoVideo_A.csv,,,,,,,,,0,0,0,0,0,18,18,5,-0.3990740740740741,-0.3458333333333333,1,0,0,6.281140000006417,call4,-0.04953703703703704,0.038425925925925926,1,0,0,7.1585072000161745,colour2,0.475462962962963,0.0699074074074074,1,0,0,7.976739599980647,number2,False,True,True,43,3,2019_Nov_21_1405,MA_Theta_Exp,3.0.7,59.83466485591335,
video/Experiment/zh_sp01_Ad_We_2_GlobalTheta_NoVideo.avi,globalTheta,noVideo,sp01,Ad,We,2,0,5,flow/blocks/GlobalTheta_NoVideo_A.csv,,,,,,,,,0,0,0,0,0,19,19,29,-0.412962962962963,0.31805555555555554,1,0,0,5.358790300000692,call1,0.006481481481481481,0.09768518518518518,1,0,0,6.235801599978004,colour2,0.4,0.11157407407407408,1,0,0,6.998832299985224,number2,True,False,True,43,3,2019_Nov_21_1405,MA_Theta_Exp,3.0.7,59.83466485591335,
video/Experiment/zh_sp01_Un_We_3_GlobalTheta_NoVideo.avi,globalTheta,noVideo,sp01,Un,We,3,0,5,flow/blocks/GlobalTheta_NoVideo_A.csv,,,,,,,,,0,0,0,0,0,20,20,14,-0.3851851851851852,-0.11296296296296296,1,0,0,5.345932299998822,call3,-0.031018518518518518,-0.2791666666666667,1,0,0,6.078629399999045,colour4,0.3907407407407407,-0.10462962962962963,1,0,0,6.850633699999889,number3,False,True,True,43,3,2019_Nov_21_1405,MA_Theta_Exp,3.0.7,59.83466485591335,
video/Experiment/zh_sp07_Ti_Ro_2_GlobalTheta_NoVideo.avi,globalTheta,noVideo,sp07,Ti,Ro,2,0,5,flow/blocks/GlobalTheta_NoVideo_A.csv,,,,,,,,,0,0,0,0,0,21,21,25,-0.38425925925925924,-0.10277777777777777,1,0,0,5.642602900014026,call3,0.007407407407407408,0.1388888888888889,1,0,0,6.978858200018294,colour2,0.39675925925925926,0.12962962962962962,1,0,0,8.347234299988486,number2,True,False,True,43,3,2019_Nov_21_1405,MA_Theta_Exp,3.0.7,59.83466485591335,
video/Experiment/zh_sp01_Ti_Ge_1_GlobalTheta_NoVideo.avi,globalTheta,noVideo,sp01,Ti,Ge,1,0,5,flow/blocks/GlobalTheta_NoVideo_A.csv,,,,,,,,,0,0,0,0,0,22,22,16,-0.39861111111111114,0.30185185185185187,1,0,0,5.742278100020485,call1,0.01712962962962963,0.25972222222222224,1,0,0,6.626002099976176,colour1,0.37916666666666665,0.30277777777777776,1,0,0,7.549178699991899,number1,False,True,True,43,3,2019_Nov_21_1405,MA_Theta_Exp,3.0.7,59.83466485591335,
video/Experiment/zh_sp07_Dr_Ro_2_GlobalTheta_NoVideo.avi,globalTheta,noVideo,sp07,Dr,Ro,2,0,5,flow/blocks/GlobalTheta_NoVideo_A.csv,,,,,,,,,0,0,0,0,0,23,23,9,-0.36064814814814816,-0.10185185185185185,1,0,0,5.1670553000003565,call3,-0.007407407407407408,-0.12314814814814815,1,0,0,6.016977399995085,colour3,0.4083333333333333,0.07777777777777778,1,0,0,6.7953466000035405,number2,False,True,True,43,3,2019_Nov_21_1405,MA_Theta_Exp,3.0.7,59.83466485591335,
video/Experiment/zh_sp07_Ad_Gr_1_GlobalTheta_NoVideo.avi,globalTheta,noVideo,sp07,Ad,Gr,1,0,5,flow/blocks/GlobalTheta_NoVideo_A.csv,,,,,,,,,0,0,0,0,0,24,24,4,-0.3907407407407407,-0.27824074074074073,1,0,0,6.592228900000919,call4,0.06527777777777778,0.11018518518518519,1,0,0,7.464970200002426,colour2,0.4601851851851852,0.33240740740740743,1,0,0,8.245329299999867,number1,False,True,True,43,3,2019_Nov_21_1405,MA_Theta_Exp,3.0.7,59.83466485591335,
video/Experiment/zh_sp07_Un_We_4_GlobalTheta_NoVideo.avi,globalTheta,noVideo,sp07,Un,We,4,0,5,flow/blocks/GlobalTheta_NoVideo_A.csv,,,,,,,,,0,0,0,0,0,25,25,15,-0.38564814814814813,-0.3578703703703704,1,0,0,5.566192199999932,call4,-0.004629629629629629,0.14212962962962963,1,0,0,6.315937899984419,colour2,0.41898148148148145,-0.0962962962962963,1,0,0,7.050634199986234,number3,True,False,False,43,3,2019_Nov_21_1405,MA_Theta_Exp,3.0.7,59.83466485591335,
video/Experiment/zh_sp07_Ad_Gr_3_GlobalTheta_NoVideo.avi,globalTheta,noVideo,sp07,Ad,Gr,3,0,5,flow/blocks/GlobalTheta_NoVideo_A.csv,,,,,,,,,0,0,0,0,0,26,26,22,-0.3800925925925926,0.31666666666666665,1,0,0,4.72458340000594,call1,0.016203703703703703,0.07731481481481481,1,0,0,5.407609899993986,colour2,0.4263888888888889,-0.31712962962962965,1,0,0,6.057920199993532,number4,True,True,False,43,3,2019_Nov_21_1405,MA_Theta_Exp,3.0.7,59.83466485591335,
video/Experiment/zh_sp01_Un_Ro_3_GlobalTheta_NoVideo.avi,globalTheta,noVideo,sp01,Un,Ro,3,0,5,flow/blocks/GlobalTheta_NoVideo_A.csv,,,,,,,,,0,0,0,0,0,27,27,26,-0.33796296296296297,0.07083333333333333,1,0,0,5.245048800017685,call2,-0.016203703703703703,-0.13240740740740742,1,0,0,5.912493100011488,colour3,0.4078703703703704,-0.14444444444444443,1,0,0,7.379625799978385,number3,False,True,True,43,3,2019_Nov_21_1405,MA_Theta_Exp,3.0.7,59.83466485591335,
video/Experiment/zh_sp07_Dr_Gr_4_GlobalTheta_NoVideo.avi,globalTheta,noVideo,sp07,Dr,Gr,4,0,5,flow/blocks/GlobalTheta_NoVideo_A.csv,,,,,,,,,0,0,0,0,0,28,28,23,-0.3773148148148148,-0.28055555555555556,1,0,0,4.9040317999897525,call4,0.02546296296296296,-0.34444444444444444,1,0,0,5.539534200011985,colour4,0.3925925925925926,-0.12546296296296297,1,0,0,6.9703300000110175,number3,False,False,False,43,3,2019_Nov_21_1405,MA_Theta_Exp,3.0.7,59.83466485591335,
video/Experiment/zh_sp01_Ad_We_3_GlobalTheta_NoVideo.avi,globalTheta,noVideo,sp01,Ad,We,3,0,5,flow/blocks/GlobalTheta_NoVideo_A.csv,,,,,,,,,0,0,0,0,0,29,29,30,-0.3875,0.29398148148148145,1,0,0,5.389553600020008,call1,-0.014351851851851852,-0.25555555555555554,1,0,0,6.108802200003993,colour4,0.37777777777777777,-0.12037037037037036,1,0,0,6.80607880000025,number3,True,True,True,43,3,2019_Nov_21_1405,MA_Theta_Exp,3.0.7,59.83466485591335,
video/Experiment/zh_sp07_Un_Ro_1_GlobalTheta_NoVideo.avi,globalTheta,noVideo,sp07,Un,Ro,1,0,5,flow/blocks/GlobalTheta_NoVideo_A.csv,,,,,,,,,0,0,0,0,0,30,30,24,-0.37083333333333335,-0.11944444444444445,1,0,0,7.266626600001473,call3,-0.0032407407407407406,-0.3111111111111111,1,0,0,8.17928920002305,colour4,0.36666666666666664,0.10231481481481482,1,0,0,9.139184400002705,number2,False,False,False,43,3,2019_Nov_21_1405,MA_Theta_Exp,3.0.7,59.83466485591335,
video/Experiment/zh_sp07_Ad_Gr_2_GlobalTheta_NoVideo.avi,globalTheta,noVideo,sp07,Ad,Gr,2,0,5,flow/blocks/GlobalTheta_NoVideo_A.csv,,,,,,,,,0,0,0,0,0,31,31,21,-0.4199074074074074,-0.29212962962962963,1,0,0,4.959253099979833,call4,0.0125,0.08611111111111111,1,0,0,5.726218999974662,colour2,0.4398148148148148,0.09305555555555556,1,0,0,6.442827299993951,number2,False,True,True,43,3,2019_Nov_21_1405,MA_Theta_Exp,3.0.7,59.83466485591335,
