videoFile,condition,video,speaker,callSign,colour,number,seq,id,block,exp.thisRepN,exp.thisTrialN,exp.thisN,exp.thisIndex,training.thisRepN,training.thisTrialN,training.thisN,training.thisIndex,firstHalf.thisRepN,firstHalf.thisTrialN,firstHalf.thisN,firstHalf.thisIndex,blocksA.thisRepN,blocksA.thisTrialN,blocksA.thisN,blocksA.thisIndex,mouseClickOnCall.x,mouseClickOnCall.y,mouseClickOnCall.leftButton,mouseClickOnCall.midButton,mouseClickOnCall.rightButton,mouseClickOnCall.time,mouseClickOnCall.clicked_name,mouseClickOnColour.x,mouseClickOnColour.y,mouseClickOnColour.leftButton,mouseClickOnColour.midButton,mouseClickOnColour.rightButton,mouseClickOnColour.time,mouseClickOnColour.clicked_name,mouseClickOnNumber.x,mouseClickOnNumber.y,mouseClickOnNumber.leftButton,mouseClickOnNumber.midButton,mouseClickOnNumber.rightButton,mouseClickOnNumber.time,mouseClickOnNumber.clicked_name,callSignCorrect,colourCorrect,numberCorrect,participant,order,date,expName,psychopyVersion,frameRate,
video/Training/zh_sp01_Ad_We_4_NVocInAudio_NoVideo.avi,vocoded,noVideo,sp01,Ad,We,4,,,,,,,,0,0,0,0,,,,,,,,,-0.4166666666666667,0.3236111111111111,1,0,0,5.931570000000647,call1,-0.006944444444444444,-0.3472222222222222,1,0,0,7.39393199999904,colour4,0.39444444444444443,-0.3333333333333333,1,0,0,8.698334500004421,number4,True,True,True,4,4,2019_Nov_11_1011,MA_Theta_Exp,3.0.7,59.76407533651729,
video/Training/zh_sp07_Ad_Ge_3_NVocInAudio_NoVideo.avi,vocoded,noVideo,sp07,Ad,Ge,3,,,,,,,,0,1,1,1,,,,,,,,,-0.43472222222222223,0.3194444444444444,1,0,0,5.160459999999148,call1,0.002777777777777778,0.30833333333333335,1,0,0,5.950296000002709,colour1,0.3680555555555556,-0.12777777777777777,1,0,0,7.013667700004589,number3,True,True,True,4,4,2019_Nov_11_1011,MA_Theta_Exp,3.0.7,59.76407533651729,
video/Training/zh_sp01_Dr_Ro_3_NVocInAudio_GlobalThetaInVideo.avi,vocoded,plusVideo,sp01,Dr,Ro,3,,,,,,,,0,2,2,2,,,,,,,,,-0.4263888888888889,0.11666666666666667,1,0,0,6.555793699997594,call2,-0.027777777777777776,-0.09166666666666666,1,0,0,7.6961194000032265,colour3,0.41388888888888886,-0.1486111111111111,1,0,0,8.395800600002985,number3,True,True,True,4,4,2019_Nov_11_1011,MA_Theta_Exp,3.0.7,59.76407533651729,
video/Training/zh_sp07_Dr_Gr_4_NVocInAudio_GlobalThetaInVideo.avi,vocoded,plusVideo,sp07,Dr,Gr,4,,,,,,,,0,3,3,3,,,,,,,,,-0.4166666666666667,0.09444444444444444,1,0,0,4.5145456999962335,call2,-0.011111111111111112,0.09027777777777778,1,0,0,5.048584899996058,colour2,0.3388888888888889,-0.25,1,0,0,5.667221299998346,number4,True,True,True,4,4,2019_Nov_11_1011,MA_Theta_Exp,3.0.7,59.76407533651729,
video/Training/zh_sp01_Ti_Gr_2_NoThetaInAudio_NoVideo.avi,noTheta,noVideo,sp01,Ti,Gr,2,,,,,,,,0,4,4,4,,,,,,,,,-0.425,0.30277777777777776,1,0,0,5.739524799995706,call1,-0.009722222222222222,0.06388888888888888,1,0,0,6.956782799999928,colour2,0.4388888888888889,0.07361111111111111,1,0,0,7.586454299998877,number2,False,True,True,4,4,2019_Nov_11_1011,MA_Theta_Exp,3.0.7,59.76407533651729,
video/Training/zh_sp07_Ti_Ro_1_NoThetaInAudio_NoVideo.avi,noTheta,noVideo,sp07,Ti,Ro,1,,,,,,,,0,5,5,5,,,,,,,,,-0.4111111111111111,-0.07222222222222222,1,0,0,5.092025300000387,call3,0.0125,0.09305555555555556,1,0,0,7.747153199998138,colour2,0.4305555555555556,0.28888888888888886,1,0,0,8.332011899998179,number1,True,False,True,4,4,2019_Nov_11_1011,MA_Theta_Exp,3.0.7,59.76407533651729,
video/Training/zh_sp01_Un_Ge_1_NoThetaInAudio_GlobalThetaInVideo.avi,noTheta,plusVideo,sp01,Un,Ge,1,,,,,,,,0,6,6,6,,,,,,,,,-0.36666666666666664,0.1361111111111111,1,0,0,5.290340499996091,call2,0.02361111111111111,0.3194444444444444,1,0,0,6.507264799998666,colour1,0.3611111111111111,0.14027777777777778,1,0,0,7.285860200005118,number2,False,True,False,4,4,2019_Nov_11_1011,MA_Theta_Exp,3.0.7,59.76407533651729,
video/Training/zh_sp07_Un_We_2_NoThetaInAudio_GlobalThetaInVideo.avi,noTheta,plusVideo,sp07,Un,We,2,,,,,,,,0,7,7,7,,,,,,,,,-0.40555555555555556,0.16666666666666666,1,0,0,4.731546299997717,call2,-0.009722222222222222,0.11805555555555555,1,0,0,6.748139100003755,colour2,0.4736111111111111,0.09444444444444444,1,0,0,7.2981156000023475,number2,False,False,True,4,4,2019_Nov_11_1011,MA_Theta_Exp,3.0.7,59.76407533651729,
video/Training/zh_sp01_Ad_Ge_1_GlobalTheta_NoVideo.avi,globalTheta,noVideo,sp01,Ad,Ge,1,,,,,,,,0,8,8,8,,,,,,,,,-0.3680555555555556,0.28055555555555556,1,0,0,5.9124239000011585,call1,0.006944444444444444,0.3236111111111111,1,0,0,6.458223399997223,colour1,0.39444444444444443,0.3263888888888889,1,0,0,6.941101199998229,number1,True,True,True,4,4,2019_Nov_11_1011,MA_Theta_Exp,3.0.7,59.76407533651729,
video/Training/zh_sp07_Ad_Ro_3_GlobalTheta_NoVideo.avi,globalTheta,noVideo,sp07,Ad,Ro,3,,,,,,,,0,9,9,9,,,,,,,,,-0.38472222222222224,0.28888888888888886,1,0,0,4.5018464000022504,call1,-0.020833333333333332,-0.15,1,0,0,6.22713620000286,colour3,0.39305555555555555,-0.044444444444444446,1,0,0,7.10636230000091,number3,True,True,True,4,4,2019_Nov_11_1011,MA_Theta_Exp,3.0.7,59.76407533651729,
video/Experiment/zh_sp01_Dr_We_2_NVocInAudio_GlobalThetaInVideo.avi,vocoded,plusVideo,sp01,Dr,We,2,0,1,flow/blocks/NVocInAudio_GlobalThetaInVideo_A.csv,,,,,,,,,0,0,0,0,0,0,0,29,-0.4,0.09861111111111111,1,0,0,5.816450499994971,call2,-0.020833333333333332,-0.3638888888888889,1,0,0,7.018620199996803,colour4,0.48333333333333334,0.11666666666666667,1,0,0,7.7641551999986405,number2,True,True,True,4,4,2019_Nov_11_1011,MA_Theta_Exp,3.0.7,59.76407533651729,
video/Experiment/zh_sp01_Ad_We_2_NVocInAudio_GlobalThetaInVideo.avi,vocoded,plusVideo,sp01,Ad,We,2,0,1,flow/blocks/NVocInAudio_GlobalThetaInVideo_A.csv,,,,,,,,,0,0,0,0,0,1,1,13,-0.3875,0.3194444444444444,1,0,0,5.2569266999998945,call1,0.008333333333333333,-0.23333333333333334,1,0,0,6.391517699994438,colour4,0.41805555555555557,0.11944444444444445,1,0,0,7.275798300004681,number2,True,True,True,4,4,2019_Nov_11_1011,MA_Theta_Exp,3.0.7,59.76407533651729,
video/Experiment/zh_sp01_Ad_Ge_4_NVocInAudio_GlobalThetaInVideo.avi,vocoded,plusVideo,sp01,Ad,Ge,4,0,1,flow/blocks/NVocInAudio_GlobalThetaInVideo_A.csv,,,,,,,,,0,0,0,0,0,2,2,3,-0.42777777777777776,0.3194444444444444,1,0,0,5.146101800004544,call1,0.016666666666666666,0.2777777777777778,1,0,0,7.81550160000188,colour1,0.39861111111111114,-0.3625,1,0,0,8.627298699997482,number4,True,True,True,4,4,2019_Nov_11_1011,MA_Theta_Exp,3.0.7,59.76407533651729,
video/Experiment/zh_sp01_Dr_Ro_2_NVocInAudio_GlobalThetaInVideo.avi,vocoded,plusVideo,sp01,Dr,Ro,2,0,1,flow/blocks/NVocInAudio_GlobalThetaInVideo_A.csv,,,,,,,,,0,0,0,0,0,3,3,25,-0.3902777777777778,0.08611111111111111,1,0,0,5.498901300001307,call2,-0.009722222222222222,-0.14444444444444443,1,0,0,6.179164799999853,colour3,0.3902777777777778,0.034722222222222224,1,0,0,6.75136460000067,number2,True,True,True,4,4,2019_Nov_11_1011,MA_Theta_Exp,3.0.7,59.76407533651729,
video/Experiment/zh_sp07_Ad_Ro_4_NVocInAudio_GlobalThetaInVideo.avi,vocoded,plusVideo,sp07,Ad,Ro,4,0,1,flow/blocks/NVocInAudio_GlobalThetaInVideo_A.csv,,,,,,,,,0,0,0,0,0,4,4,11,-0.4305555555555556,0.3347222222222222,1,0,0,4.563173500006087,call1,-0.043055555555555555,-0.14583333333333334,1,0,0,5.310100099995907,colour3,0.46111111111111114,-0.3680555555555556,1,0,0,5.9989789000028395,number4,True,True,True,4,4,2019_Nov_11_1011,MA_Theta_Exp,3.0.7,59.76407533651729,
video/Experiment/zh_sp07_Dr_Ge_3_NVocInAudio_GlobalThetaInVideo.avi,vocoded,plusVideo,sp07,Dr,Ge,3,0,1,flow/blocks/NVocInAudio_GlobalThetaInVideo_A.csv,,,,,,,,,0,0,0,0,0,5,5,18,-0.3958333333333333,0.058333333333333334,1,0,0,4.5982365000018035,call2,0.009722222222222222,0.32916666666666666,1,0,0,5.213839800002461,colour1,0.4263888888888889,-0.0763888888888889,1,0,0,5.880017999996198,number3,True,True,True,4,4,2019_Nov_11_1011,MA_Theta_Exp,3.0.7,59.76407533651729,
video/Experiment/zh_sp07_Ad_Ge_1_NVocInAudio_GlobalThetaInVideo.avi,vocoded,plusVideo,sp07,Ad,Ge,1,0,1,flow/blocks/NVocInAudio_GlobalThetaInVideo_A.csv,,,,,,,,,0,0,0,0,0,6,6,0,-0.3972222222222222,0.30972222222222223,1,0,0,4.363267200002156,call1,0.030555555555555555,0.29444444444444445,1,0,0,5.043217400001595,colour1,0.3958333333333333,0.3486111111111111,1,0,0,5.500015500001609,number1,True,True,True,4,4,2019_Nov_11_1011,MA_Theta_Exp,3.0.7,59.76407533651729,
video/Experiment/zh_sp01_Dr_Gr_2_NVocInAudio_GlobalThetaInVideo.avi,vocoded,plusVideo,sp01,Dr,Gr,2,0,1,flow/blocks/NVocInAudio_GlobalThetaInVideo_A.csv,,,,,,,,,0,0,0,0,0,7,7,21,-0.44027777777777777,0.1111111111111111,1,0,0,5.32336000000214,call2,-0.004166666666666667,0.12222222222222222,1,0,0,6.293440200002806,colour2,0.43194444444444446,0.13333333333333333,1,0,0,6.773797299996659,number2,True,True,True,4,4,2019_Nov_11_1011,MA_Theta_Exp,3.0.7,59.76407533651729,
video/Experiment/zh_sp07_Ad_Ro_1_NVocInAudio_GlobalThetaInVideo.avi,vocoded,plusVideo,sp07,Ad,Ro,1,0,1,flow/blocks/NVocInAudio_GlobalThetaInVideo_A.csv,,,,,,,,,0,0,0,0,0,8,8,8,-0.45416666666666666,0.3055555555555556,1,0,0,4.135454399998707,call1,0.030555555555555555,-0.14722222222222223,1,0,0,4.806337499998335,colour3,0.4152777777777778,0.33055555555555555,1,0,0,5.4731402000033995,number1,True,True,True,4,4,2019_Nov_11_1011,MA_Theta_Exp,3.0.7,59.76407533651729,
video/Experiment/zh_sp07_Ad_Ro_3_NVocInAudio_GlobalThetaInVideo.avi,vocoded,plusVideo,sp07,Ad,Ro,3,0,1,flow/blocks/NVocInAudio_GlobalThetaInVideo_A.csv,,,,,,,,,0,0,0,0,0,9,9,10,-0.44027777777777777,0.32222222222222224,1,0,0,4.626954899998964,call1,0.008333333333333333,-0.1,1,0,0,5.308841300000495,colour3,0.4305555555555556,-0.12361111111111112,1,0,0,5.858951499998511,number3,True,True,True,4,4,2019_Nov_11_1011,MA_Theta_Exp,3.0.7,59.76407533651729,
video/Experiment/zh_sp07_Dr_Ge_4_NVocInAudio_GlobalThetaInVideo.avi,vocoded,plusVideo,sp07,Dr,Ge,4,0,1,flow/blocks/NVocInAudio_GlobalThetaInVideo_A.csv,,,,,,,,,0,0,0,0,0,10,10,19,-0.4375,0.11527777777777778,1,0,0,4.748045200001798,call2,-0.03194444444444444,0.10972222222222222,1,0,0,5.56353140000283,colour2,0.4013888888888889,-0.28888888888888886,1,0,0,6.1984178000057,number4,True,False,True,4,4,2019_Nov_11_1011,MA_Theta_Exp,3.0.7,59.76407533651729,
video/Experiment/zh_sp01_Ad_Gr_4_NVocInAudio_GlobalThetaInVideo.avi,vocoded,plusVideo,sp01,Ad,Gr,4,0,1,flow/blocks/NVocInAudio_GlobalThetaInVideo_A.csv,,,,,,,,,0,0,0,0,0,11,11,7,-0.41388888888888886,0.3638888888888889,1,0,0,5.210965999998734,call1,-0.009722222222222222,0.14583333333333334,1,0,0,5.789939300004335,colour2,0.3763888888888889,-0.30694444444444446,1,0,0,6.372458499994536,number4,True,True,True,4,4,2019_Nov_11_1011,MA_Theta_Exp,3.0.7,59.76407533651729,
video/Experiment/zh_sp01_Dr_Ro_3_NVocInAudio_GlobalThetaInVideo.avi,vocoded,plusVideo,sp01,Dr,Ro,3,0,1,flow/blocks/NVocInAudio_GlobalThetaInVideo_A.csv,,,,,,,,,0,0,0,0,0,12,12,26,-0.3902777777777778,0.16111111111111112,1,0,0,5.079046099999687,call2,0.0,-0.10833333333333334,1,0,0,5.713747699999658,colour3,0.4375,-0.1,1,0,0,6.359406999996281,number3,True,True,True,4,4,2019_Nov_11_1011,MA_Theta_Exp,3.0.7,59.76407533651729,
video/Experiment/zh_sp07_Dr_Gr_3_NVocInAudio_GlobalThetaInVideo.avi,vocoded,plusVideo,sp07,Dr,Gr,3,0,1,flow/blocks/NVocInAudio_GlobalThetaInVideo_A.csv,,,,,,,,,0,0,0,0,0,13,13,22,-0.3819444444444444,0.07361111111111111,1,0,0,4.587668500003929,call2,0.0,0.10555555555555556,1,0,0,5.100444600000628,colour2,0.4791666666666667,-0.12777777777777777,1,0,0,5.822740199997497,number3,True,True,True,4,4,2019_Nov_11_1011,MA_Theta_Exp,3.0.7,59.76407533651729,
video/Experiment/zh_sp07_Dr_Ro_1_NVocInAudio_GlobalThetaInVideo.avi,vocoded,plusVideo,sp07,Dr,Ro,1,0,1,flow/blocks/NVocInAudio_GlobalThetaInVideo_A.csv,,,,,,,,,0,0,0,0,0,14,14,24,-0.3875,0.1111111111111111,1,0,0,4.368391600000905,call2,-0.027777777777777776,-0.08611111111111111,1,0,0,4.919049199997971,colour3,0.41388888888888886,0.3402777777777778,1,0,0,5.622686200003955,number1,True,True,True,4,4,2019_Nov_11_1011,MA_Theta_Exp,3.0.7,59.76407533651729,
video/Experiment/zh_sp01_Ad_We_3_NVocInAudio_GlobalThetaInVideo.avi,vocoded,plusVideo,sp01,Ad,We,3,0,1,flow/blocks/NVocInAudio_GlobalThetaInVideo_A.csv,,,,,,,,,0,0,0,0,0,15,15,14,-0.4083333333333333,0.3236111111111111,1,0,0,5.38622540000506,call1,0.025,-0.3527777777777778,1,0,0,6.157893300005526,colour4,0.40694444444444444,-0.13194444444444445,1,0,0,6.763230600001407,number3,True,True,True,4,4,2019_Nov_11_1011,MA_Theta_Exp,3.0.7,59.76407533651729,
video/Experiment/zh_sp01_Dr_Ge_2_NVocInAudio_GlobalThetaInVideo.avi,vocoded,plusVideo,sp01,Dr,Ge,2,0,1,flow/blocks/NVocInAudio_GlobalThetaInVideo_A.csv,,,,,,,,,0,0,0,0,0,16,16,17,-0.3819444444444444,0.07361111111111111,1,0,0,8.087567099995795,call2,0.020833333333333332,0.06805555555555555,1,0,0,8.565152700000908,colour2,0.4583333333333333,0.08333333333333333,1,0,0,8.964775799999188,number2,True,False,True,4,4,2019_Nov_11_1011,MA_Theta_Exp,3.0.7,59.76407533651729,
video/Experiment/zh_sp07_Dr_We_3_NVocInAudio_GlobalThetaInVideo.avi,vocoded,plusVideo,sp07,Dr,We,3,0,1,flow/blocks/NVocInAudio_GlobalThetaInVideo_A.csv,,,,,,,,,0,0,0,0,0,17,17,30,-0.3611111111111111,0.1111111111111111,1,0,0,4.557776900001045,call2,-0.05277777777777778,-0.30694444444444446,1,0,0,5.215409799995541,colour4,0.4166666666666667,-0.16111111111111112,1,0,0,5.749519600001804,number3,True,True,True,4,4,2019_Nov_11_1011,MA_Theta_Exp,3.0.7,59.76407533651729,
video/Experiment/zh_sp07_Ad_We_1_NVocInAudio_GlobalThetaInVideo.avi,vocoded,plusVideo,sp07,Ad,We,1,0,1,flow/blocks/NVocInAudio_GlobalThetaInVideo_A.csv,,,,,,,,,0,0,0,0,0,18,18,12,-0.4041666666666667,0.3347222222222222,1,0,0,4.452642199998081,call1,-0.005555555555555556,-0.3763888888888889,1,0,0,5.188798800001678,colour4,0.42916666666666664,0.375,1,0,0,5.90352040000289,number1,True,True,True,4,4,2019_Nov_11_1011,MA_Theta_Exp,3.0.7,59.76407533651729,
video/Experiment/zh_sp07_Ad_Gr_1_NVocInAudio_GlobalThetaInVideo.avi,vocoded,plusVideo,sp07,Ad,Gr,1,0,1,flow/blocks/NVocInAudio_GlobalThetaInVideo_A.csv,,,,,,,,,0,0,0,0,0,19,19,4,-0.37777777777777777,0.2847222222222222,1,0,0,4.539185699999507,call1,0.0,0.06666666666666667,1,0,0,5.140669100001105,colour2,0.4097222222222222,0.2875,1,0,0,5.756581699999515,number1,True,True,True,4,4,2019_Nov_11_1011,MA_Theta_Exp,3.0.7,59.76407533651729,
video/Experiment/zh_sp01_Dr_Gr_1_NVocInAudio_GlobalThetaInVideo.avi,vocoded,plusVideo,sp01,Dr,Gr,1,0,1,flow/blocks/NVocInAudio_GlobalThetaInVideo_A.csv,,,,,,,,,0,0,0,0,0,20,20,20,-0.4,0.10833333333333334,1,0,0,5.541128000004392,call2,-0.03611111111111111,0.09027777777777778,1,0,0,6.053699099997175,colour2,0.39861111111111114,0.33611111111111114,1,0,0,6.689305400002922,number1,True,True,True,4,4,2019_Nov_11_1011,MA_Theta_Exp,3.0.7,59.76407533651729,
video/Experiment/zh_sp07_Dr_Ro_4_NVocInAudio_GlobalThetaInVideo.avi,vocoded,plusVideo,sp07,Dr,Ro,4,0,1,flow/blocks/NVocInAudio_GlobalThetaInVideo_A.csv,,,,,,,,,0,0,0,0,0,21,21,27,-0.43472222222222223,0.125,1,0,0,5.053296500002034,call2,0.041666666666666664,0.075,1,0,0,7.3234178000057,colour2,0.4388888888888889,-0.3958333333333333,1,0,0,8.025906599999871,number4,True,False,True,4,4,2019_Nov_11_1011,MA_Theta_Exp,3.0.7,59.76407533651729,
video/Experiment/zh_sp07_Ad_Ge_3_NVocInAudio_GlobalThetaInVideo.avi,vocoded,plusVideo,sp07,Ad,Ge,3,0,1,flow/blocks/NVocInAudio_GlobalThetaInVideo_A.csv,,,,,,,,,0,0,0,0,0,22,22,2,-0.4486111111111111,0.3055555555555556,1,0,0,5.974426000000676,call1,0.0375,-0.3472222222222222,1,0,0,6.713746099994751,colour4,0.40694444444444444,-0.12222222222222222,1,0,0,7.270294199995988,number3,True,False,True,4,4,2019_Nov_11_1011,MA_Theta_Exp,3.0.7,59.76407533651729,
video/Experiment/zh_sp01_Ad_Ge_2_NVocInAudio_GlobalThetaInVideo.avi,vocoded,plusVideo,sp01,Ad,Ge,2,0,1,flow/blocks/NVocInAudio_GlobalThetaInVideo_A.csv,,,,,,,,,0,0,0,0,0,23,23,1,-0.4305555555555556,0.31805555555555554,1,0,0,5.194303500000387,call1,0.001388888888888889,0.3375,1,0,0,5.750555299993721,colour1,0.36527777777777776,0.125,1,0,0,6.5652072000011685,number2,True,True,True,4,4,2019_Nov_11_1011,MA_Theta_Exp,3.0.7,59.76407533651729,
video/Experiment/zh_sp01_Dr_Gr_4_NVocInAudio_GlobalThetaInVideo.avi,vocoded,plusVideo,sp01,Dr,Gr,4,0,1,flow/blocks/NVocInAudio_GlobalThetaInVideo_A.csv,,,,,,,,,0,0,0,0,0,24,24,23,-0.375,0.11666666666666667,1,0,0,5.196165099994687,call2,0.006944444444444444,0.10138888888888889,1,0,0,5.726796499999182,colour2,0.41805555555555557,-0.25833333333333336,1,0,0,6.339936599993962,number4,True,True,True,4,4,2019_Nov_11_1011,MA_Theta_Exp,3.0.7,59.76407533651729,
video/Experiment/zh_sp07_Ad_Gr_3_NVocInAudio_GlobalThetaInVideo.avi,vocoded,plusVideo,sp07,Ad,Gr,3,0,1,flow/blocks/NVocInAudio_GlobalThetaInVideo_A.csv,,,,,,,,,0,0,0,0,0,25,25,6,-0.37083333333333335,0.3486111111111111,1,0,0,4.701909999996133,call1,-0.044444444444444446,0.058333333333333334,1,0,0,5.284529100004875,colour2,0.39166666666666666,-0.08333333333333333,1,0,0,5.852322300001106,number3,True,True,True,4,4,2019_Nov_11_1011,MA_Theta_Exp,3.0.7,59.76407533651729,
video/Experiment/zh_sp01_Dr_Ge_1_NVocInAudio_GlobalThetaInVideo.avi,vocoded,plusVideo,sp01,Dr,Ge,1,0,1,flow/blocks/NVocInAudio_GlobalThetaInVideo_A.csv,,,,,,,,,0,0,0,0,0,26,26,16,-0.36527777777777776,0.11944444444444445,1,0,0,5.19004760000098,call2,-0.03611111111111111,0.2972222222222222,1,0,0,5.774079700000584,colour1,0.41805555555555557,0.3277777777777778,1,0,0,6.284443500000634,number1,True,True,True,4,4,2019_Nov_11_1011,MA_Theta_Exp,3.0.7,59.76407533651729,
video/Experiment/zh_sp07_Ad_Ro_2_NVocInAudio_GlobalThetaInVideo.avi,vocoded,plusVideo,sp07,Ad,Ro,2,0,1,flow/blocks/NVocInAudio_GlobalThetaInVideo_A.csv,,,,,,,,,0,0,0,0,0,27,27,9,-0.42777777777777776,0.26805555555555555,1,0,0,4.589857400002074,call1,-0.022222222222222223,0.29305555555555557,1,0,0,5.044125200001872,colour1,0.3861111111111111,0.08472222222222223,1,0,0,5.557064500004344,number2,True,False,True,4,4,2019_Nov_11_1011,MA_Theta_Exp,3.0.7,59.76407533651729,
video/Experiment/zh_sp01_Dr_We_4_NVocInAudio_GlobalThetaInVideo.avi,vocoded,plusVideo,sp01,Dr,We,4,0,1,flow/blocks/NVocInAudio_GlobalThetaInVideo_A.csv,,,,,,,,,0,0,0,0,0,28,28,31,-0.4263888888888889,0.0875,1,0,0,5.222858000000997,call2,0.009722222222222222,0.36666666666666664,1,0,0,7.90261019999889,colour1,0.4,-0.35694444444444445,1,0,0,8.686041099994327,number4,True,False,True,4,4,2019_Nov_11_1011,MA_Theta_Exp,3.0.7,59.76407533651729,
video/Experiment/zh_sp01_Ad_Gr_2_NVocInAudio_GlobalThetaInVideo.avi,vocoded,plusVideo,sp01,Ad,Gr,2,0,1,flow/blocks/NVocInAudio_GlobalThetaInVideo_A.csv,,,,,,,,,0,0,0,0,0,29,29,5,-0.40555555555555556,0.31666666666666665,1,0,0,5.121672000001126,call1,0.0,0.14583333333333334,1,0,0,5.59182289999444,colour2,0.37222222222222223,0.10138888888888889,1,0,0,6.002588100003777,number2,True,True,True,4,4,2019_Nov_11_1011,MA_Theta_Exp,3.0.7,59.76407533651729,
video/Experiment/zh_sp07_Dr_We_1_NVocInAudio_GlobalThetaInVideo.avi,vocoded,plusVideo,sp07,Dr,We,1,0,1,flow/blocks/NVocInAudio_GlobalThetaInVideo_A.csv,,,,,,,,,0,0,0,0,0,30,30,28,-0.45416666666666666,0.10277777777777777,1,0,0,4.401010800000222,call2,-0.018055555555555554,-0.3416666666666667,1,0,0,5.037569000000076,colour4,0.4097222222222222,0.3472222222222222,1,0,0,5.747178800003894,number1,True,True,True,4,4,2019_Nov_11_1011,MA_Theta_Exp,3.0.7,59.76407533651729,
video/Experiment/zh_sp01_Ad_We_4_NVocInAudio_GlobalThetaInVideo.avi,vocoded,plusVideo,sp01,Ad,We,4,0,1,flow/blocks/NVocInAudio_GlobalThetaInVideo_A.csv,,,,,,,,,0,0,0,0,0,31,31,15,-0.3958333333333333,0.2972222222222222,1,0,0,4.968233499996131,call1,0.019444444444444445,-0.3125,1,0,0,5.614031000004616,colour4,0.3902777777777778,-0.3625,1,0,0,6.0521846000046935,number4,True,True,True,4,4,2019_Nov_11_1011,MA_Theta_Exp,3.0.7,59.76407533651729,
video/Experiment/zh_sp07_Dr_Gr_3_NoThetaInAudio_NoVideo.avi,noTheta,noVideo,sp07,Dr,Gr,3,1,4,flow/blocks/NoThetaInAudio_NoVideo_A.csv,,,,,,,,,0,1,1,1,0,0,0,22,-0.4097222222222222,0.2722222222222222,1,0,0,4.785077000000456,call1,0.020833333333333332,0.0625,1,0,0,5.387013299994578,colour2,0.42083333333333334,-0.07777777777777778,1,0,0,5.853620800000499,number3,False,True,True,4,4,2019_Nov_11_1011,MA_Theta_Exp,3.0.7,59.76407533651729,
video/Experiment/zh_sp01_Dr_Ge_3_NoThetaInAudio_NoVideo.avi,noTheta,noVideo,sp01,Dr,Ge,3,1,4,flow/blocks/NoThetaInAudio_NoVideo_A.csv,,,,,,,,,0,1,1,1,0,1,1,18,-0.4,0.05416666666666667,1,0,0,5.11415770000167,call2,-0.009722222222222222,0.30416666666666664,1,0,0,5.784083200000168,colour1,0.42777777777777776,-0.07222222222222222,1,0,0,6.413968199994997,number3,True,True,True,4,4,2019_Nov_11_1011,MA_Theta_Exp,3.0.7,59.76407533651729,
video/Experiment/zh_sp07_Ad_Gr_4_NoThetaInAudio_NoVideo.avi,noTheta,noVideo,sp07,Ad,Gr,4,1,4,flow/blocks/NoThetaInAudio_NoVideo_A.csv,,,,,,,,,0,1,1,1,0,2,2,7,-0.38472222222222224,0.3111111111111111,1,0,0,4.726314500003355,call1,-0.06111111111111111,0.14583333333333334,1,0,0,5.33098389999941,colour2,0.46944444444444444,-0.3541666666666667,1,0,0,5.942674999998417,number4,True,True,True,4,4,2019_Nov_11_1011,MA_Theta_Exp,3.0.7,59.76407533651729,
video/Experiment/zh_sp07_Dr_Ge_4_NoThetaInAudio_NoVideo.avi,noTheta,noVideo,sp07,Dr,Ge,4,1,4,flow/blocks/NoThetaInAudio_NoVideo_A.csv,,,,,,,,,0,1,1,1,0,3,3,19,-0.4013888888888889,0.1125,1,0,0,4.546720199999982,call2,-0.022222222222222223,0.30277777777777776,1,0,0,5.045010699999693,colour1,0.4041666666666667,-0.275,1,0,0,5.577456999999413,number4,True,True,True,4,4,2019_Nov_11_1011,MA_Theta_Exp,3.0.7,59.76407533651729,
video/Experiment/zh_sp07_Ad_Gr_1_NoThetaInAudio_NoVideo.avi,noTheta,noVideo,sp07,Ad,Gr,1,1,4,flow/blocks/NoThetaInAudio_NoVideo_A.csv,,,,,,,,,0,1,1,1,0,4,4,4,-0.4236111111111111,0.2875,1,0,0,4.52397860000201,call1,-0.06388888888888888,0.09861111111111111,1,0,0,5.070624100000714,colour2,0.3958333333333333,0.30833333333333335,1,0,0,5.606801700007054,number1,True,True,True,4,4,2019_Nov_11_1011,MA_Theta_Exp,3.0.7,59.76407533651729,
video/Experiment/zh_sp07_Ad_Ge_4_NoThetaInAudio_NoVideo.avi,noTheta,noVideo,sp07,Ad,Ge,4,1,4,flow/blocks/NoThetaInAudio_NoVideo_A.csv,,,,,,,,,0,1,1,1,0,5,5,3,-0.42916666666666664,0.030555555555555555,1,0,0,4.685961299997871,call2,-0.08194444444444444,0.07083333333333333,1,0,0,5.076943199994275,colour2,0.4361111111111111,-0.3236111111111111,1,0,0,5.859892899999977,number4,False,False,True,4,4,2019_Nov_11_1011,MA_Theta_Exp,3.0.7,59.76407533651729,
video/Experiment/zh_sp07_Ad_Gr_2_NoThetaInAudio_NoVideo.avi,noTheta,noVideo,sp07,Ad,Gr,2,1,4,flow/blocks/NoThetaInAudio_NoVideo_A.csv,,,,,,,,,0,1,1,1,0,6,6,5,-0.36666666666666664,0.28194444444444444,1,0,0,4.828588699994725,call1,0.0,0.11944444444444445,1,0,0,5.300514900001872,colour2,0.4263888888888889,0.05277777777777778,1,0,0,5.727926899999147,number2,True,True,True,4,4,2019_Nov_11_1011,MA_Theta_Exp,3.0.7,59.76407533651729,
video/Experiment/zh_sp01_Dr_Ro_3_NoThetaInAudio_NoVideo.avi,noTheta,noVideo,sp01,Dr,Ro,3,1,4,flow/blocks/NoThetaInAudio_NoVideo_A.csv,,,,,,,,,0,1,1,1,0,7,7,26,-0.42083333333333334,0.12361111111111112,1,0,0,5.23421199999575,call2,-0.016666666666666666,0.30833333333333335,1,0,0,5.79814289999922,colour1,0.4152777777777778,-0.1486111111111111,1,0,0,6.382426799995301,number3,True,False,True,4,4,2019_Nov_11_1011,MA_Theta_Exp,3.0.7,59.76407533651729,
video/Experiment/zh_sp07_Dr_Gr_1_NoThetaInAudio_NoVideo.avi,noTheta,noVideo,sp07,Dr,Gr,1,1,4,flow/blocks/NoThetaInAudio_NoVideo_A.csv,,,,,,,,,0,1,1,1,0,8,8,20,-0.4111111111111111,0.15138888888888888,1,0,0,4.422353300004033,call2,-0.075,0.09305555555555556,1,0,0,4.892805200004659,colour2,0.2972222222222222,0.2763888888888889,1,0,0,5.420814000004611,number1,True,True,True,4,4,2019_Nov_11_1011,MA_Theta_Exp,3.0.7,59.76407533651729,
video/Experiment/zh_sp01_Ad_Ge_3_NoThetaInAudio_NoVideo.avi,noTheta,noVideo,sp01,Ad,Ge,3,1,4,flow/blocks/NoThetaInAudio_NoVideo_A.csv,,,,,,,,,0,1,1,1,0,9,9,2,-0.3861111111111111,0.3263888888888889,1,0,0,4.83113769999909,call1,-0.05,0.29583333333333334,1,0,0,5.315537000002223,colour1,0.39861111111111114,-0.25972222222222224,1,0,0,6.747790699999314,number4,True,True,False,4,4,2019_Nov_11_1011,MA_Theta_Exp,3.0.7,59.76407533651729,
video/Experiment/zh_sp01_Ad_Ro_4_NoThetaInAudio_NoVideo.avi,noTheta,noVideo,sp01,Ad,Ro,4,1,4,flow/blocks/NoThetaInAudio_NoVideo_A.csv,,,,,,,,,0,1,1,1,0,10,10,11,-0.35138888888888886,0.28055555555555556,1,0,0,5.104972799999814,call1,0.034722222222222224,-0.11388888888888889,1,0,0,5.792150399996899,colour3,0.3736111111111111,-0.3111111111111111,1,0,0,6.374681300003431,number4,True,True,True,4,4,2019_Nov_11_1011,MA_Theta_Exp,3.0.7,59.76407533651729,
video/Experiment/zh_sp01_Ad_We_1_NoThetaInAudio_NoVideo.avi,noTheta,noVideo,sp01,Ad,We,1,1,4,flow/blocks/NoThetaInAudio_NoVideo_A.csv,,,,,,,,,0,1,1,1,0,11,11,12,-0.3680555555555556,0.3236111111111111,1,0,0,5.0684608000010485,call1,0.016666666666666666,-0.3736111111111111,1,0,0,5.773437099996954,colour4,0.41944444444444445,0.3375,1,0,0,6.535403199995926,number1,True,True,True,4,4,2019_Nov_11_1011,MA_Theta_Exp,3.0.7,59.76407533651729,
video/Experiment/zh_sp01_Dr_Gr_4_NoThetaInAudio_NoVideo.avi,noTheta,noVideo,sp01,Dr,Gr,4,1,4,flow/blocks/NoThetaInAudio_NoVideo_A.csv,,,,,,,,,0,1,1,1,0,12,12,23,-0.35833333333333334,0.10972222222222222,1,0,0,5.203356199999689,call2,0.025,0.12222222222222222,1,0,0,5.641684700000042,colour2,0.4222222222222222,-0.3458333333333333,1,0,0,6.52727330000198,number4,True,True,True,4,4,2019_Nov_11_1011,MA_Theta_Exp,3.0.7,59.76407533651729,
video/Experiment/zh_sp07_Ad_Ge_2_NoThetaInAudio_NoVideo.avi,noTheta,noVideo,sp07,Ad,Ge,2,1,4,flow/blocks/NoThetaInAudio_NoVideo_A.csv,,,,,,,,,0,1,1,1,0,13,13,1,-0.3958333333333333,0.31805555555555554,1,0,0,4.579983899995568,call1,0.006944444444444444,0.3375,1,0,0,4.957658100000117,colour1,0.4583333333333333,0.0625,1,0,0,5.416641499999969,number2,True,True,True,4,4,2019_Nov_11_1011,MA_Theta_Exp,3.0.7,59.76407533651729,
video/Experiment/zh_sp01_Ad_We_2_NoThetaInAudio_NoVideo.avi,noTheta,noVideo,sp01,Ad,We,2,1,4,flow/blocks/NoThetaInAudio_NoVideo_A.csv,,,,,,,,,0,1,1,1,0,14,14,13,-0.3902777777777778,0.2513888888888889,1,0,0,5.035403100002441,call1,0.0125,-0.38055555555555554,1,0,0,5.940764899998612,colour4,0.44166666666666665,0.16527777777777777,1,0,0,6.6216101000027265,number2,True,True,True,4,4,2019_Nov_11_1011,MA_Theta_Exp,3.0.7,59.76407533651729,
video/Experiment/zh_sp01_Dr_We_2_NoThetaInAudio_NoVideo.avi,noTheta,noVideo,sp01,Dr,We,2,1,4,flow/blocks/NoThetaInAudio_NoVideo_A.csv,,,,,,,,,0,1,1,1,0,15,15,29,-0.41805555555555557,0.0763888888888889,1,0,0,5.182038699997065,call2,0.011111111111111112,-0.36666666666666664,1,0,0,6.394690100001753,colour4,0.38472222222222224,0.020833333333333332,1,0,0,6.831452200000058,number2,True,True,True,4,4,2019_Nov_11_1011,MA_Theta_Exp,3.0.7,59.76407533651729,
video/Experiment/zh_sp07_Ad_Ro_2_NoThetaInAudio_NoVideo.avi,noTheta,noVideo,sp07,Ad,Ro,2,1,4,flow/blocks/NoThetaInAudio_NoVideo_A.csv,,,,,,,,,0,1,1,1,0,16,16,9,-0.3763888888888889,0.32222222222222224,1,0,0,4.492105700002867,call1,-0.025,-0.09583333333333334,1,0,0,5.39142140000331,colour3,0.48194444444444445,0.11388888888888889,1,0,0,6.178956600000674,number2,True,True,True,4,4,2019_Nov_11_1011,MA_Theta_Exp,3.0.7,59.76407533651729,
video/Experiment/zh_sp01_Dr_We_3_NoThetaInAudio_NoVideo.avi,noTheta,noVideo,sp01,Dr,We,3,1,4,flow/blocks/NoThetaInAudio_NoVideo_A.csv,,,,,,,,,0,1,1,1,0,17,17,30,-0.44722222222222224,0.12222222222222222,1,0,0,4.946480000005977,call2,-0.03194444444444444,-0.3375,1,0,0,5.577904099998705,colour4,0.4791666666666667,-0.11805555555555555,1,0,0,6.155292099996586,number3,True,True,True,4,4,2019_Nov_11_1011,MA_Theta_Exp,3.0.7,59.76407533651729,
video/Experiment/zh_sp01_Dr_Ro_2_NoThetaInAudio_NoVideo.avi,noTheta,noVideo,sp01,Dr,Ro,2,1,4,flow/blocks/NoThetaInAudio_NoVideo_A.csv,,,,,,,,,0,1,1,1,0,18,18,25,-0.3888888888888889,0.13472222222222222,1,0,0,5.696438899998611,call2,0.029166666666666667,-0.3625,1,0,0,6.543416500004241,colour4,0.41944444444444445,0.10138888888888889,1,0,0,7.124036600005638,number2,True,False,True,4,4,2019_Nov_11_1011,MA_Theta_Exp,3.0.7,59.76407533651729,
video/Experiment/zh_sp07_Dr_Ge_1_NoThetaInAudio_NoVideo.avi,noTheta,noVideo,sp07,Dr,Ge,1,1,4,flow/blocks/NoThetaInAudio_NoVideo_A.csv,,,,,,,,,0,1,1,1,0,19,19,16,-0.44583333333333336,0.06666666666666667,1,0,0,4.853571700004977,call2,0.041666666666666664,0.2847222222222222,1,0,0,5.739345899994078,colour1,0.38472222222222224,0.2972222222222222,1,0,0,6.122010600003705,number1,True,True,True,4,4,2019_Nov_11_1011,MA_Theta_Exp,3.0.7,59.76407533651729,
video/Experiment/zh_sp01_Dr_We_1_NoThetaInAudio_NoVideo.avi,noTheta,noVideo,sp01,Dr,We,1,1,4,flow/blocks/NoThetaInAudio_NoVideo_A.csv,,,,,,,,,0,1,1,1,0,20,20,28,-0.4166666666666667,0.10972222222222222,1,0,0,5.289710600001854,call2,0.020833333333333332,-0.2916666666666667,1,0,0,6.0186503999939305,colour4,0.475,0.33055555555555555,1,0,0,6.744787700001325,number1,True,True,True,4,4,2019_Nov_11_1011,MA_Theta_Exp,3.0.7,59.76407533651729,
video/Experiment/zh_sp01_Ad_Gr_3_NoThetaInAudio_NoVideo.avi,noTheta,noVideo,sp01,Ad,Gr,3,1,4,flow/blocks/NoThetaInAudio_NoVideo_A.csv,,,,,,,,,0,1,1,1,0,21,21,6,-0.45555555555555555,0.2916666666666667,1,0,0,5.274887400002626,call1,0.02638888888888889,0.0763888888888889,1,0,0,5.892849199997727,colour2,0.41805555555555557,-0.1986111111111111,1,0,0,6.48796399999992,number3,True,True,True,4,4,2019_Nov_11_1011,MA_Theta_Exp,3.0.7,59.76407533651729,
video/Experiment/zh_sp07_Dr_Ge_2_NoThetaInAudio_NoVideo.avi,noTheta,noVideo,sp07,Dr,Ge,2,1,4,flow/blocks/NoThetaInAudio_NoVideo_A.csv,,,,,,,,,0,1,1,1,0,22,22,17,-0.3680555555555556,0.09444444444444444,1,0,0,4.315205600003537,call2,-0.015277777777777777,0.3388888888888889,1,0,0,4.8483036999969045,colour1,0.4027777777777778,0.04027777777777778,1,0,0,5.582819900002505,number2,True,True,True,4,4,2019_Nov_11_1011,MA_Theta_Exp,3.0.7,59.76407533651729,
video/Experiment/zh_sp07_Dr_Ro_1_NoThetaInAudio_NoVideo.avi,noTheta,noVideo,sp07,Dr,Ro,1,1,4,flow/blocks/NoThetaInAudio_NoVideo_A.csv,,,,,,,,,0,1,1,1,0,23,23,24,-0.35138888888888886,0.08888888888888889,1,0,0,4.7007098000030965,call2,-0.002777777777777778,-0.0875,1,0,0,5.163498200003232,colour3,0.4583333333333333,0.3111111111111111,1,0,0,5.947999700001674,number1,True,True,True,4,4,2019_Nov_11_1011,MA_Theta_Exp,3.0.7,59.76407533651729,
video/Experiment/zh_sp07_Ad_Ro_1_NoThetaInAudio_NoVideo.avi,noTheta,noVideo,sp07,Ad,Ro,1,1,4,flow/blocks/NoThetaInAudio_NoVideo_A.csv,,,,,,,,,0,1,1,1,0,24,24,8,-0.39166666666666666,0.3333333333333333,1,0,0,5.051401800003077,call1,0.009722222222222222,-0.07361111111111111,1,0,0,5.783441999999923,colour3,0.39166666666666666,0.22777777777777777,1,0,0,6.268127600000298,number1,True,True,True,4,4,2019_Nov_11_1011,MA_Theta_Exp,3.0.7,59.76407533651729,
video/Experiment/zh_sp07_Dr_We_4_NoThetaInAudio_NoVideo.avi,noTheta,noVideo,sp07,Dr,We,4,1,4,flow/blocks/NoThetaInAudio_NoVideo_A.csv,,,,,,,,,0,1,1,1,0,25,25,31,-0.3819444444444444,0.07361111111111111,1,0,0,5.466067599998496,call2,0.025,-0.3388888888888889,1,0,0,6.364805700002762,colour4,0.43333333333333335,-0.3597222222222222,1,0,0,6.772410499994294,number4,True,True,True,4,4,2019_Nov_11_1011,MA_Theta_Exp,3.0.7,59.76407533651729,
video/Experiment/zh_sp01_Ad_We_3_NoThetaInAudio_NoVideo.avi,noTheta,noVideo,sp01,Ad,We,3,1,4,flow/blocks/NoThetaInAudio_NoVideo_A.csv,,,,,,,,,0,1,1,1,0,26,26,14,-0.4388888888888889,0.3138888888888889,1,0,0,4.880591000001004,call1,0.009722222222222222,-0.28055555555555556,1,0,0,5.494618800003082,colour4,0.38333333333333336,-0.13472222222222222,1,0,0,5.97345239999413,number3,True,True,True,4,4,2019_Nov_11_1011,MA_Theta_Exp,3.0.7,59.76407533651729,
video/Experiment/zh_sp01_Ad_Ro_3_NoThetaInAudio_NoVideo.avi,noTheta,noVideo,sp01,Ad,Ro,3,1,4,flow/blocks/NoThetaInAudio_NoVideo_A.csv,,,,,,,,,0,1,1,1,0,27,27,10,-0.37222222222222223,0.3013888888888889,1,0,0,4.922005200001877,call1,0.02638888888888889,-0.35833333333333334,1,0,0,5.706547599998885,colour4,0.3972222222222222,-0.3375,1,0,0,6.053859300001932,number4,True,False,False,4,4,2019_Nov_11_1011,MA_Theta_Exp,3.0.7,59.76407533651729,
video/Experiment/zh_sp07_Dr_Gr_2_NoThetaInAudio_NoVideo.avi,noTheta,noVideo,sp07,Dr,Gr,2,1,4,flow/blocks/NoThetaInAudio_NoVideo_A.csv,,,,,,,,,0,1,1,1,0,28,28,21,-0.4125,0.12777777777777777,1,0,0,4.519742800002859,call2,-0.04861111111111111,0.10277777777777777,1,0,0,5.0926239999971585,colour2,0.425,0.09305555555555556,1,0,0,5.424958499999775,number2,True,True,True,4,4,2019_Nov_11_1011,MA_Theta_Exp,3.0.7,59.76407533651729,
video/Experiment/zh_sp01_Ad_We_4_NoThetaInAudio_NoVideo.avi,noTheta,noVideo,sp01,Ad,We,4,1,4,flow/blocks/NoThetaInAudio_NoVideo_A.csv,,,,,,,,,0,1,1,1,0,29,29,15,-0.38333333333333336,0.25833333333333336,1,0,0,5.1562176999941585,call1,0.04027777777777778,-0.3472222222222222,1,0,0,6.3076568999968,colour4,0.4444444444444444,-0.3333333333333333,1,0,0,6.794880800000101,number4,True,True,True,4,4,2019_Nov_11_1011,MA_Theta_Exp,3.0.7,59.76407533651729,
video/Experiment/zh_sp01_Dr_Ro_4_NoThetaInAudio_NoVideo.avi,noTheta,noVideo,sp01,Dr,Ro,4,1,4,flow/blocks/NoThetaInAudio_NoVideo_A.csv,,,,,,,,,0,1,1,1,0,30,30,27,-0.40694444444444444,0.09861111111111111,1,0,0,5.254946799999743,call2,-0.005555555555555556,-0.3958333333333333,1,0,0,7.565211100001761,colour4,0.3888888888888889,-0.32083333333333336,1,0,0,7.978807200001029,number4,True,False,True,4,4,2019_Nov_11_1011,MA_Theta_Exp,3.0.7,59.76407533651729,
video/Experiment/zh_sp07_Ad_Ge_1_NoThetaInAudio_NoVideo.avi,noTheta,noVideo,sp07,Ad,Ge,1,1,4,flow/blocks/NoThetaInAudio_NoVideo_A.csv,,,,,,,,,0,1,1,1,0,31,31,0,-0.44305555555555554,0.30972222222222223,1,0,0,4.4487434000038775,call1,-0.07777777777777778,0.3472222222222222,1,0,0,4.7850388000006205,colour1,0.3736111111111111,0.3111111111111111,1,0,0,5.1181036999987555,number1,True,True,True,4,4,2019_Nov_11_1011,MA_Theta_Exp,3.0.7,59.76407533651729,
video/Experiment/zh_sp01_Ad_Ge_2_NVocInAudio_NoVideo.avi,vocoded,noVideo,sp01,Ad,Ge,2,2,2,flow/blocks/NVocInAudio_NoVideo_A.csv,,,,,,,,,0,2,2,2,0,0,0,1,-0.3902777777777778,0.29444444444444445,1,0,0,5.375180699993507,call1,0.005555555555555556,0.3527777777777778,1,0,0,5.867610599998443,colour1,0.3958333333333333,0.09444444444444444,1,0,0,6.433716700004879,number2,True,True,True,4,4,2019_Nov_11_1011,MA_Theta_Exp,3.0.7,59.76407533651729,
video/Experiment/zh_sp01_Dr_Ro_3_NVocInAudio_NoVideo.avi,vocoded,noVideo,sp01,Dr,Ro,3,2,2,flow/blocks/NVocInAudio_NoVideo_A.csv,,,,,,,,,0,2,2,2,0,1,1,26,-0.41944444444444445,0.12222222222222222,1,0,0,4.883976500001154,call2,-0.019444444444444445,-0.12083333333333333,1,0,0,5.41676130000269,colour3,0.35833333333333334,-0.13333333333333333,1,0,0,5.747910500002035,number3,True,True,True,4,4,2019_Nov_11_1011,MA_Theta_Exp,3.0.7,59.76407533651729,
video/Experiment/zh_sp07_Ad_Ro_2_NVocInAudio_NoVideo.avi,vocoded,noVideo,sp07,Ad,Ro,2,2,2,flow/blocks/NVocInAudio_NoVideo_A.csv,,,,,,,,,0,2,2,2,0,2,2,9,-0.37083333333333335,0.3055555555555556,1,0,0,4.662495399999898,call1,0.013888888888888888,-0.15138888888888888,1,0,0,5.391458799997054,colour3,0.4,0.15,1,0,0,5.958991399995284,number2,True,True,True,4,4,2019_Nov_11_1011,MA_Theta_Exp,3.0.7,59.76407533651729,
video/Experiment/zh_sp01_Dr_Ro_4_NVocInAudio_NoVideo.avi,vocoded,noVideo,sp01,Dr,Ro,4,2,2,flow/blocks/NVocInAudio_NoVideo_A.csv,,,,,,,,,0,2,2,2,0,3,3,27,-0.4722222222222222,0.08888888888888889,1,0,0,4.8397372999970685,call2,-0.027777777777777776,-0.1486111111111111,1,0,0,5.3902745000013965,colour3,0.3541666666666667,-0.29305555555555557,1,0,0,5.82321100000263,number4,True,True,True,4,4,2019_Nov_11_1011,MA_Theta_Exp,3.0.7,59.76407533651729,
video/Experiment/zh_sp01_Ad_Gr_2_NVocInAudio_NoVideo.avi,vocoded,noVideo,sp01,Ad,Gr,2,2,2,flow/blocks/NVocInAudio_NoVideo_A.csv,,,,,,,,,0,2,2,2,0,4,4,5,-0.45694444444444443,0.325,1,0,0,5.31394160000491,call1,-0.001388888888888889,0.12361111111111112,1,0,0,5.827760500003933,colour2,0.36944444444444446,0.075,1,0,0,6.1775988999943365,number2,True,True,True,4,4,2019_Nov_11_1011,MA_Theta_Exp,3.0.7,59.76407533651729,
video/Experiment/zh_sp01_Ad_Gr_3_NVocInAudio_NoVideo.avi,vocoded,noVideo,sp01,Ad,Gr,3,2,2,flow/blocks/NVocInAudio_NoVideo_A.csv,,,,,,,,,0,2,2,2,0,5,5,6,-0.3819444444444444,0.30277777777777776,1,0,0,5.172857799996564,call1,0.034722222222222224,0.09861111111111111,1,0,0,5.8027298000015435,colour2,0.45416666666666666,-0.1111111111111111,1,0,0,6.267808399999922,number3,True,True,True,4,4,2019_Nov_11_1011,MA_Theta_Exp,3.0.7,59.76407533651729,
video/Experiment/zh_sp07_Dr_Ge_2_NVocInAudio_NoVideo.avi,vocoded,noVideo,sp07,Dr,Ge,2,2,2,flow/blocks/NVocInAudio_NoVideo_A.csv,,,,,,,,,0,2,2,2,0,6,6,17,-0.39166666666666666,0.12361111111111112,1,0,0,4.7307136000017636,call2,0.0125,0.1,1,0,0,5.225796200000332,colour2,0.4097222222222222,0.09722222222222222,1,0,0,5.62526760000037,number2,True,False,True,4,4,2019_Nov_11_1011,MA_Theta_Exp,3.0.7,59.76407533651729,
video/Experiment/zh_sp01_Ad_We_2_NVocInAudio_NoVideo.avi,vocoded,noVideo,sp01,Ad,We,2,2,2,flow/blocks/NVocInAudio_NoVideo_A.csv,,,,,,,,,0,2,2,2,0,7,7,13,-0.3902777777777778,0.2875,1,0,0,4.999931500002276,call1,-0.030555555555555555,-0.31805555555555554,1,0,0,5.782532199998968,colour4,0.4513888888888889,0.08888888888888889,1,0,0,6.449898899998516,number2,True,True,True,4,4,2019_Nov_11_1011,MA_Theta_Exp,3.0.7,59.76407533651729,
video/Experiment/zh_sp07_Dr_Gr_1_NVocInAudio_NoVideo.avi,vocoded,noVideo,sp07,Dr,Gr,1,2,2,flow/blocks/NVocInAudio_NoVideo_A.csv,,,,,,,,,0,2,2,2,0,8,8,20,-0.3958333333333333,0.04722222222222222,1,0,0,4.647552199996426,call2,0.022222222222222223,0.1111111111111111,1,0,0,5.002080099999148,colour2,0.44027777777777777,0.29583333333333334,1,0,0,5.361948800004029,number1,True,True,True,4,4,2019_Nov_11_1011,MA_Theta_Exp,3.0.7,59.76407533651729,
video/Experiment/zh_sp01_Dr_Gr_4_NVocInAudio_NoVideo.avi,vocoded,noVideo,sp01,Dr,Gr,4,2,2,flow/blocks/NVocInAudio_NoVideo_A.csv,,,,,,,,,0,2,2,2,0,9,9,23,-0.4263888888888889,0.12777777777777777,1,0,0,5.259555600001477,call2,-0.04027777777777778,0.13194444444444445,1,0,0,5.643433299999742,colour2,0.43472222222222223,-0.35555555555555557,1,0,0,6.276455400002305,number4,True,True,True,4,4,2019_Nov_11_1011,MA_Theta_Exp,3.0.7,59.76407533651729,
video/Experiment/zh_sp07_Dr_We_1_NVocInAudio_NoVideo.avi,vocoded,noVideo,sp07,Dr,We,1,2,2,flow/blocks/NVocInAudio_NoVideo_A.csv,,,,,,,,,0,2,2,2,0,10,10,28,-0.4111111111111111,0.30833333333333335,1,0,0,5.194870199993602,call1,0.0,-0.35833333333333334,1,0,0,5.9947996999981115,colour4,0.38472222222222224,0.30416666666666664,1,0,0,6.745126099995105,number1,False,True,True,4,4,2019_Nov_11_1011,MA_Theta_Exp,3.0.7,59.76407533651729,
video/Experiment/zh_sp01_Dr_We_3_NVocInAudio_NoVideo.avi,vocoded,noVideo,sp01,Dr,We,3,2,2,flow/blocks/NVocInAudio_NoVideo_A.csv,,,,,,,,,0,2,2,2,0,11,11,30,-0.375,0.10555555555555556,1,0,0,5.42537469999661,call2,0.019444444444444445,-0.3527777777777778,1,0,0,6.058764499997778,colour4,0.4041666666666667,-0.10972222222222222,1,0,0,6.552326500001072,number3,True,True,True,4,4,2019_Nov_11_1011,MA_Theta_Exp,3.0.7,59.76407533651729,
video/Experiment/zh_sp07_Dr_Ge_3_NVocInAudio_NoVideo.avi,vocoded,noVideo,sp07,Dr,Ge,3,2,2,flow/blocks/NVocInAudio_NoVideo_A.csv,,,,,,,,,0,2,2,2,0,12,12,18,-0.45555555555555555,0.10694444444444444,1,0,0,4.461436900004628,call2,-0.05,0.3111111111111111,1,0,0,4.887945099995704,colour1,0.41388888888888886,-0.058333333333333334,1,0,0,5.626360399997793,number3,True,True,True,4,4,2019_Nov_11_1011,MA_Theta_Exp,3.0.7,59.76407533651729,
video/Experiment/zh_sp07_Dr_Gr_2_NVocInAudio_NoVideo.avi,vocoded,noVideo,sp07,Dr,Gr,2,2,2,flow/blocks/NVocInAudio_NoVideo_A.csv,,,,,,,,,0,2,2,2,0,13,13,21,-0.3597222222222222,0.2833333333333333,1,0,0,4.7782787999967695,call1,-0.04722222222222222,0.11388888888888889,1,0,0,5.255337000002328,colour2,0.44722222222222224,0.07777777777777778,1,0,0,5.725020899997617,number2,False,True,True,4,4,2019_Nov_11_1011,MA_Theta_Exp,3.0.7,59.76407533651729,
video/Experiment/zh_sp07_Ad_We_1_NVocInAudio_NoVideo.avi,vocoded,noVideo,sp07,Ad,We,1,2,2,flow/blocks/NVocInAudio_NoVideo_A.csv,,,,,,,,,0,2,2,2,0,14,14,12,-0.3680555555555556,0.3013888888888889,1,0,0,4.284087600004568,call1,-0.013888888888888888,-0.34444444444444444,1,0,0,4.922931900000549,colour4,0.41388888888888886,0.2916666666666667,1,0,0,5.58466629999748,number1,True,True,True,4,4,2019_Nov_11_1011,MA_Theta_Exp,3.0.7,59.76407533651729,
video/Experiment/zh_sp01_Dr_Ge_1_NVocInAudio_NoVideo.avi,vocoded,noVideo,sp01,Dr,Ge,1,2,2,flow/blocks/NVocInAudio_NoVideo_A.csv,,,,,,,,,0,2,2,2,0,15,15,16,-0.39305555555555555,0.1388888888888889,1,0,0,5.003856599993014,call2,-0.04583333333333333,0.2722222222222222,1,0,0,5.359326300000248,colour1,0.32222222222222224,0.2708333333333333,1,0,0,5.65407000000414,number1,True,True,True,4,4,2019_Nov_11_1011,MA_Theta_Exp,3.0.7,59.76407533651729,
video/Experiment/zh_sp01_Ad_We_4_NVocInAudio_NoVideo.avi,vocoded,noVideo,sp01,Ad,We,4,2,2,flow/blocks/NVocInAudio_NoVideo_A.csv,,,,,,,,,0,2,2,2,0,16,16,15,-0.39305555555555555,0.3375,1,0,0,5.131819999995059,call1,-0.041666666666666664,-0.37222222222222223,1,0,0,5.838364200004435,colour4,0.48333333333333334,-0.2847222222222222,1,0,0,6.4982985999959055,number4,True,True,True,4,4,2019_Nov_11_1011,MA_Theta_Exp,3.0.7,59.76407533651729,
video/Experiment/zh_sp01_Dr_Ro_1_NVocInAudio_NoVideo.avi,vocoded,noVideo,sp01,Dr,Ro,1,2,2,flow/blocks/NVocInAudio_NoVideo_A.csv,,,,,,,,,0,2,2,2,0,17,17,24,-0.32222222222222224,0.11527777777777778,1,0,0,5.157083500002045,call2,0.05138888888888889,-0.1111111111111111,1,0,0,5.697140100004617,colour3,0.3486111111111111,0.31666666666666665,1,0,0,6.1801018999976804,number1,True,True,True,4,4,2019_Nov_11_1011,MA_Theta_Exp,3.0.7,59.76407533651729,
video/Experiment/zh_sp01_Ad_Gr_4_NVocInAudio_NoVideo.avi,vocoded,noVideo,sp01,Ad,Gr,4,2,2,flow/blocks/NVocInAudio_NoVideo_A.csv,,,,,,,,,0,2,2,2,0,18,18,7,-0.3388888888888889,0.3527777777777778,1,0,0,5.163365599997633,call1,-0.027777777777777776,0.14583333333333334,1,0,0,5.561943800006702,colour2,0.4597222222222222,-0.28888888888888886,1,0,0,6.185026200000721,number4,True,True,True,4,4,2019_Nov_11_1011,MA_Theta_Exp,3.0.7,59.76407533651729,
video/Experiment/zh_sp07_Ad_Ge_4_NVocInAudio_NoVideo.avi,vocoded,noVideo,sp07,Ad,Ge,4,2,2,flow/blocks/NVocInAudio_NoVideo_A.csv,,,,,,,,,0,2,2,2,0,19,19,3,-0.37777777777777777,0.3138888888888889,1,0,0,4.558672099999967,call1,-0.011111111111111112,0.2916666666666667,1,0,0,4.923257800001011,colour1,0.44305555555555554,-0.375,1,0,0,5.689129099999263,number4,True,True,True,4,4,2019_Nov_11_1011,MA_Theta_Exp,3.0.7,59.76407533651729,
video/Experiment/zh_sp01_Ad_We_3_NVocInAudio_NoVideo.avi,vocoded,noVideo,sp01,Ad,We,3,2,2,flow/blocks/NVocInAudio_NoVideo_A.csv,,,,,,,,,0,2,2,2,0,20,20,14,-0.36666666666666664,0.2847222222222222,1,0,0,5.373547299997881,call1,0.029166666666666667,-0.33055555555555555,1,0,0,6.022715300001437,colour4,0.4041666666666667,-0.17222222222222222,1,0,0,6.3747273000044515,number3,True,True,True,4,4,2019_Nov_11_1011,MA_Theta_Exp,3.0.7,59.76407533651729,
video/Experiment/zh_sp07_Dr_We_2_NVocInAudio_NoVideo.avi,vocoded,noVideo,sp07,Dr,We,2,2,2,flow/blocks/NVocInAudio_NoVideo_A.csv,,,,,,,,,0,2,2,2,0,21,21,29,-0.41388888888888886,0.1125,1,0,0,4.696343099996739,call2,0.001388888888888889,-0.30972222222222223,1,0,0,5.530721299997822,colour4,0.4236111111111111,0.13333333333333333,1,0,0,6.131906999995408,number2,True,True,True,4,4,2019_Nov_11_1011,MA_Theta_Exp,3.0.7,59.76407533651729,
video/Experiment/zh_sp07_Ad_Ro_1_NVocInAudio_NoVideo.avi,vocoded,noVideo,sp07,Ad,Ro,1,2,2,flow/blocks/NVocInAudio_NoVideo_A.csv,,,,,,,,,0,2,2,2,0,22,22,8,-0.3277777777777778,0.2861111111111111,1,0,0,4.486264099999971,call1,-0.002777777777777778,-0.07777777777777778,1,0,0,5.169738999997207,colour3,0.3680555555555556,0.26805555555555555,1,0,0,5.588043199997628,number1,True,True,True,4,4,2019_Nov_11_1011,MA_Theta_Exp,3.0.7,59.76407533651729,
video/Experiment/zh_sp01_Ad_Ro_3_NVocInAudio_NoVideo.avi,vocoded,noVideo,sp01,Ad,Ro,3,2,2,flow/blocks/NVocInAudio_NoVideo_A.csv,,,,,,,,,0,2,2,2,0,23,23,10,-0.3402777777777778,0.28888888888888886,1,0,0,4.973262100000284,call1,0.004166666666666667,-0.16666666666666666,1,0,0,5.476775399998587,colour3,0.3819444444444444,-0.12638888888888888,1,0,0,5.794726000000082,number3,True,True,True,4,4,2019_Nov_11_1011,MA_Theta_Exp,3.0.7,59.76407533651729,
video/Experiment/zh_sp07_Ad_Ro_4_NVocInAudio_NoVideo.avi,vocoded,noVideo,sp07,Ad,Ro,4,2,2,flow/blocks/NVocInAudio_NoVideo_A.csv,,,,,,,,,0,2,2,2,0,24,24,11,-0.4263888888888889,0.30277777777777776,1,0,0,4.720852599995851,call1,0.011111111111111112,-0.12638888888888888,1,0,0,5.336859300005017,colour3,0.3055555555555556,-0.32222222222222224,1,0,0,5.691257600003155,number4,True,True,True,4,4,2019_Nov_11_1011,MA_Theta_Exp,3.0.7,59.76407533651729,
video/Experiment/zh_sp01_Ad_Ge_3_NVocInAudio_NoVideo.avi,vocoded,noVideo,sp01,Ad,Ge,3,2,2,flow/blocks/NVocInAudio_NoVideo_A.csv,,,,,,,,,0,2,2,2,0,25,25,2,-0.4444444444444444,0.3458333333333333,1,0,0,4.781882300005236,call1,-0.013888888888888888,0.24583333333333332,1,0,0,5.191611700000067,colour1,0.38333333333333336,-0.058333333333333334,1,0,0,5.675311899998633,number3,True,True,True,4,4,2019_Nov_11_1011,MA_Theta_Exp,3.0.7,59.76407533651729,
video/Experiment/zh_sp01_Dr_We_4_NVocInAudio_NoVideo.avi,vocoded,noVideo,sp01,Dr,We,4,2,2,flow/blocks/NVocInAudio_NoVideo_A.csv,,,,,,,,,0,2,2,2,0,26,26,31,-0.3958333333333333,0.12361111111111112,1,0,0,5.791896700000507,call2,-0.034722222222222224,-0.10277777777777777,1,0,0,6.3416970999969635,colour3,0.35694444444444445,-0.34444444444444444,1,0,0,6.880014200003643,number4,True,False,True,4,4,2019_Nov_11_1011,MA_Theta_Exp,3.0.7,59.76407533651729,
video/Experiment/zh_sp07_Dr_Gr_3_NVocInAudio_NoVideo.avi,vocoded,noVideo,sp07,Dr,Gr,3,2,2,flow/blocks/NVocInAudio_NoVideo_A.csv,,,,,,,,,0,2,2,2,0,27,27,22,-0.4263888888888889,0.1597222222222222,1,0,0,4.576882000001206,call2,0.03333333333333333,-0.11805555555555555,1,0,0,6.2236475000026985,colour3,0.4388888888888889,-0.13194444444444445,1,0,0,6.5936796000023605,number3,True,False,True,4,4,2019_Nov_11_1011,MA_Theta_Exp,3.0.7,59.76407533651729,
video/Experiment/zh_sp07_Ad_Ge_1_NVocInAudio_NoVideo.avi,vocoded,noVideo,sp07,Ad,Ge,1,2,2,flow/blocks/NVocInAudio_NoVideo_A.csv,,,,,,,,,0,2,2,2,0,28,28,0,-0.43194444444444446,0.3333333333333333,1,0,0,4.39992400000483,call1,0.006944444444444444,0.3527777777777778,1,0,0,4.734524899999087,colour1,0.375,0.33194444444444443,1,0,0,5.080423200000951,number1,True,True,True,4,4,2019_Nov_11_1011,MA_Theta_Exp,3.0.7,59.76407533651729,
video/Experiment/zh_sp07_Dr_Ro_2_NVocInAudio_NoVideo.avi,vocoded,noVideo,sp07,Dr,Ro,2,2,2,flow/blocks/NVocInAudio_NoVideo_A.csv,,,,,,,,,0,2,2,2,0,29,29,25,-0.4111111111111111,0.1527777777777778,1,0,0,5.0003667999990284,call2,0.018055555555555554,0.31805555555555554,1,0,0,6.164474800003518,colour1,0.4486111111111111,0.09583333333333334,1,0,0,6.5312263000014354,number2,True,False,True,4,4,2019_Nov_11_1011,MA_Theta_Exp,3.0.7,59.76407533651729,
video/Experiment/zh_sp07_Dr_Ge_4_NVocInAudio_NoVideo.avi,vocoded,noVideo,sp07,Dr,Ge,4,2,2,flow/blocks/NVocInAudio_NoVideo_A.csv,,,,,,,,,0,2,2,2,0,30,30,19,-0.3875,0.11944444444444445,1,0,0,4.546916300001612,call2,-0.004166666666666667,0.2833333333333333,1,0,0,4.949070200003916,colour1,0.3972222222222222,-0.34305555555555556,1,0,0,5.512287199999264,number4,True,True,True,4,4,2019_Nov_11_1011,MA_Theta_Exp,3.0.7,59.76407533651729,
video/Experiment/zh_sp07_Ad_Gr_1_NVocInAudio_NoVideo.avi,vocoded,noVideo,sp07,Ad,Gr,1,2,2,flow/blocks/NVocInAudio_NoVideo_A.csv,,,,,,,,,0,2,2,2,0,31,31,4,-0.3541666666666667,0.31666666666666665,1,0,0,4.696866299993417,call1,0.020833333333333332,0.12222222222222222,1,0,0,5.1627353000003495,colour2,0.46805555555555556,0.2902777777777778,1,0,0,5.6938069999960135,number1,True,True,True,4,4,2019_Nov_11_1011,MA_Theta_Exp,3.0.7,59.76407533651729,
