videoFile,condition,video,speaker,callSign,colour,number,seq,id,block,exp.thisRepN,exp.thisTrialN,exp.thisN,exp.thisIndex,training.thisRepN,training.thisTrialN,training.thisN,training.thisIndex,firstHalf.thisRepN,firstHalf.thisTrialN,firstHalf.thisN,firstHalf.thisIndex,blocksA.thisRepN,blocksA.thisTrialN,blocksA.thisN,blocksA.thisIndex,secondHalf.thisRepN,secondHalf.thisTrialN,secondHalf.thisN,secondHalf.thisIndex,blocksB.thisRepN,blocksB.thisTrialN,blocksB.thisN,blocksB.thisIndex,mouseClickOnCall.x,mouseClickOnCall.y,mouseClickOnCall.leftButton,mouseClickOnCall.midButton,mouseClickOnCall.rightButton,mouseClickOnCall.time,mouseClickOnCall.clicked_name,mouseClickOnColour.x,mouseClickOnColour.y,mouseClickOnColour.leftButton,mouseClickOnColour.midButton,mouseClickOnColour.rightButton,mouseClickOnColour.time,mouseClickOnColour.clicked_name,mouseClickOnNumber.x,mouseClickOnNumber.y,mouseClickOnNumber.leftButton,mouseClickOnNumber.midButton,mouseClickOnNumber.rightButton,mouseClickOnNumber.time,mouseClickOnNumber.clicked_name,callSignCorrect,colourCorrect,numberCorrect,participant,order,date,expName,psychopyVersion,frameRate,
video/Training/zh_sp01_Ad_We_4_NVocInAudio_NoVideo.avi,vocoded,noVideo,sp01,Ad,We,4,,,,,,,,0,0,0,0,,,,,,,,,,,,,,,,,-0.4166666666666667,0.3236111111111111,1,0,0,5.931570000000647,call1,-0.006944444444444444,-0.3472222222222222,1,0,0,7.39393199999904,colour4,0.39444444444444443,-0.3333333333333333,1,0,0,8.698334500004421,number4,True,True,True,4,4,2019_Nov_11_1011,MA_Theta_Exp,3.0.7,59.76407533651729,
video/Training/zh_sp07_Ad_Ge_3_NVocInAudio_NoVideo.avi,vocoded,noVideo,sp07,Ad,Ge,3,,,,,,,,0,1,1,1,,,,,,,,,,,,,,,,,-0.43472222222222223,0.3194444444444444,1,0,0,5.160459999999148,call1,0.002777777777777778,0.30833333333333335,1,0,0,5.950296000002709,colour1,0.3680555555555556,-0.12777777777777777,1,0,0,7.013667700004589,number3,True,True,True,4,4,2019_Nov_11_1011,MA_Theta_Exp,3.0.7,59.76407533651729,
video/Training/zh_sp01_Dr_Ro_3_NVocInAudio_GlobalThetaInVideo.avi,vocoded,plusVideo,sp01,Dr,Ro,3,,,,,,,,0,2,2,2,,,,,,,,,,,,,,,,,-0.4263888888888889,0.11666666666666667,1,0,0,6.555793699997594,call2,-0.027777777777777776,-0.09166666666666666,1,0,0,7.6961194000032265,colour3,0.41388888888888886,-0.1486111111111111,1,0,0,8.395800600002985,number3,True,True,True,4,4,2019_Nov_11_1011,MA_Theta_Exp,3.0.7,59.76407533651729,
video/Training/zh_sp07_Dr_Gr_4_NVocInAudio_GlobalThetaInVideo.avi,vocoded,plusVideo,sp07,Dr,Gr,4,,,,,,,,0,3,3,3,,,,,,,,,,,,,,,,,-0.4166666666666667,0.09444444444444444,1,0,0,4.5145456999962335,call2,-0.011111111111111112,0.09027777777777778,1,0,0,5.048584899996058,colour2,0.3388888888888889,-0.25,1,0,0,5.667221299998346,number4,True,True,True,4,4,2019_Nov_11_1011,MA_Theta_Exp,3.0.7,59.76407533651729,
video/Training/zh_sp01_Ti_Gr_2_NoThetaInAudio_NoVideo.avi,noTheta,noVideo,sp01,Ti,Gr,2,,,,,,,,0,4,4,4,,,,,,,,,,,,,,,,,-0.425,0.30277777777777776,1,0,0,5.739524799995706,call1,-0.009722222222222222,0.06388888888888888,1,0,0,6.956782799999928,colour2,0.4388888888888889,0.07361111111111111,1,0,0,7.586454299998877,number2,False,True,True,4,4,2019_Nov_11_1011,MA_Theta_Exp,3.0.7,59.76407533651729,
video/Training/zh_sp07_Ti_Ro_1_NoThetaInAudio_NoVideo.avi,noTheta,noVideo,sp07,Ti,Ro,1,,,,,,,,0,5,5,5,,,,,,,,,,,,,,,,,-0.4111111111111111,-0.07222222222222222,1,0,0,5.092025300000387,call3,0.0125,0.09305555555555556,1,0,0,7.747153199998138,colour2,0.4305555555555556,0.28888888888888886,1,0,0,8.332011899998179,number1,True,False,True,4,4,2019_Nov_11_1011,MA_Theta_Exp,3.0.7,59.76407533651729,
video/Training/zh_sp01_Un_Ge_1_NoThetaInAudio_GlobalThetaInVideo.avi,noTheta,plusVideo,sp01,Un,Ge,1,,,,,,,,0,6,6,6,,,,,,,,,,,,,,,,,-0.36666666666666664,0.1361111111111111,1,0,0,5.290340499996091,call2,0.02361111111111111,0.3194444444444444,1,0,0,6.507264799998666,colour1,0.3611111111111111,0.14027777777777778,1,0,0,7.285860200005118,number2,False,True,False,4,4,2019_Nov_11_1011,MA_Theta_Exp,3.0.7,59.76407533651729,
video/Training/zh_sp07_Un_We_2_NoThetaInAudio_GlobalThetaInVideo.avi,noTheta,plusVideo,sp07,Un,We,2,,,,,,,,0,7,7,7,,,,,,,,,,,,,,,,,-0.40555555555555556,0.16666666666666666,1,0,0,4.731546299997717,call2,-0.009722222222222222,0.11805555555555555,1,0,0,6.748139100003755,colour2,0.4736111111111111,0.09444444444444444,1,0,0,7.2981156000023475,number2,False,False,True,4,4,2019_Nov_11_1011,MA_Theta_Exp,3.0.7,59.76407533651729,
video/Training/zh_sp01_Ad_Ge_1_GlobalTheta_NoVideo.avi,globalTheta,noVideo,sp01,Ad,Ge,1,,,,,,,,0,8,8,8,,,,,,,,,,,,,,,,,-0.3680555555555556,0.28055555555555556,1,0,0,5.9124239000011585,call1,0.006944444444444444,0.3236111111111111,1,0,0,6.458223399997223,colour1,0.39444444444444443,0.3263888888888889,1,0,0,6.941101199998229,number1,True,True,True,4,4,2019_Nov_11_1011,MA_Theta_Exp,3.0.7,59.76407533651729,
video/Training/zh_sp07_Ad_Ro_3_GlobalTheta_NoVideo.avi,globalTheta,noVideo,sp07,Ad,Ro,3,,,,,,,,0,9,9,9,,,,,,,,,,,,,,,,,-0.38472222222222224,0.28888888888888886,1,0,0,4.5018464000022504,call1,-0.020833333333333332,-0.15,1,0,0,6.22713620000286,colour3,0.39305555555555555,-0.044444444444444446,1,0,0,7.10636230000091,number3,True,True,True,4,4,2019_Nov_11_1011,MA_Theta_Exp,3.0.7,59.76407533651729,
video/Experiment/zh_sp01_Dr_We_2_NVocInAudio_GlobalThetaInVideo.avi,vocoded,plusVideo,sp01,Dr,We,2,0,1,flow/blocks/NVocInAudio_GlobalThetaInVideo_A.csv,,,,,,,,,0,0,0,0,0,0,0,29,,,,,,,,,-0.4,0.09861111111111111,1,0,0,5.816450499994971,call2,-0.020833333333333332,-0.3638888888888889,1,0,0,7.018620199996803,colour4,0.48333333333333334,0.11666666666666667,1,0,0,7.7641551999986405,number2,True,True,True,4,4,2019_Nov_11_1011,MA_Theta_Exp,3.0.7,59.76407533651729,
video/Experiment/zh_sp01_Ad_We_2_NVocInAudio_GlobalThetaInVideo.avi,vocoded,plusVideo,sp01,Ad,We,2,0,1,flow/blocks/NVocInAudio_GlobalThetaInVideo_A.csv,,,,,,,,,0,0,0,0,0,1,1,13,,,,,,,,,-0.3875,0.3194444444444444,1,0,0,5.2569266999998945,call1,0.008333333333333333,-0.23333333333333334,1,0,0,6.391517699994438,colour4,0.41805555555555557,0.11944444444444445,1,0,0,7.275798300004681,number2,True,True,True,4,4,2019_Nov_11_1011,MA_Theta_Exp,3.0.7,59.76407533651729,
video/Experiment/zh_sp01_Ad_Ge_4_NVocInAudio_GlobalThetaInVideo.avi,vocoded,plusVideo,sp01,Ad,Ge,4,0,1,flow/blocks/NVocInAudio_GlobalThetaInVideo_A.csv,,,,,,,,,0,0,0,0,0,2,2,3,,,,,,,,,-0.42777777777777776,0.3194444444444444,1,0,0,5.146101800004544,call1,0.016666666666666666,0.2777777777777778,1,0,0,7.81550160000188,colour1,0.39861111111111114,-0.3625,1,0,0,8.627298699997482,number4,True,True,True,4,4,2019_Nov_11_1011,MA_Theta_Exp,3.0.7,59.76407533651729,
video/Experiment/zh_sp01_Dr_Ro_2_NVocInAudio_GlobalThetaInVideo.avi,vocoded,plusVideo,sp01,Dr,Ro,2,0,1,flow/blocks/NVocInAudio_GlobalThetaInVideo_A.csv,,,,,,,,,0,0,0,0,0,3,3,25,,,,,,,,,-0.3902777777777778,0.08611111111111111,1,0,0,5.498901300001307,call2,-0.009722222222222222,-0.14444444444444443,1,0,0,6.179164799999853,colour3,0.3902777777777778,0.034722222222222224,1,0,0,6.75136460000067,number2,True,True,True,4,4,2019_Nov_11_1011,MA_Theta_Exp,3.0.7,59.76407533651729,
video/Experiment/zh_sp07_Ad_Ro_4_NVocInAudio_GlobalThetaInVideo.avi,vocoded,plusVideo,sp07,Ad,Ro,4,0,1,flow/blocks/NVocInAudio_GlobalThetaInVideo_A.csv,,,,,,,,,0,0,0,0,0,4,4,11,,,,,,,,,-0.4305555555555556,0.3347222222222222,1,0,0,4.563173500006087,call1,-0.043055555555555555,-0.14583333333333334,1,0,0,5.310100099995907,colour3,0.46111111111111114,-0.3680555555555556,1,0,0,5.9989789000028395,number4,True,True,True,4,4,2019_Nov_11_1011,MA_Theta_Exp,3.0.7,59.76407533651729,
video/Experiment/zh_sp07_Dr_Ge_3_NVocInAudio_GlobalThetaInVideo.avi,vocoded,plusVideo,sp07,Dr,Ge,3,0,1,flow/blocks/NVocInAudio_GlobalThetaInVideo_A.csv,,,,,,,,,0,0,0,0,0,5,5,18,,,,,,,,,-0.3958333333333333,0.058333333333333334,1,0,0,4.5982365000018035,call2,0.009722222222222222,0.32916666666666666,1,0,0,5.213839800002461,colour1,0.4263888888888889,-0.0763888888888889,1,0,0,5.880017999996198,number3,True,True,True,4,4,2019_Nov_11_1011,MA_Theta_Exp,3.0.7,59.76407533651729,
video/Experiment/zh_sp07_Ad_Ge_1_NVocInAudio_GlobalThetaInVideo.avi,vocoded,plusVideo,sp07,Ad,Ge,1,0,1,flow/blocks/NVocInAudio_GlobalThetaInVideo_A.csv,,,,,,,,,0,0,0,0,0,6,6,0,,,,,,,,,-0.3972222222222222,0.30972222222222223,1,0,0,4.363267200002156,call1,0.030555555555555555,0.29444444444444445,1,0,0,5.043217400001595,colour1,0.3958333333333333,0.3486111111111111,1,0,0,5.500015500001609,number1,True,True,True,4,4,2019_Nov_11_1011,MA_Theta_Exp,3.0.7,59.76407533651729,
video/Experiment/zh_sp01_Dr_Gr_2_NVocInAudio_GlobalThetaInVideo.avi,vocoded,plusVideo,sp01,Dr,Gr,2,0,1,flow/blocks/NVocInAudio_GlobalThetaInVideo_A.csv,,,,,,,,,0,0,0,0,0,7,7,21,,,,,,,,,-0.44027777777777777,0.1111111111111111,1,0,0,5.32336000000214,call2,-0.004166666666666667,0.12222222222222222,1,0,0,6.293440200002806,colour2,0.43194444444444446,0.13333333333333333,1,0,0,6.773797299996659,number2,True,True,True,4,4,2019_Nov_11_1011,MA_Theta_Exp,3.0.7,59.76407533651729,
video/Experiment/zh_sp07_Ad_Ro_1_NVocInAudio_GlobalThetaInVideo.avi,vocoded,plusVideo,sp07,Ad,Ro,1,0,1,flow/blocks/NVocInAudio_GlobalThetaInVideo_A.csv,,,,,,,,,0,0,0,0,0,8,8,8,,,,,,,,,-0.45416666666666666,0.3055555555555556,1,0,0,4.135454399998707,call1,0.030555555555555555,-0.14722222222222223,1,0,0,4.806337499998335,colour3,0.4152777777777778,0.33055555555555555,1,0,0,5.4731402000033995,number1,True,True,True,4,4,2019_Nov_11_1011,MA_Theta_Exp,3.0.7,59.76407533651729,
video/Experiment/zh_sp07_Ad_Ro_3_NVocInAudio_GlobalThetaInVideo.avi,vocoded,plusVideo,sp07,Ad,Ro,3,0,1,flow/blocks/NVocInAudio_GlobalThetaInVideo_A.csv,,,,,,,,,0,0,0,0,0,9,9,10,,,,,,,,,-0.44027777777777777,0.32222222222222224,1,0,0,4.626954899998964,call1,0.008333333333333333,-0.1,1,0,0,5.308841300000495,colour3,0.4305555555555556,-0.12361111111111112,1,0,0,5.858951499998511,number3,True,True,True,4,4,2019_Nov_11_1011,MA_Theta_Exp,3.0.7,59.76407533651729,
video/Experiment/zh_sp07_Dr_Ge_4_NVocInAudio_GlobalThetaInVideo.avi,vocoded,plusVideo,sp07,Dr,Ge,4,0,1,flow/blocks/NVocInAudio_GlobalThetaInVideo_A.csv,,,,,,,,,0,0,0,0,0,10,10,19,,,,,,,,,-0.4375,0.11527777777777778,1,0,0,4.748045200001798,call2,-0.03194444444444444,0.10972222222222222,1,0,0,5.56353140000283,colour2,0.4013888888888889,-0.28888888888888886,1,0,0,6.1984178000057,number4,True,False,True,4,4,2019_Nov_11_1011,MA_Theta_Exp,3.0.7,59.76407533651729,
video/Experiment/zh_sp01_Ad_Gr_4_NVocInAudio_GlobalThetaInVideo.avi,vocoded,plusVideo,sp01,Ad,Gr,4,0,1,flow/blocks/NVocInAudio_GlobalThetaInVideo_A.csv,,,,,,,,,0,0,0,0,0,11,11,7,,,,,,,,,-0.41388888888888886,0.3638888888888889,1,0,0,5.210965999998734,call1,-0.009722222222222222,0.14583333333333334,1,0,0,5.789939300004335,colour2,0.3763888888888889,-0.30694444444444446,1,0,0,6.372458499994536,number4,True,True,True,4,4,2019_Nov_11_1011,MA_Theta_Exp,3.0.7,59.76407533651729,
video/Experiment/zh_sp01_Dr_Ro_3_NVocInAudio_GlobalThetaInVideo.avi,vocoded,plusVideo,sp01,Dr,Ro,3,0,1,flow/blocks/NVocInAudio_GlobalThetaInVideo_A.csv,,,,,,,,,0,0,0,0,0,12,12,26,,,,,,,,,-0.3902777777777778,0.16111111111111112,1,0,0,5.079046099999687,call2,0.0,-0.10833333333333334,1,0,0,5.713747699999658,colour3,0.4375,-0.1,1,0,0,6.359406999996281,number3,True,True,True,4,4,2019_Nov_11_1011,MA_Theta_Exp,3.0.7,59.76407533651729,
video/Experiment/zh_sp07_Dr_Gr_3_NVocInAudio_GlobalThetaInVideo.avi,vocoded,plusVideo,sp07,Dr,Gr,3,0,1,flow/blocks/NVocInAudio_GlobalThetaInVideo_A.csv,,,,,,,,,0,0,0,0,0,13,13,22,,,,,,,,,-0.3819444444444444,0.07361111111111111,1,0,0,4.587668500003929,call2,0.0,0.10555555555555556,1,0,0,5.100444600000628,colour2,0.4791666666666667,-0.12777777777777777,1,0,0,5.822740199997497,number3,True,True,True,4,4,2019_Nov_11_1011,MA_Theta_Exp,3.0.7,59.76407533651729,
video/Experiment/zh_sp07_Dr_Ro_1_NVocInAudio_GlobalThetaInVideo.avi,vocoded,plusVideo,sp07,Dr,Ro,1,0,1,flow/blocks/NVocInAudio_GlobalThetaInVideo_A.csv,,,,,,,,,0,0,0,0,0,14,14,24,,,,,,,,,-0.3875,0.1111111111111111,1,0,0,4.368391600000905,call2,-0.027777777777777776,-0.08611111111111111,1,0,0,4.919049199997971,colour3,0.41388888888888886,0.3402777777777778,1,0,0,5.622686200003955,number1,True,True,True,4,4,2019_Nov_11_1011,MA_Theta_Exp,3.0.7,59.76407533651729,
video/Experiment/zh_sp01_Ad_We_3_NVocInAudio_GlobalThetaInVideo.avi,vocoded,plusVideo,sp01,Ad,We,3,0,1,flow/blocks/NVocInAudio_GlobalThetaInVideo_A.csv,,,,,,,,,0,0,0,0,0,15,15,14,,,,,,,,,-0.4083333333333333,0.3236111111111111,1,0,0,5.38622540000506,call1,0.025,-0.3527777777777778,1,0,0,6.157893300005526,colour4,0.40694444444444444,-0.13194444444444445,1,0,0,6.763230600001407,number3,True,True,True,4,4,2019_Nov_11_1011,MA_Theta_Exp,3.0.7,59.76407533651729,
video/Experiment/zh_sp01_Dr_Ge_2_NVocInAudio_GlobalThetaInVideo.avi,vocoded,plusVideo,sp01,Dr,Ge,2,0,1,flow/blocks/NVocInAudio_GlobalThetaInVideo_A.csv,,,,,,,,,0,0,0,0,0,16,16,17,,,,,,,,,-0.3819444444444444,0.07361111111111111,1,0,0,8.087567099995795,call2,0.020833333333333332,0.06805555555555555,1,0,0,8.565152700000908,colour2,0.4583333333333333,0.08333333333333333,1,0,0,8.964775799999188,number2,True,False,True,4,4,2019_Nov_11_1011,MA_Theta_Exp,3.0.7,59.76407533651729,
video/Experiment/zh_sp07_Dr_We_3_NVocInAudio_GlobalThetaInVideo.avi,vocoded,plusVideo,sp07,Dr,We,3,0,1,flow/blocks/NVocInAudio_GlobalThetaInVideo_A.csv,,,,,,,,,0,0,0,0,0,17,17,30,,,,,,,,,-0.3611111111111111,0.1111111111111111,1,0,0,4.557776900001045,call2,-0.05277777777777778,-0.30694444444444446,1,0,0,5.215409799995541,colour4,0.4166666666666667,-0.16111111111111112,1,0,0,5.749519600001804,number3,True,True,True,4,4,2019_Nov_11_1011,MA_Theta_Exp,3.0.7,59.76407533651729,
video/Experiment/zh_sp07_Ad_We_1_NVocInAudio_GlobalThetaInVideo.avi,vocoded,plusVideo,sp07,Ad,We,1,0,1,flow/blocks/NVocInAudio_GlobalThetaInVideo_A.csv,,,,,,,,,0,0,0,0,0,18,18,12,,,,,,,,,-0.4041666666666667,0.3347222222222222,1,0,0,4.452642199998081,call1,-0.005555555555555556,-0.3763888888888889,1,0,0,5.188798800001678,colour4,0.42916666666666664,0.375,1,0,0,5.90352040000289,number1,True,True,True,4,4,2019_Nov_11_1011,MA_Theta_Exp,3.0.7,59.76407533651729,
video/Experiment/zh_sp07_Ad_Gr_1_NVocInAudio_GlobalThetaInVideo.avi,vocoded,plusVideo,sp07,Ad,Gr,1,0,1,flow/blocks/NVocInAudio_GlobalThetaInVideo_A.csv,,,,,,,,,0,0,0,0,0,19,19,4,,,,,,,,,-0.37777777777777777,0.2847222222222222,1,0,0,4.539185699999507,call1,0.0,0.06666666666666667,1,0,0,5.140669100001105,colour2,0.4097222222222222,0.2875,1,0,0,5.756581699999515,number1,True,True,True,4,4,2019_Nov_11_1011,MA_Theta_Exp,3.0.7,59.76407533651729,
video/Experiment/zh_sp01_Dr_Gr_1_NVocInAudio_GlobalThetaInVideo.avi,vocoded,plusVideo,sp01,Dr,Gr,1,0,1,flow/blocks/NVocInAudio_GlobalThetaInVideo_A.csv,,,,,,,,,0,0,0,0,0,20,20,20,,,,,,,,,-0.4,0.10833333333333334,1,0,0,5.541128000004392,call2,-0.03611111111111111,0.09027777777777778,1,0,0,6.053699099997175,colour2,0.39861111111111114,0.33611111111111114,1,0,0,6.689305400002922,number1,True,True,True,4,4,2019_Nov_11_1011,MA_Theta_Exp,3.0.7,59.76407533651729,
video/Experiment/zh_sp07_Dr_Ro_4_NVocInAudio_GlobalThetaInVideo.avi,vocoded,plusVideo,sp07,Dr,Ro,4,0,1,flow/blocks/NVocInAudio_GlobalThetaInVideo_A.csv,,,,,,,,,0,0,0,0,0,21,21,27,,,,,,,,,-0.43472222222222223,0.125,1,0,0,5.053296500002034,call2,0.041666666666666664,0.075,1,0,0,7.3234178000057,colour2,0.4388888888888889,-0.3958333333333333,1,0,0,8.025906599999871,number4,True,False,True,4,4,2019_Nov_11_1011,MA_Theta_Exp,3.0.7,59.76407533651729,
video/Experiment/zh_sp07_Ad_Ge_3_NVocInAudio_GlobalThetaInVideo.avi,vocoded,plusVideo,sp07,Ad,Ge,3,0,1,flow/blocks/NVocInAudio_GlobalThetaInVideo_A.csv,,,,,,,,,0,0,0,0,0,22,22,2,,,,,,,,,-0.4486111111111111,0.3055555555555556,1,0,0,5.974426000000676,call1,0.0375,-0.3472222222222222,1,0,0,6.713746099994751,colour4,0.40694444444444444,-0.12222222222222222,1,0,0,7.270294199995988,number3,True,False,True,4,4,2019_Nov_11_1011,MA_Theta_Exp,3.0.7,59.76407533651729,
video/Experiment/zh_sp01_Ad_Ge_2_NVocInAudio_GlobalThetaInVideo.avi,vocoded,plusVideo,sp01,Ad,Ge,2,0,1,flow/blocks/NVocInAudio_GlobalThetaInVideo_A.csv,,,,,,,,,0,0,0,0,0,23,23,1,,,,,,,,,-0.4305555555555556,0.31805555555555554,1,0,0,5.194303500000387,call1,0.001388888888888889,0.3375,1,0,0,5.750555299993721,colour1,0.36527777777777776,0.125,1,0,0,6.5652072000011685,number2,True,True,True,4,4,2019_Nov_11_1011,MA_Theta_Exp,3.0.7,59.76407533651729,
video/Experiment/zh_sp01_Dr_Gr_4_NVocInAudio_GlobalThetaInVideo.avi,vocoded,plusVideo,sp01,Dr,Gr,4,0,1,flow/blocks/NVocInAudio_GlobalThetaInVideo_A.csv,,,,,,,,,0,0,0,0,0,24,24,23,,,,,,,,,-0.375,0.11666666666666667,1,0,0,5.196165099994687,call2,0.006944444444444444,0.10138888888888889,1,0,0,5.726796499999182,colour2,0.41805555555555557,-0.25833333333333336,1,0,0,6.339936599993962,number4,True,True,True,4,4,2019_Nov_11_1011,MA_Theta_Exp,3.0.7,59.76407533651729,
video/Experiment/zh_sp07_Ad_Gr_3_NVocInAudio_GlobalThetaInVideo.avi,vocoded,plusVideo,sp07,Ad,Gr,3,0,1,flow/blocks/NVocInAudio_GlobalThetaInVideo_A.csv,,,,,,,,,0,0,0,0,0,25,25,6,,,,,,,,,-0.37083333333333335,0.3486111111111111,1,0,0,4.701909999996133,call1,-0.044444444444444446,0.058333333333333334,1,0,0,5.284529100004875,colour2,0.39166666666666666,-0.08333333333333333,1,0,0,5.852322300001106,number3,True,True,True,4,4,2019_Nov_11_1011,MA_Theta_Exp,3.0.7,59.76407533651729,
video/Experiment/zh_sp01_Dr_Ge_1_NVocInAudio_GlobalThetaInVideo.avi,vocoded,plusVideo,sp01,Dr,Ge,1,0,1,flow/blocks/NVocInAudio_GlobalThetaInVideo_A.csv,,,,,,,,,0,0,0,0,0,26,26,16,,,,,,,,,-0.36527777777777776,0.11944444444444445,1,0,0,5.19004760000098,call2,-0.03611111111111111,0.2972222222222222,1,0,0,5.774079700000584,colour1,0.41805555555555557,0.3277777777777778,1,0,0,6.284443500000634,number1,True,True,True,4,4,2019_Nov_11_1011,MA_Theta_Exp,3.0.7,59.76407533651729,
video/Experiment/zh_sp07_Ad_Ro_2_NVocInAudio_GlobalThetaInVideo.avi,vocoded,plusVideo,sp07,Ad,Ro,2,0,1,flow/blocks/NVocInAudio_GlobalThetaInVideo_A.csv,,,,,,,,,0,0,0,0,0,27,27,9,,,,,,,,,-0.42777777777777776,0.26805555555555555,1,0,0,4.589857400002074,call1,-0.022222222222222223,0.29305555555555557,1,0,0,5.044125200001872,colour1,0.3861111111111111,0.08472222222222223,1,0,0,5.557064500004344,number2,True,False,True,4,4,2019_Nov_11_1011,MA_Theta_Exp,3.0.7,59.76407533651729,
video/Experiment/zh_sp01_Dr_We_4_NVocInAudio_GlobalThetaInVideo.avi,vocoded,plusVideo,sp01,Dr,We,4,0,1,flow/blocks/NVocInAudio_GlobalThetaInVideo_A.csv,,,,,,,,,0,0,0,0,0,28,28,31,,,,,,,,,-0.4263888888888889,0.0875,1,0,0,5.222858000000997,call2,0.009722222222222222,0.36666666666666664,1,0,0,7.90261019999889,colour1,0.4,-0.35694444444444445,1,0,0,8.686041099994327,number4,True,False,True,4,4,2019_Nov_11_1011,MA_Theta_Exp,3.0.7,59.76407533651729,
video/Experiment/zh_sp01_Ad_Gr_2_NVocInAudio_GlobalThetaInVideo.avi,vocoded,plusVideo,sp01,Ad,Gr,2,0,1,flow/blocks/NVocInAudio_GlobalThetaInVideo_A.csv,,,,,,,,,0,0,0,0,0,29,29,5,,,,,,,,,-0.40555555555555556,0.31666666666666665,1,0,0,5.121672000001126,call1,0.0,0.14583333333333334,1,0,0,5.59182289999444,colour2,0.37222222222222223,0.10138888888888889,1,0,0,6.002588100003777,number2,True,True,True,4,4,2019_Nov_11_1011,MA_Theta_Exp,3.0.7,59.76407533651729,
video/Experiment/zh_sp07_Dr_We_1_NVocInAudio_GlobalThetaInVideo.avi,vocoded,plusVideo,sp07,Dr,We,1,0,1,flow/blocks/NVocInAudio_GlobalThetaInVideo_A.csv,,,,,,,,,0,0,0,0,0,30,30,28,,,,,,,,,-0.45416666666666666,0.10277777777777777,1,0,0,4.401010800000222,call2,-0.018055555555555554,-0.3416666666666667,1,0,0,5.037569000000076,colour4,0.4097222222222222,0.3472222222222222,1,0,0,5.747178800003894,number1,True,True,True,4,4,2019_Nov_11_1011,MA_Theta_Exp,3.0.7,59.76407533651729,
video/Experiment/zh_sp01_Ad_We_4_NVocInAudio_GlobalThetaInVideo.avi,vocoded,plusVideo,sp01,Ad,We,4,0,1,flow/blocks/NVocInAudio_GlobalThetaInVideo_A.csv,,,,,,,,,0,0,0,0,0,31,31,15,,,,,,,,,-0.3958333333333333,0.2972222222222222,1,0,0,4.968233499996131,call1,0.019444444444444445,-0.3125,1,0,0,5.614031000004616,colour4,0.3902777777777778,-0.3625,1,0,0,6.0521846000046935,number4,True,True,True,4,4,2019_Nov_11_1011,MA_Theta_Exp,3.0.7,59.76407533651729,
video/Experiment/zh_sp07_Dr_Gr_3_NoThetaInAudio_NoVideo.avi,noTheta,noVideo,sp07,Dr,Gr,3,1,4,flow/blocks/NoThetaInAudio_NoVideo_A.csv,,,,,,,,,0,1,1,1,0,0,0,22,,,,,,,,,-0.4097222222222222,0.2722222222222222,1,0,0,4.785077000000456,call1,0.020833333333333332,0.0625,1,0,0,5.387013299994578,colour2,0.42083333333333334,-0.07777777777777778,1,0,0,5.853620800000499,number3,False,True,True,4,4,2019_Nov_11_1011,MA_Theta_Exp,3.0.7,59.76407533651729,
video/Experiment/zh_sp01_Dr_Ge_3_NoThetaInAudio_NoVideo.avi,noTheta,noVideo,sp01,Dr,Ge,3,1,4,flow/blocks/NoThetaInAudio_NoVideo_A.csv,,,,,,,,,0,1,1,1,0,1,1,18,,,,,,,,,-0.4,0.05416666666666667,1,0,0,5.11415770000167,call2,-0.009722222222222222,0.30416666666666664,1,0,0,5.784083200000168,colour1,0.42777777777777776,-0.07222222222222222,1,0,0,6.413968199994997,number3,True,True,True,4,4,2019_Nov_11_1011,MA_Theta_Exp,3.0.7,59.76407533651729,
video/Experiment/zh_sp07_Ad_Gr_4_NoThetaInAudio_NoVideo.avi,noTheta,noVideo,sp07,Ad,Gr,4,1,4,flow/blocks/NoThetaInAudio_NoVideo_A.csv,,,,,,,,,0,1,1,1,0,2,2,7,,,,,,,,,-0.38472222222222224,0.3111111111111111,1,0,0,4.726314500003355,call1,-0.06111111111111111,0.14583333333333334,1,0,0,5.33098389999941,colour2,0.46944444444444444,-0.3541666666666667,1,0,0,5.942674999998417,number4,True,True,True,4,4,2019_Nov_11_1011,MA_Theta_Exp,3.0.7,59.76407533651729,
video/Experiment/zh_sp07_Dr_Ge_4_NoThetaInAudio_NoVideo.avi,noTheta,noVideo,sp07,Dr,Ge,4,1,4,flow/blocks/NoThetaInAudio_NoVideo_A.csv,,,,,,,,,0,1,1,1,0,3,3,19,,,,,,,,,-0.4013888888888889,0.1125,1,0,0,4.546720199999982,call2,-0.022222222222222223,0.30277777777777776,1,0,0,5.045010699999693,colour1,0.4041666666666667,-0.275,1,0,0,5.577456999999413,number4,True,True,True,4,4,2019_Nov_11_1011,MA_Theta_Exp,3.0.7,59.76407533651729,
video/Experiment/zh_sp07_Ad_Gr_1_NoThetaInAudio_NoVideo.avi,noTheta,noVideo,sp07,Ad,Gr,1,1,4,flow/blocks/NoThetaInAudio_NoVideo_A.csv,,,,,,,,,0,1,1,1,0,4,4,4,,,,,,,,,-0.4236111111111111,0.2875,1,0,0,4.52397860000201,call1,-0.06388888888888888,0.09861111111111111,1,0,0,5.070624100000714,colour2,0.3958333333333333,0.30833333333333335,1,0,0,5.606801700007054,number1,True,True,True,4,4,2019_Nov_11_1011,MA_Theta_Exp,3.0.7,59.76407533651729,
video/Experiment/zh_sp07_Ad_Ge_4_NoThetaInAudio_NoVideo.avi,noTheta,noVideo,sp07,Ad,Ge,4,1,4,flow/blocks/NoThetaInAudio_NoVideo_A.csv,,,,,,,,,0,1,1,1,0,5,5,3,,,,,,,,,-0.42916666666666664,0.030555555555555555,1,0,0,4.685961299997871,call2,-0.08194444444444444,0.07083333333333333,1,0,0,5.076943199994275,colour2,0.4361111111111111,-0.3236111111111111,1,0,0,5.859892899999977,number4,False,False,True,4,4,2019_Nov_11_1011,MA_Theta_Exp,3.0.7,59.76407533651729,
video/Experiment/zh_sp07_Ad_Gr_2_NoThetaInAudio_NoVideo.avi,noTheta,noVideo,sp07,Ad,Gr,2,1,4,flow/blocks/NoThetaInAudio_NoVideo_A.csv,,,,,,,,,0,1,1,1,0,6,6,5,,,,,,,,,-0.36666666666666664,0.28194444444444444,1,0,0,4.828588699994725,call1,0.0,0.11944444444444445,1,0,0,5.300514900001872,colour2,0.4263888888888889,0.05277777777777778,1,0,0,5.727926899999147,number2,True,True,True,4,4,2019_Nov_11_1011,MA_Theta_Exp,3.0.7,59.76407533651729,
video/Experiment/zh_sp01_Dr_Ro_3_NoThetaInAudio_NoVideo.avi,noTheta,noVideo,sp01,Dr,Ro,3,1,4,flow/blocks/NoThetaInAudio_NoVideo_A.csv,,,,,,,,,0,1,1,1,0,7,7,26,,,,,,,,,-0.42083333333333334,0.12361111111111112,1,0,0,5.23421199999575,call2,-0.016666666666666666,0.30833333333333335,1,0,0,5.79814289999922,colour1,0.4152777777777778,-0.1486111111111111,1,0,0,6.382426799995301,number3,True,False,True,4,4,2019_Nov_11_1011,MA_Theta_Exp,3.0.7,59.76407533651729,
video/Experiment/zh_sp07_Dr_Gr_1_NoThetaInAudio_NoVideo.avi,noTheta,noVideo,sp07,Dr,Gr,1,1,4,flow/blocks/NoThetaInAudio_NoVideo_A.csv,,,,,,,,,0,1,1,1,0,8,8,20,,,,,,,,,-0.4111111111111111,0.15138888888888888,1,0,0,4.422353300004033,call2,-0.075,0.09305555555555556,1,0,0,4.892805200004659,colour2,0.2972222222222222,0.2763888888888889,1,0,0,5.420814000004611,number1,True,True,True,4,4,2019_Nov_11_1011,MA_Theta_Exp,3.0.7,59.76407533651729,
video/Experiment/zh_sp01_Ad_Ge_3_NoThetaInAudio_NoVideo.avi,noTheta,noVideo,sp01,Ad,Ge,3,1,4,flow/blocks/NoThetaInAudio_NoVideo_A.csv,,,,,,,,,0,1,1,1,0,9,9,2,,,,,,,,,-0.3861111111111111,0.3263888888888889,1,0,0,4.83113769999909,call1,-0.05,0.29583333333333334,1,0,0,5.315537000002223,colour1,0.39861111111111114,-0.25972222222222224,1,0,0,6.747790699999314,number4,True,True,False,4,4,2019_Nov_11_1011,MA_Theta_Exp,3.0.7,59.76407533651729,
video/Experiment/zh_sp01_Ad_Ro_4_NoThetaInAudio_NoVideo.avi,noTheta,noVideo,sp01,Ad,Ro,4,1,4,flow/blocks/NoThetaInAudio_NoVideo_A.csv,,,,,,,,,0,1,1,1,0,10,10,11,,,,,,,,,-0.35138888888888886,0.28055555555555556,1,0,0,5.104972799999814,call1,0.034722222222222224,-0.11388888888888889,1,0,0,5.792150399996899,colour3,0.3736111111111111,-0.3111111111111111,1,0,0,6.374681300003431,number4,True,True,True,4,4,2019_Nov_11_1011,MA_Theta_Exp,3.0.7,59.76407533651729,
video/Experiment/zh_sp01_Ad_We_1_NoThetaInAudio_NoVideo.avi,noTheta,noVideo,sp01,Ad,We,1,1,4,flow/blocks/NoThetaInAudio_NoVideo_A.csv,,,,,,,,,0,1,1,1,0,11,11,12,,,,,,,,,-0.3680555555555556,0.3236111111111111,1,0,0,5.0684608000010485,call1,0.016666666666666666,-0.3736111111111111,1,0,0,5.773437099996954,colour4,0.41944444444444445,0.3375,1,0,0,6.535403199995926,number1,True,True,True,4,4,2019_Nov_11_1011,MA_Theta_Exp,3.0.7,59.76407533651729,
video/Experiment/zh_sp01_Dr_Gr_4_NoThetaInAudio_NoVideo.avi,noTheta,noVideo,sp01,Dr,Gr,4,1,4,flow/blocks/NoThetaInAudio_NoVideo_A.csv,,,,,,,,,0,1,1,1,0,12,12,23,,,,,,,,,-0.35833333333333334,0.10972222222222222,1,0,0,5.203356199999689,call2,0.025,0.12222222222222222,1,0,0,5.641684700000042,colour2,0.4222222222222222,-0.3458333333333333,1,0,0,6.52727330000198,number4,True,True,True,4,4,2019_Nov_11_1011,MA_Theta_Exp,3.0.7,59.76407533651729,
video/Experiment/zh_sp07_Ad_Ge_2_NoThetaInAudio_NoVideo.avi,noTheta,noVideo,sp07,Ad,Ge,2,1,4,flow/blocks/NoThetaInAudio_NoVideo_A.csv,,,,,,,,,0,1,1,1,0,13,13,1,,,,,,,,,-0.3958333333333333,0.31805555555555554,1,0,0,4.579983899995568,call1,0.006944444444444444,0.3375,1,0,0,4.957658100000117,colour1,0.4583333333333333,0.0625,1,0,0,5.416641499999969,number2,True,True,True,4,4,2019_Nov_11_1011,MA_Theta_Exp,3.0.7,59.76407533651729,
video/Experiment/zh_sp01_Ad_We_2_NoThetaInAudio_NoVideo.avi,noTheta,noVideo,sp01,Ad,We,2,1,4,flow/blocks/NoThetaInAudio_NoVideo_A.csv,,,,,,,,,0,1,1,1,0,14,14,13,,,,,,,,,-0.3902777777777778,0.2513888888888889,1,0,0,5.035403100002441,call1,0.0125,-0.38055555555555554,1,0,0,5.940764899998612,colour4,0.44166666666666665,0.16527777777777777,1,0,0,6.6216101000027265,number2,True,True,True,4,4,2019_Nov_11_1011,MA_Theta_Exp,3.0.7,59.76407533651729,
video/Experiment/zh_sp01_Dr_We_2_NoThetaInAudio_NoVideo.avi,noTheta,noVideo,sp01,Dr,We,2,1,4,flow/blocks/NoThetaInAudio_NoVideo_A.csv,,,,,,,,,0,1,1,1,0,15,15,29,,,,,,,,,-0.41805555555555557,0.0763888888888889,1,0,0,5.182038699997065,call2,0.011111111111111112,-0.36666666666666664,1,0,0,6.394690100001753,colour4,0.38472222222222224,0.020833333333333332,1,0,0,6.831452200000058,number2,True,True,True,4,4,2019_Nov_11_1011,MA_Theta_Exp,3.0.7,59.76407533651729,
video/Experiment/zh_sp07_Ad_Ro_2_NoThetaInAudio_NoVideo.avi,noTheta,noVideo,sp07,Ad,Ro,2,1,4,flow/blocks/NoThetaInAudio_NoVideo_A.csv,,,,,,,,,0,1,1,1,0,16,16,9,,,,,,,,,-0.3763888888888889,0.32222222222222224,1,0,0,4.492105700002867,call1,-0.025,-0.09583333333333334,1,0,0,5.39142140000331,colour3,0.48194444444444445,0.11388888888888889,1,0,0,6.178956600000674,number2,True,True,True,4,4,2019_Nov_11_1011,MA_Theta_Exp,3.0.7,59.76407533651729,
video/Experiment/zh_sp01_Dr_We_3_NoThetaInAudio_NoVideo.avi,noTheta,noVideo,sp01,Dr,We,3,1,4,flow/blocks/NoThetaInAudio_NoVideo_A.csv,,,,,,,,,0,1,1,1,0,17,17,30,,,,,,,,,-0.44722222222222224,0.12222222222222222,1,0,0,4.946480000005977,call2,-0.03194444444444444,-0.3375,1,0,0,5.577904099998705,colour4,0.4791666666666667,-0.11805555555555555,1,0,0,6.155292099996586,number3,True,True,True,4,4,2019_Nov_11_1011,MA_Theta_Exp,3.0.7,59.76407533651729,
video/Experiment/zh_sp01_Dr_Ro_2_NoThetaInAudio_NoVideo.avi,noTheta,noVideo,sp01,Dr,Ro,2,1,4,flow/blocks/NoThetaInAudio_NoVideo_A.csv,,,,,,,,,0,1,1,1,0,18,18,25,,,,,,,,,-0.3888888888888889,0.13472222222222222,1,0,0,5.696438899998611,call2,0.029166666666666667,-0.3625,1,0,0,6.543416500004241,colour4,0.41944444444444445,0.10138888888888889,1,0,0,7.124036600005638,number2,True,False,True,4,4,2019_Nov_11_1011,MA_Theta_Exp,3.0.7,59.76407533651729,
video/Experiment/zh_sp07_Dr_Ge_1_NoThetaInAudio_NoVideo.avi,noTheta,noVideo,sp07,Dr,Ge,1,1,4,flow/blocks/NoThetaInAudio_NoVideo_A.csv,,,,,,,,,0,1,1,1,0,19,19,16,,,,,,,,,-0.44583333333333336,0.06666666666666667,1,0,0,4.853571700004977,call2,0.041666666666666664,0.2847222222222222,1,0,0,5.739345899994078,colour1,0.38472222222222224,0.2972222222222222,1,0,0,6.122010600003705,number1,True,True,True,4,4,2019_Nov_11_1011,MA_Theta_Exp,3.0.7,59.76407533651729,
video/Experiment/zh_sp01_Dr_We_1_NoThetaInAudio_NoVideo.avi,noTheta,noVideo,sp01,Dr,We,1,1,4,flow/blocks/NoThetaInAudio_NoVideo_A.csv,,,,,,,,,0,1,1,1,0,20,20,28,,,,,,,,,-0.4166666666666667,0.10972222222222222,1,0,0,5.289710600001854,call2,0.020833333333333332,-0.2916666666666667,1,0,0,6.0186503999939305,colour4,0.475,0.33055555555555555,1,0,0,6.744787700001325,number1,True,True,True,4,4,2019_Nov_11_1011,MA_Theta_Exp,3.0.7,59.76407533651729,
video/Experiment/zh_sp01_Ad_Gr_3_NoThetaInAudio_NoVideo.avi,noTheta,noVideo,sp01,Ad,Gr,3,1,4,flow/blocks/NoThetaInAudio_NoVideo_A.csv,,,,,,,,,0,1,1,1,0,21,21,6,,,,,,,,,-0.45555555555555555,0.2916666666666667,1,0,0,5.274887400002626,call1,0.02638888888888889,0.0763888888888889,1,0,0,5.892849199997727,colour2,0.41805555555555557,-0.1986111111111111,1,0,0,6.48796399999992,number3,True,True,True,4,4,2019_Nov_11_1011,MA_Theta_Exp,3.0.7,59.76407533651729,
video/Experiment/zh_sp07_Dr_Ge_2_NoThetaInAudio_NoVideo.avi,noTheta,noVideo,sp07,Dr,Ge,2,1,4,flow/blocks/NoThetaInAudio_NoVideo_A.csv,,,,,,,,,0,1,1,1,0,22,22,17,,,,,,,,,-0.3680555555555556,0.09444444444444444,1,0,0,4.315205600003537,call2,-0.015277777777777777,0.3388888888888889,1,0,0,4.8483036999969045,colour1,0.4027777777777778,0.04027777777777778,1,0,0,5.582819900002505,number2,True,True,True,4,4,2019_Nov_11_1011,MA_Theta_Exp,3.0.7,59.76407533651729,
video/Experiment/zh_sp07_Dr_Ro_1_NoThetaInAudio_NoVideo.avi,noTheta,noVideo,sp07,Dr,Ro,1,1,4,flow/blocks/NoThetaInAudio_NoVideo_A.csv,,,,,,,,,0,1,1,1,0,23,23,24,,,,,,,,,-0.35138888888888886,0.08888888888888889,1,0,0,4.7007098000030965,call2,-0.002777777777777778,-0.0875,1,0,0,5.163498200003232,colour3,0.4583333333333333,0.3111111111111111,1,0,0,5.947999700001674,number1,True,True,True,4,4,2019_Nov_11_1011,MA_Theta_Exp,3.0.7,59.76407533651729,
video/Experiment/zh_sp07_Ad_Ro_1_NoThetaInAudio_NoVideo.avi,noTheta,noVideo,sp07,Ad,Ro,1,1,4,flow/blocks/NoThetaInAudio_NoVideo_A.csv,,,,,,,,,0,1,1,1,0,24,24,8,,,,,,,,,-0.39166666666666666,0.3333333333333333,1,0,0,5.051401800003077,call1,0.009722222222222222,-0.07361111111111111,1,0,0,5.783441999999923,colour3,0.39166666666666666,0.22777777777777777,1,0,0,6.268127600000298,number1,True,True,True,4,4,2019_Nov_11_1011,MA_Theta_Exp,3.0.7,59.76407533651729,
video/Experiment/zh_sp07_Dr_We_4_NoThetaInAudio_NoVideo.avi,noTheta,noVideo,sp07,Dr,We,4,1,4,flow/blocks/NoThetaInAudio_NoVideo_A.csv,,,,,,,,,0,1,1,1,0,25,25,31,,,,,,,,,-0.3819444444444444,0.07361111111111111,1,0,0,5.466067599998496,call2,0.025,-0.3388888888888889,1,0,0,6.364805700002762,colour4,0.43333333333333335,-0.3597222222222222,1,0,0,6.772410499994294,number4,True,True,True,4,4,2019_Nov_11_1011,MA_Theta_Exp,3.0.7,59.76407533651729,
video/Experiment/zh_sp01_Ad_We_3_NoThetaInAudio_NoVideo.avi,noTheta,noVideo,sp01,Ad,We,3,1,4,flow/blocks/NoThetaInAudio_NoVideo_A.csv,,,,,,,,,0,1,1,1,0,26,26,14,,,,,,,,,-0.4388888888888889,0.3138888888888889,1,0,0,4.880591000001004,call1,0.009722222222222222,-0.28055555555555556,1,0,0,5.494618800003082,colour4,0.38333333333333336,-0.13472222222222222,1,0,0,5.97345239999413,number3,True,True,True,4,4,2019_Nov_11_1011,MA_Theta_Exp,3.0.7,59.76407533651729,
video/Experiment/zh_sp01_Ad_Ro_3_NoThetaInAudio_NoVideo.avi,noTheta,noVideo,sp01,Ad,Ro,3,1,4,flow/blocks/NoThetaInAudio_NoVideo_A.csv,,,,,,,,,0,1,1,1,0,27,27,10,,,,,,,,,-0.37222222222222223,0.3013888888888889,1,0,0,4.922005200001877,call1,0.02638888888888889,-0.35833333333333334,1,0,0,5.706547599998885,colour4,0.3972222222222222,-0.3375,1,0,0,6.053859300001932,number4,True,False,False,4,4,2019_Nov_11_1011,MA_Theta_Exp,3.0.7,59.76407533651729,
video/Experiment/zh_sp07_Dr_Gr_2_NoThetaInAudio_NoVideo.avi,noTheta,noVideo,sp07,Dr,Gr,2,1,4,flow/blocks/NoThetaInAudio_NoVideo_A.csv,,,,,,,,,0,1,1,1,0,28,28,21,,,,,,,,,-0.4125,0.12777777777777777,1,0,0,4.519742800002859,call2,-0.04861111111111111,0.10277777777777777,1,0,0,5.0926239999971585,colour2,0.425,0.09305555555555556,1,0,0,5.424958499999775,number2,True,True,True,4,4,2019_Nov_11_1011,MA_Theta_Exp,3.0.7,59.76407533651729,
video/Experiment/zh_sp01_Ad_We_4_NoThetaInAudio_NoVideo.avi,noTheta,noVideo,sp01,Ad,We,4,1,4,flow/blocks/NoThetaInAudio_NoVideo_A.csv,,,,,,,,,0,1,1,1,0,29,29,15,,,,,,,,,-0.38333333333333336,0.25833333333333336,1,0,0,5.1562176999941585,call1,0.04027777777777778,-0.3472222222222222,1,0,0,6.3076568999968,colour4,0.4444444444444444,-0.3333333333333333,1,0,0,6.794880800000101,number4,True,True,True,4,4,2019_Nov_11_1011,MA_Theta_Exp,3.0.7,59.76407533651729,
video/Experiment/zh_sp01_Dr_Ro_4_NoThetaInAudio_NoVideo.avi,noTheta,noVideo,sp01,Dr,Ro,4,1,4,flow/blocks/NoThetaInAudio_NoVideo_A.csv,,,,,,,,,0,1,1,1,0,30,30,27,,,,,,,,,-0.40694444444444444,0.09861111111111111,1,0,0,5.254946799999743,call2,-0.005555555555555556,-0.3958333333333333,1,0,0,7.565211100001761,colour4,0.3888888888888889,-0.32083333333333336,1,0,0,7.978807200001029,number4,True,False,True,4,4,2019_Nov_11_1011,MA_Theta_Exp,3.0.7,59.76407533651729,
video/Experiment/zh_sp07_Ad_Ge_1_NoThetaInAudio_NoVideo.avi,noTheta,noVideo,sp07,Ad,Ge,1,1,4,flow/blocks/NoThetaInAudio_NoVideo_A.csv,,,,,,,,,0,1,1,1,0,31,31,0,,,,,,,,,-0.44305555555555554,0.30972222222222223,1,0,0,4.4487434000038775,call1,-0.07777777777777778,0.3472222222222222,1,0,0,4.7850388000006205,colour1,0.3736111111111111,0.3111111111111111,1,0,0,5.1181036999987555,number1,True,True,True,4,4,2019_Nov_11_1011,MA_Theta_Exp,3.0.7,59.76407533651729,
video/Experiment/zh_sp01_Ad_Ge_2_NVocInAudio_NoVideo.avi,vocoded,noVideo,sp01,Ad,Ge,2,2,2,flow/blocks/NVocInAudio_NoVideo_A.csv,,,,,,,,,0,2,2,2,0,0,0,1,,,,,,,,,-0.3902777777777778,0.29444444444444445,1,0,0,5.375180699993507,call1,0.005555555555555556,0.3527777777777778,1,0,0,5.867610599998443,colour1,0.3958333333333333,0.09444444444444444,1,0,0,6.433716700004879,number2,True,True,True,4,4,2019_Nov_11_1011,MA_Theta_Exp,3.0.7,59.76407533651729,
video/Experiment/zh_sp01_Dr_Ro_3_NVocInAudio_NoVideo.avi,vocoded,noVideo,sp01,Dr,Ro,3,2,2,flow/blocks/NVocInAudio_NoVideo_A.csv,,,,,,,,,0,2,2,2,0,1,1,26,,,,,,,,,-0.41944444444444445,0.12222222222222222,1,0,0,4.883976500001154,call2,-0.019444444444444445,-0.12083333333333333,1,0,0,5.41676130000269,colour3,0.35833333333333334,-0.13333333333333333,1,0,0,5.747910500002035,number3,True,True,True,4,4,2019_Nov_11_1011,MA_Theta_Exp,3.0.7,59.76407533651729,
video/Experiment/zh_sp07_Ad_Ro_2_NVocInAudio_NoVideo.avi,vocoded,noVideo,sp07,Ad,Ro,2,2,2,flow/blocks/NVocInAudio_NoVideo_A.csv,,,,,,,,,0,2,2,2,0,2,2,9,,,,,,,,,-0.37083333333333335,0.3055555555555556,1,0,0,4.662495399999898,call1,0.013888888888888888,-0.15138888888888888,1,0,0,5.391458799997054,colour3,0.4,0.15,1,0,0,5.958991399995284,number2,True,True,True,4,4,2019_Nov_11_1011,MA_Theta_Exp,3.0.7,59.76407533651729,
video/Experiment/zh_sp01_Dr_Ro_4_NVocInAudio_NoVideo.avi,vocoded,noVideo,sp01,Dr,Ro,4,2,2,flow/blocks/NVocInAudio_NoVideo_A.csv,,,,,,,,,0,2,2,2,0,3,3,27,,,,,,,,,-0.4722222222222222,0.08888888888888889,1,0,0,4.8397372999970685,call2,-0.027777777777777776,-0.1486111111111111,1,0,0,5.3902745000013965,colour3,0.3541666666666667,-0.29305555555555557,1,0,0,5.82321100000263,number4,True,True,True,4,4,2019_Nov_11_1011,MA_Theta_Exp,3.0.7,59.76407533651729,
video/Experiment/zh_sp01_Ad_Gr_2_NVocInAudio_NoVideo.avi,vocoded,noVideo,sp01,Ad,Gr,2,2,2,flow/blocks/NVocInAudio_NoVideo_A.csv,,,,,,,,,0,2,2,2,0,4,4,5,,,,,,,,,-0.45694444444444443,0.325,1,0,0,5.31394160000491,call1,-0.001388888888888889,0.12361111111111112,1,0,0,5.827760500003933,colour2,0.36944444444444446,0.075,1,0,0,6.1775988999943365,number2,True,True,True,4,4,2019_Nov_11_1011,MA_Theta_Exp,3.0.7,59.76407533651729,
video/Experiment/zh_sp01_Ad_Gr_3_NVocInAudio_NoVideo.avi,vocoded,noVideo,sp01,Ad,Gr,3,2,2,flow/blocks/NVocInAudio_NoVideo_A.csv,,,,,,,,,0,2,2,2,0,5,5,6,,,,,,,,,-0.3819444444444444,0.30277777777777776,1,0,0,5.172857799996564,call1,0.034722222222222224,0.09861111111111111,1,0,0,5.8027298000015435,colour2,0.45416666666666666,-0.1111111111111111,1,0,0,6.267808399999922,number3,True,True,True,4,4,2019_Nov_11_1011,MA_Theta_Exp,3.0.7,59.76407533651729,
video/Experiment/zh_sp07_Dr_Ge_2_NVocInAudio_NoVideo.avi,vocoded,noVideo,sp07,Dr,Ge,2,2,2,flow/blocks/NVocInAudio_NoVideo_A.csv,,,,,,,,,0,2,2,2,0,6,6,17,,,,,,,,,-0.39166666666666666,0.12361111111111112,1,0,0,4.7307136000017636,call2,0.0125,0.1,1,0,0,5.225796200000332,colour2,0.4097222222222222,0.09722222222222222,1,0,0,5.62526760000037,number2,True,False,True,4,4,2019_Nov_11_1011,MA_Theta_Exp,3.0.7,59.76407533651729,
video/Experiment/zh_sp01_Ad_We_2_NVocInAudio_NoVideo.avi,vocoded,noVideo,sp01,Ad,We,2,2,2,flow/blocks/NVocInAudio_NoVideo_A.csv,,,,,,,,,0,2,2,2,0,7,7,13,,,,,,,,,-0.3902777777777778,0.2875,1,0,0,4.999931500002276,call1,-0.030555555555555555,-0.31805555555555554,1,0,0,5.782532199998968,colour4,0.4513888888888889,0.08888888888888889,1,0,0,6.449898899998516,number2,True,True,True,4,4,2019_Nov_11_1011,MA_Theta_Exp,3.0.7,59.76407533651729,
video/Experiment/zh_sp07_Dr_Gr_1_NVocInAudio_NoVideo.avi,vocoded,noVideo,sp07,Dr,Gr,1,2,2,flow/blocks/NVocInAudio_NoVideo_A.csv,,,,,,,,,0,2,2,2,0,8,8,20,,,,,,,,,-0.3958333333333333,0.04722222222222222,1,0,0,4.647552199996426,call2,0.022222222222222223,0.1111111111111111,1,0,0,5.002080099999148,colour2,0.44027777777777777,0.29583333333333334,1,0,0,5.361948800004029,number1,True,True,True,4,4,2019_Nov_11_1011,MA_Theta_Exp,3.0.7,59.76407533651729,
video/Experiment/zh_sp01_Dr_Gr_4_NVocInAudio_NoVideo.avi,vocoded,noVideo,sp01,Dr,Gr,4,2,2,flow/blocks/NVocInAudio_NoVideo_A.csv,,,,,,,,,0,2,2,2,0,9,9,23,,,,,,,,,-0.4263888888888889,0.12777777777777777,1,0,0,5.259555600001477,call2,-0.04027777777777778,0.13194444444444445,1,0,0,5.643433299999742,colour2,0.43472222222222223,-0.35555555555555557,1,0,0,6.276455400002305,number4,True,True,True,4,4,2019_Nov_11_1011,MA_Theta_Exp,3.0.7,59.76407533651729,
video/Experiment/zh_sp07_Dr_We_1_NVocInAudio_NoVideo.avi,vocoded,noVideo,sp07,Dr,We,1,2,2,flow/blocks/NVocInAudio_NoVideo_A.csv,,,,,,,,,0,2,2,2,0,10,10,28,,,,,,,,,-0.4111111111111111,0.30833333333333335,1,0,0,5.194870199993602,call1,0.0,-0.35833333333333334,1,0,0,5.9947996999981115,colour4,0.38472222222222224,0.30416666666666664,1,0,0,6.745126099995105,number1,False,True,True,4,4,2019_Nov_11_1011,MA_Theta_Exp,3.0.7,59.76407533651729,
video/Experiment/zh_sp01_Dr_We_3_NVocInAudio_NoVideo.avi,vocoded,noVideo,sp01,Dr,We,3,2,2,flow/blocks/NVocInAudio_NoVideo_A.csv,,,,,,,,,0,2,2,2,0,11,11,30,,,,,,,,,-0.375,0.10555555555555556,1,0,0,5.42537469999661,call2,0.019444444444444445,-0.3527777777777778,1,0,0,6.058764499997778,colour4,0.4041666666666667,-0.10972222222222222,1,0,0,6.552326500001072,number3,True,True,True,4,4,2019_Nov_11_1011,MA_Theta_Exp,3.0.7,59.76407533651729,
video/Experiment/zh_sp07_Dr_Ge_3_NVocInAudio_NoVideo.avi,vocoded,noVideo,sp07,Dr,Ge,3,2,2,flow/blocks/NVocInAudio_NoVideo_A.csv,,,,,,,,,0,2,2,2,0,12,12,18,,,,,,,,,-0.45555555555555555,0.10694444444444444,1,0,0,4.461436900004628,call2,-0.05,0.3111111111111111,1,0,0,4.887945099995704,colour1,0.41388888888888886,-0.058333333333333334,1,0,0,5.626360399997793,number3,True,True,True,4,4,2019_Nov_11_1011,MA_Theta_Exp,3.0.7,59.76407533651729,
video/Experiment/zh_sp07_Dr_Gr_2_NVocInAudio_NoVideo.avi,vocoded,noVideo,sp07,Dr,Gr,2,2,2,flow/blocks/NVocInAudio_NoVideo_A.csv,,,,,,,,,0,2,2,2,0,13,13,21,,,,,,,,,-0.3597222222222222,0.2833333333333333,1,0,0,4.7782787999967695,call1,-0.04722222222222222,0.11388888888888889,1,0,0,5.255337000002328,colour2,0.44722222222222224,0.07777777777777778,1,0,0,5.725020899997617,number2,False,True,True,4,4,2019_Nov_11_1011,MA_Theta_Exp,3.0.7,59.76407533651729,
video/Experiment/zh_sp07_Ad_We_1_NVocInAudio_NoVideo.avi,vocoded,noVideo,sp07,Ad,We,1,2,2,flow/blocks/NVocInAudio_NoVideo_A.csv,,,,,,,,,0,2,2,2,0,14,14,12,,,,,,,,,-0.3680555555555556,0.3013888888888889,1,0,0,4.284087600004568,call1,-0.013888888888888888,-0.34444444444444444,1,0,0,4.922931900000549,colour4,0.41388888888888886,0.2916666666666667,1,0,0,5.58466629999748,number1,True,True,True,4,4,2019_Nov_11_1011,MA_Theta_Exp,3.0.7,59.76407533651729,
video/Experiment/zh_sp01_Dr_Ge_1_NVocInAudio_NoVideo.avi,vocoded,noVideo,sp01,Dr,Ge,1,2,2,flow/blocks/NVocInAudio_NoVideo_A.csv,,,,,,,,,0,2,2,2,0,15,15,16,,,,,,,,,-0.39305555555555555,0.1388888888888889,1,0,0,5.003856599993014,call2,-0.04583333333333333,0.2722222222222222,1,0,0,5.359326300000248,colour1,0.32222222222222224,0.2708333333333333,1,0,0,5.65407000000414,number1,True,True,True,4,4,2019_Nov_11_1011,MA_Theta_Exp,3.0.7,59.76407533651729,
video/Experiment/zh_sp01_Ad_We_4_NVocInAudio_NoVideo.avi,vocoded,noVideo,sp01,Ad,We,4,2,2,flow/blocks/NVocInAudio_NoVideo_A.csv,,,,,,,,,0,2,2,2,0,16,16,15,,,,,,,,,-0.39305555555555555,0.3375,1,0,0,5.131819999995059,call1,-0.041666666666666664,-0.37222222222222223,1,0,0,5.838364200004435,colour4,0.48333333333333334,-0.2847222222222222,1,0,0,6.4982985999959055,number4,True,True,True,4,4,2019_Nov_11_1011,MA_Theta_Exp,3.0.7,59.76407533651729,
video/Experiment/zh_sp01_Dr_Ro_1_NVocInAudio_NoVideo.avi,vocoded,noVideo,sp01,Dr,Ro,1,2,2,flow/blocks/NVocInAudio_NoVideo_A.csv,,,,,,,,,0,2,2,2,0,17,17,24,,,,,,,,,-0.32222222222222224,0.11527777777777778,1,0,0,5.157083500002045,call2,0.05138888888888889,-0.1111111111111111,1,0,0,5.697140100004617,colour3,0.3486111111111111,0.31666666666666665,1,0,0,6.1801018999976804,number1,True,True,True,4,4,2019_Nov_11_1011,MA_Theta_Exp,3.0.7,59.76407533651729,
video/Experiment/zh_sp01_Ad_Gr_4_NVocInAudio_NoVideo.avi,vocoded,noVideo,sp01,Ad,Gr,4,2,2,flow/blocks/NVocInAudio_NoVideo_A.csv,,,,,,,,,0,2,2,2,0,18,18,7,,,,,,,,,-0.3388888888888889,0.3527777777777778,1,0,0,5.163365599997633,call1,-0.027777777777777776,0.14583333333333334,1,0,0,5.561943800006702,colour2,0.4597222222222222,-0.28888888888888886,1,0,0,6.185026200000721,number4,True,True,True,4,4,2019_Nov_11_1011,MA_Theta_Exp,3.0.7,59.76407533651729,
video/Experiment/zh_sp07_Ad_Ge_4_NVocInAudio_NoVideo.avi,vocoded,noVideo,sp07,Ad,Ge,4,2,2,flow/blocks/NVocInAudio_NoVideo_A.csv,,,,,,,,,0,2,2,2,0,19,19,3,,,,,,,,,-0.37777777777777777,0.3138888888888889,1,0,0,4.558672099999967,call1,-0.011111111111111112,0.2916666666666667,1,0,0,4.923257800001011,colour1,0.44305555555555554,-0.375,1,0,0,5.689129099999263,number4,True,True,True,4,4,2019_Nov_11_1011,MA_Theta_Exp,3.0.7,59.76407533651729,
video/Experiment/zh_sp01_Ad_We_3_NVocInAudio_NoVideo.avi,vocoded,noVideo,sp01,Ad,We,3,2,2,flow/blocks/NVocInAudio_NoVideo_A.csv,,,,,,,,,0,2,2,2,0,20,20,14,,,,,,,,,-0.36666666666666664,0.2847222222222222,1,0,0,5.373547299997881,call1,0.029166666666666667,-0.33055555555555555,1,0,0,6.022715300001437,colour4,0.4041666666666667,-0.17222222222222222,1,0,0,6.3747273000044515,number3,True,True,True,4,4,2019_Nov_11_1011,MA_Theta_Exp,3.0.7,59.76407533651729,
video/Experiment/zh_sp07_Dr_We_2_NVocInAudio_NoVideo.avi,vocoded,noVideo,sp07,Dr,We,2,2,2,flow/blocks/NVocInAudio_NoVideo_A.csv,,,,,,,,,0,2,2,2,0,21,21,29,,,,,,,,,-0.41388888888888886,0.1125,1,0,0,4.696343099996739,call2,0.001388888888888889,-0.30972222222222223,1,0,0,5.530721299997822,colour4,0.4236111111111111,0.13333333333333333,1,0,0,6.131906999995408,number2,True,True,True,4,4,2019_Nov_11_1011,MA_Theta_Exp,3.0.7,59.76407533651729,
video/Experiment/zh_sp07_Ad_Ro_1_NVocInAudio_NoVideo.avi,vocoded,noVideo,sp07,Ad,Ro,1,2,2,flow/blocks/NVocInAudio_NoVideo_A.csv,,,,,,,,,0,2,2,2,0,22,22,8,,,,,,,,,-0.3277777777777778,0.2861111111111111,1,0,0,4.486264099999971,call1,-0.002777777777777778,-0.07777777777777778,1,0,0,5.169738999997207,colour3,0.3680555555555556,0.26805555555555555,1,0,0,5.588043199997628,number1,True,True,True,4,4,2019_Nov_11_1011,MA_Theta_Exp,3.0.7,59.76407533651729,
video/Experiment/zh_sp01_Ad_Ro_3_NVocInAudio_NoVideo.avi,vocoded,noVideo,sp01,Ad,Ro,3,2,2,flow/blocks/NVocInAudio_NoVideo_A.csv,,,,,,,,,0,2,2,2,0,23,23,10,,,,,,,,,-0.3402777777777778,0.28888888888888886,1,0,0,4.973262100000284,call1,0.004166666666666667,-0.16666666666666666,1,0,0,5.476775399998587,colour3,0.3819444444444444,-0.12638888888888888,1,0,0,5.794726000000082,number3,True,True,True,4,4,2019_Nov_11_1011,MA_Theta_Exp,3.0.7,59.76407533651729,
video/Experiment/zh_sp07_Ad_Ro_4_NVocInAudio_NoVideo.avi,vocoded,noVideo,sp07,Ad,Ro,4,2,2,flow/blocks/NVocInAudio_NoVideo_A.csv,,,,,,,,,0,2,2,2,0,24,24,11,,,,,,,,,-0.4263888888888889,0.30277777777777776,1,0,0,4.720852599995851,call1,0.011111111111111112,-0.12638888888888888,1,0,0,5.336859300005017,colour3,0.3055555555555556,-0.32222222222222224,1,0,0,5.691257600003155,number4,True,True,True,4,4,2019_Nov_11_1011,MA_Theta_Exp,3.0.7,59.76407533651729,
video/Experiment/zh_sp01_Ad_Ge_3_NVocInAudio_NoVideo.avi,vocoded,noVideo,sp01,Ad,Ge,3,2,2,flow/blocks/NVocInAudio_NoVideo_A.csv,,,,,,,,,0,2,2,2,0,25,25,2,,,,,,,,,-0.4444444444444444,0.3458333333333333,1,0,0,4.781882300005236,call1,-0.013888888888888888,0.24583333333333332,1,0,0,5.191611700000067,colour1,0.38333333333333336,-0.058333333333333334,1,0,0,5.675311899998633,number3,True,True,True,4,4,2019_Nov_11_1011,MA_Theta_Exp,3.0.7,59.76407533651729,
video/Experiment/zh_sp01_Dr_We_4_NVocInAudio_NoVideo.avi,vocoded,noVideo,sp01,Dr,We,4,2,2,flow/blocks/NVocInAudio_NoVideo_A.csv,,,,,,,,,0,2,2,2,0,26,26,31,,,,,,,,,-0.3958333333333333,0.12361111111111112,1,0,0,5.791896700000507,call2,-0.034722222222222224,-0.10277777777777777,1,0,0,6.3416970999969635,colour3,0.35694444444444445,-0.34444444444444444,1,0,0,6.880014200003643,number4,True,False,True,4,4,2019_Nov_11_1011,MA_Theta_Exp,3.0.7,59.76407533651729,
video/Experiment/zh_sp07_Dr_Gr_3_NVocInAudio_NoVideo.avi,vocoded,noVideo,sp07,Dr,Gr,3,2,2,flow/blocks/NVocInAudio_NoVideo_A.csv,,,,,,,,,0,2,2,2,0,27,27,22,,,,,,,,,-0.4263888888888889,0.1597222222222222,1,0,0,4.576882000001206,call2,0.03333333333333333,-0.11805555555555555,1,0,0,6.2236475000026985,colour3,0.4388888888888889,-0.13194444444444445,1,0,0,6.5936796000023605,number3,True,False,True,4,4,2019_Nov_11_1011,MA_Theta_Exp,3.0.7,59.76407533651729,
video/Experiment/zh_sp07_Ad_Ge_1_NVocInAudio_NoVideo.avi,vocoded,noVideo,sp07,Ad,Ge,1,2,2,flow/blocks/NVocInAudio_NoVideo_A.csv,,,,,,,,,0,2,2,2,0,28,28,0,,,,,,,,,-0.43194444444444446,0.3333333333333333,1,0,0,4.39992400000483,call1,0.006944444444444444,0.3527777777777778,1,0,0,4.734524899999087,colour1,0.375,0.33194444444444443,1,0,0,5.080423200000951,number1,True,True,True,4,4,2019_Nov_11_1011,MA_Theta_Exp,3.0.7,59.76407533651729,
video/Experiment/zh_sp07_Dr_Ro_2_NVocInAudio_NoVideo.avi,vocoded,noVideo,sp07,Dr,Ro,2,2,2,flow/blocks/NVocInAudio_NoVideo_A.csv,,,,,,,,,0,2,2,2,0,29,29,25,,,,,,,,,-0.4111111111111111,0.1527777777777778,1,0,0,5.0003667999990284,call2,0.018055555555555554,0.31805555555555554,1,0,0,6.164474800003518,colour1,0.4486111111111111,0.09583333333333334,1,0,0,6.5312263000014354,number2,True,False,True,4,4,2019_Nov_11_1011,MA_Theta_Exp,3.0.7,59.76407533651729,
video/Experiment/zh_sp07_Dr_Ge_4_NVocInAudio_NoVideo.avi,vocoded,noVideo,sp07,Dr,Ge,4,2,2,flow/blocks/NVocInAudio_NoVideo_A.csv,,,,,,,,,0,2,2,2,0,30,30,19,,,,,,,,,-0.3875,0.11944444444444445,1,0,0,4.546916300001612,call2,-0.004166666666666667,0.2833333333333333,1,0,0,4.949070200003916,colour1,0.3972222222222222,-0.34305555555555556,1,0,0,5.512287199999264,number4,True,True,True,4,4,2019_Nov_11_1011,MA_Theta_Exp,3.0.7,59.76407533651729,
video/Experiment/zh_sp07_Ad_Gr_1_NVocInAudio_NoVideo.avi,vocoded,noVideo,sp07,Ad,Gr,1,2,2,flow/blocks/NVocInAudio_NoVideo_A.csv,,,,,,,,,0,2,2,2,0,31,31,4,,,,,,,,,-0.3541666666666667,0.31666666666666665,1,0,0,4.696866299993417,call1,0.020833333333333332,0.12222222222222222,1,0,0,5.1627353000003495,colour2,0.46805555555555556,0.2902777777777778,1,0,0,5.6938069999960135,number1,True,True,True,4,4,2019_Nov_11_1011,MA_Theta_Exp,3.0.7,59.76407533651729,
video/Experiment/zh_sp07_Ad_Ge_2_NoThetaInAudio_GlobalThetaInVideo.avi,noTheta,plusVideo,sp07,Ad,Ge,2,3,3,flow/blocks/NoThetaInAudio_GlobalThetaInVideo_A.csv,,,,,,,,,0,3,3,3,0,0,0,1,,,,,,,,,-0.4222222222222222,0.28055555555555556,1,0,0,4.7933878999974695,call1,-0.018055555555555554,0.3194444444444444,1,0,0,5.32940399999643,colour1,0.4,0.0763888888888889,1,0,0,5.870721499995852,number2,True,True,True,4,4,2019_Nov_11_1011,MA_Theta_Exp,3.0.7,59.76407533651729,
video/Experiment/zh_sp07_Dr_We_2_NoThetaInAudio_GlobalThetaInVideo.avi,noTheta,plusVideo,sp07,Dr,We,2,3,3,flow/blocks/NoThetaInAudio_GlobalThetaInVideo_A.csv,,,,,,,,,0,3,3,3,0,1,1,29,,,,,,,,,-0.44722222222222224,0.10833333333333334,1,0,0,4.492566699998861,call2,-0.041666666666666664,0.1125,1,0,0,4.861370300000999,colour2,0.4097222222222222,0.05416666666666667,1,0,0,5.297576400000253,number2,True,False,True,4,4,2019_Nov_11_1011,MA_Theta_Exp,3.0.7,59.76407533651729,
video/Experiment/zh_sp07_Ad_We_1_NoThetaInAudio_GlobalThetaInVideo.avi,noTheta,plusVideo,sp07,Ad,We,1,3,3,flow/blocks/NoThetaInAudio_GlobalThetaInVideo_A.csv,,,,,,,,,0,3,3,3,0,2,2,12,,,,,,,,,-0.33055555555555555,0.26944444444444443,1,0,0,4.594382999996014,call1,-0.044444444444444446,-0.28055555555555556,1,0,0,5.162236099997244,colour4,0.3375,0.25,1,0,0,5.615021400000842,number1,True,True,True,4,4,2019_Nov_11_1011,MA_Theta_Exp,3.0.7,59.76407533651729,
video/Experiment/zh_sp01_Dr_Ro_2_NoThetaInAudio_GlobalThetaInVideo.avi,noTheta,plusVideo,sp01,Dr,Ro,2,3,3,flow/blocks/NoThetaInAudio_GlobalThetaInVideo_A.csv,,,,,,,,,0,3,3,3,0,3,3,25,,,,,,,,,-0.3888888888888889,0.11805555555555555,1,0,0,4.937545400003728,call2,0.043055555555555555,-0.14027777777777778,1,0,0,5.4041030000007595,colour3,0.4236111111111111,0.10277777777777777,1,0,0,5.838566700003867,number2,True,True,True,4,4,2019_Nov_11_1011,MA_Theta_Exp,3.0.7,59.76407533651729,
video/Experiment/zh_sp01_Ad_Ge_3_NoThetaInAudio_GlobalThetaInVideo.avi,noTheta,plusVideo,sp01,Ad,Ge,3,3,3,flow/blocks/NoThetaInAudio_GlobalThetaInVideo_A.csv,,,,,,,,,0,3,3,3,0,4,4,2,,,,,,,,,-0.3388888888888889,0.31805555555555554,1,0,0,4.8486421999987215,call1,-0.029166666666666667,0.3263888888888889,1,0,0,5.2791680000009364,colour1,0.3486111111111111,-0.027777777777777776,1,0,0,5.877747200000158,number3,True,True,True,4,4,2019_Nov_11_1011,MA_Theta_Exp,3.0.7,59.76407533651729,
video/Experiment/zh_sp01_Dr_Gr_2_NoThetaInAudio_GlobalThetaInVideo.avi,noTheta,plusVideo,sp01,Dr,Gr,2,3,3,flow/blocks/NoThetaInAudio_GlobalThetaInVideo_A.csv,,,,,,,,,0,3,3,3,0,5,5,21,,,,,,,,,-0.40694444444444444,0.10694444444444444,1,0,0,5.106423999997787,call2,-0.029166666666666667,0.09861111111111111,1,0,0,5.416327200000524,colour2,0.3638888888888889,0.05277777777777778,1,0,0,5.727592600000207,number2,True,True,True,4,4,2019_Nov_11_1011,MA_Theta_Exp,3.0.7,59.76407533651729,
video/Experiment/zh_sp01_Ad_Ro_2_NoThetaInAudio_GlobalThetaInVideo.avi,noTheta,plusVideo,sp01,Ad,Ro,2,3,3,flow/blocks/NoThetaInAudio_GlobalThetaInVideo_A.csv,,,,,,,,,0,3,3,3,0,6,6,9,,,,,,,,,-0.3347222222222222,0.30277777777777776,1,0,0,4.93396809999831,call1,0.006944444444444444,-0.1,1,0,0,5.517042699997546,colour3,0.44305555555555554,0.030555555555555555,1,0,0,5.880675000000338,number2,True,True,True,4,4,2019_Nov_11_1011,MA_Theta_Exp,3.0.7,59.76407533651729,
video/Experiment/zh_sp01_Ad_Gr_3_NoThetaInAudio_GlobalThetaInVideo.avi,noTheta,plusVideo,sp01,Ad,Gr,3,3,3,flow/blocks/NoThetaInAudio_GlobalThetaInVideo_A.csv,,,,,,,,,0,3,3,3,0,7,7,6,,,,,,,,,-0.44305555555555554,0.29444444444444445,1,0,0,5.133847799996147,call1,-0.004166666666666667,-0.1375,1,0,0,5.720017399995413,colour3,0.44583333333333336,-0.09444444444444444,1,0,0,6.325255600000673,number3,True,False,True,4,4,2019_Nov_11_1011,MA_Theta_Exp,3.0.7,59.76407533651729,
video/Experiment/zh_sp01_Ad_Gr_1_NoThetaInAudio_GlobalThetaInVideo.avi,noTheta,plusVideo,sp01,Ad,Gr,1,3,3,flow/blocks/NoThetaInAudio_GlobalThetaInVideo_A.csv,,,,,,,,,0,3,3,3,0,8,8,4,,,,,,,,,-0.4083333333333333,0.30277777777777776,1,0,0,5.228788500004157,call1,-0.015277777777777777,0.11805555555555555,1,0,0,5.69251329999679,colour2,0.37916666666666665,0.30972222222222223,1,0,0,6.194732700001623,number1,True,True,True,4,4,2019_Nov_11_1011,MA_Theta_Exp,3.0.7,59.76407533651729,
video/Experiment/zh_sp07_Ad_Ro_1_NoThetaInAudio_GlobalThetaInVideo.avi,noTheta,plusVideo,sp07,Ad,Ro,1,3,3,flow/blocks/NoThetaInAudio_GlobalThetaInVideo_A.csv,,,,,,,,,0,3,3,3,0,9,9,8,,,,,,,,,-0.4652777777777778,0.31527777777777777,1,0,0,4.2343209000027855,call1,-0.08611111111111111,-0.022222222222222223,1,0,0,4.667349199997261,colour3,0.39861111111111114,0.3472222222222222,1,0,0,5.498135699999693,number1,True,True,True,4,4,2019_Nov_11_1011,MA_Theta_Exp,3.0.7,59.76407533651729,
video/Experiment/zh_sp01_Ad_Ro_3_NoThetaInAudio_GlobalThetaInVideo.avi,noTheta,plusVideo,sp01,Ad,Ro,3,3,3,flow/blocks/NoThetaInAudio_GlobalThetaInVideo_A.csv,,,,,,,,,0,3,3,3,0,10,10,10,,,,,,,,,-0.49583333333333335,0.3472222222222222,1,0,0,5.300294100001338,call1,-0.059722222222222225,-0.034722222222222224,1,0,0,7.001559900003485,colour3,0.36527777777777776,-0.1,1,0,0,7.40047290000075,number3,True,True,True,4,4,2019_Nov_11_1011,MA_Theta_Exp,3.0.7,59.76407533651729,
video/Experiment/zh_sp01_Ad_Gr_2_NoThetaInAudio_GlobalThetaInVideo.avi,noTheta,plusVideo,sp01,Ad,Gr,2,3,3,flow/blocks/NoThetaInAudio_GlobalThetaInVideo_A.csv,,,,,,,,,0,3,3,3,0,11,11,5,,,,,,,,,-0.4,0.3194444444444444,1,0,0,5.295472500001779,call1,0.04027777777777778,0.12222222222222222,1,0,0,5.692032600003586,colour2,0.4513888888888889,0.10416666666666667,1,0,0,5.996939899996505,number2,True,True,True,4,4,2019_Nov_11_1011,MA_Theta_Exp,3.0.7,59.76407533651729,
video/Experiment/zh_sp01_Dr_We_4_NoThetaInAudio_GlobalThetaInVideo.avi,noTheta,plusVideo,sp01,Dr,We,4,3,3,flow/blocks/NoThetaInAudio_GlobalThetaInVideo_A.csv,,,,,,,,,0,3,3,3,0,12,12,31,,,,,,,,,-0.36944444444444446,0.10694444444444444,1,0,0,5.105900599999586,call2,-0.0375,-0.29583333333333334,1,0,0,6.060664000004181,colour4,0.49027777777777776,-0.35694444444444445,1,0,0,6.6532864999971935,number4,True,True,True,4,4,2019_Nov_11_1011,MA_Theta_Exp,3.0.7,59.76407533651729,
video/Experiment/zh_sp07_Dr_Gr_1_NoThetaInAudio_GlobalThetaInVideo.avi,noTheta,plusVideo,sp07,Dr,Gr,1,3,3,flow/blocks/NoThetaInAudio_GlobalThetaInVideo_A.csv,,,,,,,,,0,3,3,3,0,13,13,20,,,,,,,,,-0.44583333333333336,0.11527777777777778,1,0,0,4.7479556999969645,call2,0.020833333333333332,0.04722222222222222,1,0,0,6.146035999998276,colour2,0.36666666666666664,0.25,1,0,0,6.544621900000493,number1,True,True,True,4,4,2019_Nov_11_1011,MA_Theta_Exp,3.0.7,59.76407533651729,
video/Experiment/zh_sp01_Dr_Ge_3_NoThetaInAudio_GlobalThetaInVideo.avi,noTheta,plusVideo,sp01,Dr,Ge,3,3,3,flow/blocks/NoThetaInAudio_GlobalThetaInVideo_A.csv,,,,,,,,,0,3,3,3,0,14,14,18,,,,,,,,,-0.3888888888888889,0.0875,1,0,0,5.026869299996179,call2,-0.002777777777777778,0.30972222222222223,1,0,0,5.490419599998859,colour1,0.35833333333333334,-0.03333333333333333,1,0,0,6.056962599999679,number3,True,True,True,4,4,2019_Nov_11_1011,MA_Theta_Exp,3.0.7,59.76407533651729,
video/Experiment/zh_sp01_Dr_We_3_NoThetaInAudio_GlobalThetaInVideo.avi,noTheta,plusVideo,sp01,Dr,We,3,3,3,flow/blocks/NoThetaInAudio_GlobalThetaInVideo_A.csv,,,,,,,,,0,3,3,3,0,15,15,30,,,,,,,,,-0.5236111111111111,0.12638888888888888,1,0,0,4.900497800001176,call2,0.059722222222222225,-0.3611111111111111,1,0,0,5.972218200004136,colour4,0.45555555555555555,0.30416666666666664,1,0,0,6.723012099995685,number1,True,True,False,4,4,2019_Nov_11_1011,MA_Theta_Exp,3.0.7,59.76407533651729,
video/Experiment/zh_sp07_Ad_We_4_NoThetaInAudio_GlobalThetaInVideo.avi,noTheta,plusVideo,sp07,Ad,We,4,3,3,flow/blocks/NoThetaInAudio_GlobalThetaInVideo_A.csv,,,,,,,,,0,3,3,3,0,16,16,15,,,,,,,,,-0.44583333333333336,0.08333333333333333,1,0,0,4.525697500001115,call2,0.019444444444444445,-0.2875,1,0,0,5.060467299997981,colour4,0.44722222222222224,-0.33194444444444443,1,0,0,5.411060099999304,number4,False,True,True,4,4,2019_Nov_11_1011,MA_Theta_Exp,3.0.7,59.76407533651729,
video/Experiment/zh_sp01_Ad_Ge_4_NoThetaInAudio_GlobalThetaInVideo.avi,noTheta,plusVideo,sp01,Ad,Ge,4,3,3,flow/blocks/NoThetaInAudio_GlobalThetaInVideo_A.csv,,,,,,,,,0,3,3,3,0,17,17,3,,,,,,,,,-0.4125,0.3194444444444444,1,0,0,5.0471757000050275,call1,0.0125,0.32222222222222224,1,0,0,6.791395600004762,colour1,0.4111111111111111,-0.2847222222222222,1,0,0,7.40344560000085,number4,True,True,True,4,4,2019_Nov_11_1011,MA_Theta_Exp,3.0.7,59.76407533651729,
video/Experiment/zh_sp07_Dr_Ge_1_NoThetaInAudio_GlobalThetaInVideo.avi,noTheta,plusVideo,sp07,Dr,Ge,1,3,3,flow/blocks/NoThetaInAudio_GlobalThetaInVideo_A.csv,,,,,,,,,0,3,3,3,0,18,18,16,,,,,,,,,-0.4152777777777778,0.29444444444444445,1,0,0,5.307062400002906,call1,-0.004166666666666667,0.3111111111111111,1,0,0,6.474842700001318,colour1,0.5416666666666666,0.29444444444444445,1,0,0,6.855318100002478,number1,False,True,True,4,4,2019_Nov_11_1011,MA_Theta_Exp,3.0.7,59.76407533651729,
video/Experiment/zh_sp01_Dr_Gr_3_NoThetaInAudio_GlobalThetaInVideo.avi,noTheta,plusVideo,sp01,Dr,Gr,3,3,3,flow/blocks/NoThetaInAudio_GlobalThetaInVideo_A.csv,,,,,,,,,0,3,3,3,0,19,19,22,,,,,,,,,-0.425,0.12777777777777777,1,0,0,5.1138756000000285,call2,0.05138888888888889,0.10555555555555556,1,0,0,5.52668960000301,colour2,0.42777777777777776,-0.15694444444444444,1,0,0,5.987758499999472,number3,True,True,True,4,4,2019_Nov_11_1011,MA_Theta_Exp,3.0.7,59.76407533651729,
video/Experiment/zh_sp07_Dr_Gr_4_NoThetaInAudio_GlobalThetaInVideo.avi,noTheta,plusVideo,sp07,Dr,Gr,4,3,3,flow/blocks/NoThetaInAudio_GlobalThetaInVideo_A.csv,,,,,,,,,0,3,3,3,0,20,20,23,,,,,,,,,-0.3347222222222222,0.12777777777777777,1,0,0,5.26114769999549,call2,0.011111111111111112,0.10972222222222222,1,0,0,6.076950399998168,colour2,0.4638888888888889,0.09861111111111111,1,0,0,6.4280651999943075,number2,True,True,False,4,4,2019_Nov_11_1011,MA_Theta_Exp,3.0.7,59.76407533651729,
video/Experiment/zh_sp07_Dr_We_1_NoThetaInAudio_GlobalThetaInVideo.avi,noTheta,plusVideo,sp07,Dr,We,1,3,3,flow/blocks/NoThetaInAudio_GlobalThetaInVideo_A.csv,,,,,,,,,0,3,3,3,0,21,21,28,,,,,,,,,-0.33055555555555555,0.11944444444444445,1,0,0,4.427639899993665,call2,0.06388888888888888,0.11944444444444445,1,0,0,4.75476279999566,colour2,0.49444444444444446,0.3333333333333333,1,0,0,5.084507200001099,number1,True,False,True,4,4,2019_Nov_11_1011,MA_Theta_Exp,3.0.7,59.76407533651729,
video/Experiment/zh_sp07_Ad_We_3_NoThetaInAudio_GlobalThetaInVideo.avi,noTheta,plusVideo,sp07,Ad,We,3,3,3,flow/blocks/NoThetaInAudio_GlobalThetaInVideo_A.csv,,,,,,,,,0,3,3,3,0,22,22,14,,,,,,,,,-0.34444444444444444,0.2875,1,0,0,4.3456537000020035,call1,0.013888888888888888,-0.35555555555555557,1,0,0,4.920092000000295,colour4,0.39305555555555555,-0.3236111111111111,1,0,0,5.256851099999039,number4,True,True,False,4,4,2019_Nov_11_1011,MA_Theta_Exp,3.0.7,59.76407533651729,
video/Experiment/zh_sp07_Dr_Ro_4_NoThetaInAudio_GlobalThetaInVideo.avi,noTheta,plusVideo,sp07,Dr,Ro,4,3,3,flow/blocks/NoThetaInAudio_GlobalThetaInVideo_A.csv,,,,,,,,,0,3,3,3,0,23,23,27,,,,,,,,,-0.42916666666666664,0.09583333333333334,1,0,0,4.477775300001667,call2,0.013888888888888888,-0.12777777777777777,1,0,0,4.833717400004389,colour3,0.46944444444444444,-0.30972222222222223,1,0,0,5.147525300002599,number4,True,True,True,4,4,2019_Nov_11_1011,MA_Theta_Exp,3.0.7,59.76407533651729,
video/Experiment/zh_sp01_Ad_Ro_4_NoThetaInAudio_GlobalThetaInVideo.avi,noTheta,plusVideo,sp01,Ad,Ro,4,3,3,flow/blocks/NoThetaInAudio_GlobalThetaInVideo_A.csv,,,,,,,,,0,3,3,3,0,24,24,11,,,,,,,,,-0.3972222222222222,0.3375,1,0,0,5.023731199995382,call1,0.006944444444444444,-0.044444444444444446,1,0,0,5.572570899996208,colour3,0.425,-0.3888888888888889,1,0,0,5.966293000004953,number4,True,True,True,4,4,2019_Nov_11_1011,MA_Theta_Exp,3.0.7,59.76407533651729,
video/Experiment/zh_sp07_Dr_Ro_1_NoThetaInAudio_GlobalThetaInVideo.avi,noTheta,plusVideo,sp07,Dr,Ro,1,3,3,flow/blocks/NoThetaInAudio_GlobalThetaInVideo_A.csv,,,,,,,,,0,3,3,3,0,25,25,24,,,,,,,,,-0.39305555555555555,0.1625,1,0,0,4.214575899997726,call2,-0.002777777777777778,-0.075,1,0,0,4.5630506000015885,colour3,0.43472222222222223,0.28888888888888886,1,0,0,4.945630099995469,number1,True,True,True,4,4,2019_Nov_11_1011,MA_Theta_Exp,3.0.7,59.76407533651729,
video/Experiment/zh_sp07_Ad_We_2_NoThetaInAudio_GlobalThetaInVideo.avi,noTheta,plusVideo,sp07,Ad,We,2,3,3,flow/blocks/NoThetaInAudio_GlobalThetaInVideo_A.csv,,,,,,,,,0,3,3,3,0,26,26,13,,,,,,,,,-0.40694444444444444,0.35,1,0,0,4.388550600000599,call1,-0.03611111111111111,0.15833333333333333,1,0,0,4.829586899999413,colour2,0.425,0.11527777777777778,1,0,0,5.146704099999624,number2,True,False,True,4,4,2019_Nov_11_1011,MA_Theta_Exp,3.0.7,59.76407533651729,
video/Experiment/zh_sp01_Dr_Ge_4_NoThetaInAudio_GlobalThetaInVideo.avi,noTheta,plusVideo,sp01,Dr,Ge,4,3,3,flow/blocks/NoThetaInAudio_GlobalThetaInVideo_A.csv,,,,,,,,,0,3,3,3,0,27,27,19,,,,,,,,,-0.39166666666666666,0.10416666666666667,1,0,0,5.192968899995321,call2,0.018055555555555554,0.36666666666666664,1,0,0,5.51228720000654,colour1,0.5041666666666667,-0.32222222222222224,1,0,0,6.233219999994617,number4,True,True,True,4,4,2019_Nov_11_1011,MA_Theta_Exp,3.0.7,59.76407533651729,
video/Experiment/zh_sp07_Dr_Ro_3_NoThetaInAudio_GlobalThetaInVideo.avi,noTheta,plusVideo,sp07,Dr,Ro,3,3,3,flow/blocks/NoThetaInAudio_GlobalThetaInVideo_A.csv,,,,,,,,,0,3,3,3,0,28,28,26,,,,,,,,,-0.32083333333333336,-0.001388888888888889,1,0,0,4.5169954000011785,call2,0.009722222222222222,-0.08888888888888889,1,0,0,5.366887100004533,colour3,0.4125,-0.15416666666666667,1,0,0,5.6646628999951645,number3,True,True,True,4,4,2019_Nov_11_1011,MA_Theta_Exp,3.0.7,59.76407533651729,
video/Experiment/zh_sp07_Ad_Ge_1_NoThetaInAudio_GlobalThetaInVideo.avi,noTheta,plusVideo,sp07,Ad,Ge,1,3,3,flow/blocks/NoThetaInAudio_GlobalThetaInVideo_A.csv,,,,,,,,,0,3,3,3,0,29,29,0,,,,,,,,,-0.3902777777777778,0.3125,1,0,0,4.177193800001987,call1,-0.05277777777777778,0.3194444444444444,1,0,0,4.475666699996509,colour1,0.4444444444444444,0.32083333333333336,1,0,0,5.3903004999956465,number1,True,True,True,4,4,2019_Nov_11_1011,MA_Theta_Exp,3.0.7,59.76407533651729,
video/Experiment/zh_sp01_Dr_Ge_2_NoThetaInAudio_GlobalThetaInVideo.avi,noTheta,plusVideo,sp01,Dr,Ge,2,3,3,flow/blocks/NoThetaInAudio_GlobalThetaInVideo_A.csv,,,,,,,,,0,3,3,3,0,30,30,17,,,,,,,,,-0.39305555555555555,0.0625,1,0,0,5.201045300003898,call2,-0.09444444444444444,0.24583333333333332,1,0,0,5.515861300002143,colour1,0.44166666666666665,0.08472222222222223,1,0,0,6.367348400002811,number2,True,True,True,4,4,2019_Nov_11_1011,MA_Theta_Exp,3.0.7,59.76407533651729,
video/Experiment/zh_sp07_Ad_Gr_4_NoThetaInAudio_GlobalThetaInVideo.avi,noTheta,plusVideo,sp07,Ad,Gr,4,3,3,flow/blocks/NoThetaInAudio_GlobalThetaInVideo_A.csv,,,,,,,,,0,3,3,3,0,31,31,7,,,,,,,,,-0.35,0.2861111111111111,1,0,0,4.416475599995465,call1,-0.02638888888888889,0.1125,1,0,0,4.77464169999439,colour2,0.4125,-0.33611111111111114,1,0,0,5.476511100001517,number4,True,True,True,4,4,2019_Nov_11_1011,MA_Theta_Exp,3.0.7,59.76407533651729,
video/Experiment/zh_sp01_Ad_We_3_GlobalTheta_NoVideo.avi,globalTheta,noVideo,sp01,Ad,We,3,4,5,flow/blocks/GlobalTheta_NoVideo_A.csv,,,,,,,,,0,4,4,4,0,0,0,14,,,,,,,,,-0.4361111111111111,0.33055555555555555,1,0,0,5.211295399996743,call1,-0.03611111111111111,-0.2388888888888889,1,0,0,5.946452799995313,colour4,0.4888888888888889,-0.1111111111111111,1,0,0,6.438026399999217,number3,True,True,True,4,4,2019_Nov_11_1011,MA_Theta_Exp,3.0.7,59.76407533651729,
video/Experiment/zh_sp07_Ad_Ro_2_GlobalTheta_NoVideo.avi,globalTheta,noVideo,sp07,Ad,Ro,2,4,5,flow/blocks/GlobalTheta_NoVideo_A.csv,,,,,,,,,0,4,4,4,0,1,1,9,,,,,,,,,-0.3972222222222222,0.2916666666666667,1,0,0,4.511497200001031,call1,-0.030555555555555555,-0.043055555555555555,1,0,0,5.143596800000523,colour3,0.41805555555555557,0.059722222222222225,1,0,0,5.509407099998498,number2,True,True,True,4,4,2019_Nov_11_1011,MA_Theta_Exp,3.0.7,59.76407533651729,
video/Experiment/zh_sp01_Dr_Ge_3_GlobalTheta_NoVideo.avi,globalTheta,noVideo,sp01,Dr,Ge,3,4,5,flow/blocks/GlobalTheta_NoVideo_A.csv,,,,,,,,,0,4,4,4,0,2,2,18,,,,,,,,,-0.39444444444444443,0.10694444444444444,1,0,0,5.116640500003996,call2,-0.0875,0.2916666666666667,1,0,0,5.431027599996014,colour1,0.4166666666666667,-0.125,1,0,0,5.932410000001255,number3,True,True,True,4,4,2019_Nov_11_1011,MA_Theta_Exp,3.0.7,59.76407533651729,
video/Experiment/zh_sp01_Dr_Ro_2_GlobalTheta_NoVideo.avi,globalTheta,noVideo,sp01,Dr,Ro,2,4,5,flow/blocks/GlobalTheta_NoVideo_A.csv,,,,,,,,,0,4,4,4,0,3,3,25,,,,,,,,,-0.4444444444444444,0.14583333333333334,1,0,0,5.148968000001332,call2,0.05416666666666667,-0.15138888888888888,1,0,0,5.7393168000053265,colour3,0.3861111111111111,0.0625,1,0,0,6.386729199999536,number2,True,True,True,4,4,2019_Nov_11_1011,MA_Theta_Exp,3.0.7,59.76407533651729,
video/Experiment/zh_sp01_Dr_Gr_3_GlobalTheta_NoVideo.avi,globalTheta,noVideo,sp01,Dr,Gr,3,4,5,flow/blocks/GlobalTheta_NoVideo_A.csv,,,,,,,,,0,4,4,4,0,4,4,22,,,,,,,,,-0.4791666666666667,0.12361111111111112,1,0,0,4.860666400003538,call2,-0.075,0.10277777777777777,1,0,0,5.213619699999981,colour2,0.3388888888888889,-0.0763888888888889,1,0,0,5.597082799999043,number3,True,True,True,4,4,2019_Nov_11_1011,MA_Theta_Exp,3.0.7,59.76407533651729,
video/Experiment/zh_sp01_Ad_Ro_4_GlobalTheta_NoVideo.avi,globalTheta,noVideo,sp01,Ad,Ro,4,4,5,flow/blocks/GlobalTheta_NoVideo_A.csv,,,,,,,,,0,4,4,4,0,5,5,11,,,,,,,,,-0.3819444444444444,0.3194444444444444,1,0,0,4.939767899995786,call1,-0.009722222222222222,-0.10555555555555556,1,0,0,5.438323099995614,colour3,0.4013888888888889,-0.35833333333333334,1,0,0,5.821924700001546,number4,True,True,True,4,4,2019_Nov_11_1011,MA_Theta_Exp,3.0.7,59.76407533651729,
video/Experiment/zh_sp07_Ad_Gr_4_GlobalTheta_NoVideo.avi,globalTheta,noVideo,sp07,Ad,Gr,4,4,5,flow/blocks/GlobalTheta_NoVideo_A.csv,,,,,,,,,0,4,4,4,0,6,6,7,,,,,,,,,-0.4222222222222222,0.32083333333333336,1,0,0,4.729886799999804,call1,-0.05694444444444444,0.11805555555555555,1,0,0,5.071980100001383,colour2,0.3375,-0.2902777777777778,1,0,0,5.524280400000862,number4,True,True,True,4,4,2019_Nov_11_1011,MA_Theta_Exp,3.0.7,59.76407533651729,
video/Experiment/zh_sp07_Dr_Ge_2_GlobalTheta_NoVideo.avi,globalTheta,noVideo,sp07,Dr,Ge,2,4,5,flow/blocks/GlobalTheta_NoVideo_A.csv,,,,,,,,,0,4,4,4,0,7,7,17,,,,,,,,,-0.3875,0.13055555555555556,1,0,0,4.287851100001717,call2,-0.125,0.2902777777777778,1,0,0,4.6073340000002645,colour1,0.38472222222222224,0.1388888888888889,1,0,0,5.285587500002293,number2,True,True,True,4,4,2019_Nov_11_1011,MA_Theta_Exp,3.0.7,59.76407533651729,
video/Experiment/zh_sp07_Dr_We_3_GlobalTheta_NoVideo.avi,globalTheta,noVideo,sp07,Dr,We,3,4,5,flow/blocks/GlobalTheta_NoVideo_A.csv,,,,,,,,,0,4,4,4,0,8,8,30,,,,,,,,,-0.4527777777777778,0.10972222222222222,1,0,0,4.118526000005659,call2,-0.025,-0.3,1,0,0,4.594246900000144,colour4,0.3875,-0.09722222222222222,1,0,0,5.171072599994659,number3,True,True,True,4,4,2019_Nov_11_1011,MA_Theta_Exp,3.0.7,59.76407533651729,
video/Experiment/zh_sp07_Ad_We_1_GlobalTheta_NoVideo.avi,globalTheta,noVideo,sp07,Ad,We,1,4,5,flow/blocks/GlobalTheta_NoVideo_A.csv,,,,,,,,,0,4,4,4,0,9,9,12,,,,,,,,,-0.39305555555555555,0.2986111111111111,1,0,0,4.281010500002594,call1,0.03333333333333333,-0.30416666666666664,1,0,0,4.907167199999094,colour4,0.40694444444444444,0.25416666666666665,1,0,0,5.462238499996602,number1,True,True,True,4,4,2019_Nov_11_1011,MA_Theta_Exp,3.0.7,59.76407533651729,
video/Experiment/zh_sp07_Ad_Ro_1_GlobalTheta_NoVideo.avi,globalTheta,noVideo,sp07,Ad,Ro,1,4,5,flow/blocks/GlobalTheta_NoVideo_A.csv,,,,,,,,,0,4,4,4,0,10,10,8,,,,,,,,,-0.36666666666666664,0.28194444444444444,1,0,0,4.154420400001982,call1,-0.02638888888888889,-0.07083333333333333,1,0,0,4.571961999994528,colour3,0.3125,0.3125,1,0,0,4.988397699999041,number1,True,True,True,4,4,2019_Nov_11_1011,MA_Theta_Exp,3.0.7,59.76407533651729,
video/Experiment/zh_sp07_Ad_Ro_3_GlobalTheta_NoVideo.avi,globalTheta,noVideo,sp07,Ad,Ro,3,4,5,flow/blocks/GlobalTheta_NoVideo_A.csv,,,,,,,,,0,4,4,4,0,11,11,10,,,,,,,,,-0.4013888888888889,0.3277777777777778,1,0,0,4.517486299999291,call1,-0.044444444444444446,-0.10833333333333334,1,0,0,4.989015799998015,colour3,0.42916666666666664,-0.16666666666666666,1,0,0,5.331756699997641,number3,True,True,True,4,4,2019_Nov_11_1011,MA_Theta_Exp,3.0.7,59.76407533651729,
video/Experiment/zh_sp01_Dr_We_2_GlobalTheta_NoVideo.avi,globalTheta,noVideo,sp01,Dr,We,2,4,5,flow/blocks/GlobalTheta_NoVideo_A.csv,,,,,,,,,0,4,4,4,0,12,12,29,,,,,,,,,-0.36527777777777776,0.3388888888888889,1,0,0,5.268002199998591,call1,-0.02638888888888889,-0.21805555555555556,1,0,0,5.702717100000882,colour4,0.39444444444444443,0.043055555555555555,1,0,0,7.501971199999389,number2,False,True,True,4,4,2019_Nov_11_1011,MA_Theta_Exp,3.0.7,59.76407533651729,
video/Experiment/zh_sp01_Ad_Ge_2_GlobalTheta_NoVideo.avi,globalTheta,noVideo,sp01,Ad,Ge,2,4,5,flow/blocks/GlobalTheta_NoVideo_A.csv,,,,,,,,,0,4,4,4,0,13,13,1,,,,,,,,,-0.3486111111111111,0.33194444444444443,1,0,0,5.004192699998384,call1,-0.004166666666666667,0.32083333333333336,1,0,0,5.304404700000305,colour1,0.3972222222222222,0.10416666666666667,1,0,0,5.668851499998709,number2,True,True,True,4,4,2019_Nov_11_1011,MA_Theta_Exp,3.0.7,59.76407533651729,
video/Experiment/zh_sp07_Dr_Ge_1_GlobalTheta_NoVideo.avi,globalTheta,noVideo,sp07,Dr,Ge,1,4,5,flow/blocks/GlobalTheta_NoVideo_A.csv,,,,,,,,,0,4,4,4,0,14,14,16,,,,,,,,,-0.44722222222222224,0.2902777777777778,1,0,0,4.325075200002175,call1,-0.03333333333333333,0.2986111111111111,1,0,0,4.595596899998782,colour1,0.4013888888888889,0.33611111111111114,1,0,0,5.323401299996476,number1,False,True,True,4,4,2019_Nov_11_1011,MA_Theta_Exp,3.0.7,59.76407533651729,
video/Experiment/zh_sp01_Ad_We_2_GlobalTheta_NoVideo.avi,globalTheta,noVideo,sp01,Ad,We,2,4,5,flow/blocks/GlobalTheta_NoVideo_A.csv,,,,,,,,,0,4,4,4,0,15,15,13,,,,,,,,,-0.35138888888888886,0.33194444444444443,1,0,0,5.214293400000315,call1,0.025,-0.35694444444444445,1,0,0,5.912979399996402,colour4,0.40555555555555556,0.04722222222222222,1,0,0,6.282697899994673,number2,True,True,True,4,4,2019_Nov_11_1011,MA_Theta_Exp,3.0.7,59.76407533651729,
video/Experiment/zh_sp01_Dr_Gr_2_GlobalTheta_NoVideo.avi,globalTheta,noVideo,sp01,Dr,Gr,2,4,5,flow/blocks/GlobalTheta_NoVideo_A.csv,,,,,,,,,0,4,4,4,0,16,16,21,,,,,,,,,-0.44166666666666665,0.13333333333333333,1,0,0,5.192295299995749,call2,0.006944444444444444,0.09305555555555556,1,0,0,5.891747400004533,colour2,0.4,0.08611111111111111,1,0,0,6.293446199997561,number2,True,True,True,4,4,2019_Nov_11_1011,MA_Theta_Exp,3.0.7,59.76407533651729,
video/Experiment/zh_sp01_Ad_Gr_1_GlobalTheta_NoVideo.avi,globalTheta,noVideo,sp01,Ad,Gr,1,4,5,flow/blocks/GlobalTheta_NoVideo_A.csv,,,,,,,,,0,4,4,4,0,17,17,4,,,,,,,,,-0.3402777777777778,0.27361111111111114,1,0,0,5.090692900004797,call1,-0.002777777777777778,0.11666666666666667,1,0,0,5.4760432999974,colour2,0.3611111111111111,0.29305555555555557,1,0,0,5.78945720000047,number1,True,True,True,4,4,2019_Nov_11_1011,MA_Theta_Exp,3.0.7,59.76407533651729,
video/Experiment/zh_sp07_Ad_Ge_4_GlobalTheta_NoVideo.avi,globalTheta,noVideo,sp07,Ad,Ge,4,4,5,flow/blocks/GlobalTheta_NoVideo_A.csv,,,,,,,,,0,4,4,4,0,18,18,3,,,,,,,,,-0.4,0.2625,1,0,0,4.528575100004673,call1,-0.09305555555555556,0.1111111111111111,1,0,0,4.941224899994268,colour2,0.45,-0.40694444444444444,1,0,0,6.333059000004141,number4,True,False,True,4,4,2019_Nov_11_1011,MA_Theta_Exp,3.0.7,59.76407533651729,
video/Experiment/zh_sp07_Dr_We_4_GlobalTheta_NoVideo.avi,globalTheta,noVideo,sp07,Dr,We,4,4,5,flow/blocks/GlobalTheta_NoVideo_A.csv,,,,,,,,,0,4,4,4,0,19,19,31,,,,,,,,,-0.3902777777777778,0.33055555555555555,1,0,0,4.615939700001036,call1,0.020833333333333332,-0.28194444444444444,1,0,0,5.2251845999999205,colour4,0.35694444444444445,-0.1125,1,0,0,5.64500489999773,number3,False,True,False,4,4,2019_Nov_11_1011,MA_Theta_Exp,3.0.7,59.76407533651729,
video/Experiment/zh_sp07_Ad_Gr_2_GlobalTheta_NoVideo.avi,globalTheta,noVideo,sp07,Ad,Gr,2,4,5,flow/blocks/GlobalTheta_NoVideo_A.csv,,,,,,,,,0,4,4,4,0,20,20,5,,,,,,,,,-0.36944444444444446,0.10694444444444444,1,0,0,4.831815400000778,call2,0.041666666666666664,0.14583333333333334,1,0,0,5.4151830000046175,colour2,0.4,0.11805555555555555,1,0,0,5.798485100000107,number2,False,True,True,4,4,2019_Nov_11_1011,MA_Theta_Exp,3.0.7,59.76407533651729,
video/Experiment/zh_sp01_Ad_Ge_3_GlobalTheta_NoVideo.avi,globalTheta,noVideo,sp01,Ad,Ge,3,4,5,flow/blocks/GlobalTheta_NoVideo_A.csv,,,,,,,,,0,4,4,4,0,21,21,2,,,,,,,,,-0.4236111111111111,0.2791666666666667,1,0,0,4.8338064999989,call1,0.016666666666666666,0.11527777777777778,1,0,0,5.184271199999785,colour2,0.4083333333333333,-0.1375,1,0,0,6.095849999997881,number3,True,False,True,4,4,2019_Nov_11_1011,MA_Theta_Exp,3.0.7,59.76407533651729,
video/Experiment/zh_sp01_Dr_Gr_1_GlobalTheta_NoVideo.avi,globalTheta,noVideo,sp01,Dr,Gr,1,4,5,flow/blocks/GlobalTheta_NoVideo_A.csv,,,,,,,,,0,4,4,4,0,22,22,20,,,,,,,,,-0.34444444444444444,0.08333333333333333,1,0,0,5.2282428000035,call2,0.020833333333333332,0.06944444444444445,1,0,0,5.6809161999990465,colour2,0.3902777777777778,0.32916666666666666,1,0,0,6.163075799995568,number1,True,True,True,4,4,2019_Nov_11_1011,MA_Theta_Exp,3.0.7,59.76407533651729,
video/Experiment/zh_sp01_Dr_We_1_GlobalTheta_NoVideo.avi,globalTheta,noVideo,sp01,Dr,We,1,4,5,flow/blocks/GlobalTheta_NoVideo_A.csv,,,,,,,,,0,4,4,4,0,23,23,28,,,,,,,,,-0.43333333333333335,0.07361111111111111,1,0,0,5.060919399998966,call2,0.022222222222222223,-0.34305555555555556,1,0,0,5.608712599998398,colour4,0.3611111111111111,0.2513888888888889,1,0,0,6.14828370000032,number1,True,True,True,4,4,2019_Nov_11_1011,MA_Theta_Exp,3.0.7,59.76407533651729,
video/Experiment/zh_sp07_Ad_We_4_GlobalTheta_NoVideo.avi,globalTheta,noVideo,sp07,Ad,We,4,4,5,flow/blocks/GlobalTheta_NoVideo_A.csv,,,,,,,,,0,4,4,4,0,24,24,15,,,,,,,,,-0.38333333333333336,0.3527777777777778,1,0,0,4.4074938999983715,call1,0.018055555555555554,-0.3416666666666667,1,0,0,5.241043499998341,colour4,0.4388888888888889,-0.3486111111111111,1,0,0,5.608278400002746,number4,True,True,True,4,4,2019_Nov_11_1011,MA_Theta_Exp,3.0.7,59.76407533651729,
video/Experiment/zh_sp07_Dr_Gr_4_GlobalTheta_NoVideo.avi,globalTheta,noVideo,sp07,Dr,Gr,4,4,5,flow/blocks/GlobalTheta_NoVideo_A.csv,,,,,,,,,0,4,4,4,0,25,25,23,,,,,,,,,-0.4,0.30833333333333335,1,0,0,4.502986300001794,call1,-0.019444444444444445,0.05555555555555555,1,0,0,4.945981400000164,colour2,0.3402777777777778,-0.2638888888888889,1,0,0,5.397786699999415,number4,False,True,True,4,4,2019_Nov_11_1011,MA_Theta_Exp,3.0.7,59.76407533651729,
video/Experiment/zh_sp01_Dr_Ro_1_GlobalTheta_NoVideo.avi,globalTheta,noVideo,sp01,Dr,Ro,1,4,5,flow/blocks/GlobalTheta_NoVideo_A.csv,,,,,,,,,0,4,4,4,0,26,26,24,,,,,,,,,-0.4625,0.10416666666666667,1,0,0,4.940982499996608,call2,0.002777777777777778,-0.125,1,0,0,5.6090235999945435,colour3,0.3527777777777778,0.29583333333333334,1,0,0,6.2140223999958835,number1,True,True,True,4,4,2019_Nov_11_1011,MA_Theta_Exp,3.0.7,59.76407533651729,
video/Experiment/zh_sp01_Ad_Ge_1_GlobalTheta_NoVideo.avi,globalTheta,noVideo,sp01,Ad,Ge,1,4,5,flow/blocks/GlobalTheta_NoVideo_A.csv,,,,,,,,,0,4,4,4,0,27,27,0,,,,,,,,,-0.36666666666666664,0.32222222222222224,1,0,0,5.2485516000015195,call1,0.04722222222222222,0.31527777777777777,1,0,0,5.8699637000027,colour1,0.44722222222222224,0.3263888888888889,1,0,0,6.21665639999992,number1,True,True,True,4,4,2019_Nov_11_1011,MA_Theta_Exp,3.0.7,59.76407533651729,
video/Experiment/zh_sp01_Dr_Ro_3_GlobalTheta_NoVideo.avi,globalTheta,noVideo,sp01,Dr,Ro,3,4,5,flow/blocks/GlobalTheta_NoVideo_A.csv,,,,,,,,,0,4,4,4,0,28,28,26,,,,,,,,,-0.3902777777777778,0.09444444444444444,1,0,0,4.891692800003511,call2,-0.03888888888888889,-0.11805555555555555,1,0,0,5.228667100003804,colour3,0.36666666666666664,-0.08611111111111111,1,0,0,5.527518000002601,number3,True,True,True,4,4,2019_Nov_11_1011,MA_Theta_Exp,3.0.7,59.76407533651729,
video/Experiment/zh_sp07_Dr_Ro_4_GlobalTheta_NoVideo.avi,globalTheta,noVideo,sp07,Dr,Ro,4,4,5,flow/blocks/GlobalTheta_NoVideo_A.csv,,,,,,,,,0,4,4,4,0,29,29,27,,,,,,,,,-0.37222222222222223,0.08611111111111111,1,0,0,4.27623080000194,call2,0.0375,-0.125,1,0,0,4.581245200002741,colour3,0.42777777777777776,-0.32916666666666666,1,0,0,4.923805599995831,number4,True,True,True,4,4,2019_Nov_11_1011,MA_Theta_Exp,3.0.7,59.76407533651729,
video/Experiment/zh_sp07_Ad_Gr_3_GlobalTheta_NoVideo.avi,globalTheta,noVideo,sp07,Ad,Gr,3,4,5,flow/blocks/GlobalTheta_NoVideo_A.csv,,,,,,,,,0,4,4,4,0,30,30,6,,,,,,,,,-0.4305555555555556,0.3527777777777778,1,0,0,4.337578500002564,call1,-0.08194444444444444,0.10555555555555556,1,0,0,4.664549799999804,colour2,0.39444444444444443,-0.14027777777777778,1,0,0,5.018374200000835,number3,True,True,True,4,4,2019_Nov_11_1011,MA_Theta_Exp,3.0.7,59.76407533651729,
video/Experiment/zh_sp07_Dr_Ge_4_GlobalTheta_NoVideo.avi,globalTheta,noVideo,sp07,Dr,Ge,4,4,5,flow/blocks/GlobalTheta_NoVideo_A.csv,,,,,,,,,0,4,4,4,0,31,31,19,,,,,,,,,-0.4361111111111111,0.09305555555555556,1,0,0,4.323755400000664,call2,-0.029166666666666667,0.2625,1,0,0,4.654093899996951,colour1,0.45555555555555555,-0.30972222222222223,1,0,0,5.207575499996892,number4,True,True,True,4,4,2019_Nov_11_1011,MA_Theta_Exp,3.0.7,59.76407533651729,
video/Experiment/zh_sp01_Un_Gr_2_NVocInAudio_NoVideo.avi,vocoded,noVideo,sp01,Un,Gr,2,0,2,flow/blocks/NVocInAudio_NoVideo_B.csv,,,,,,,,,,,,,,,,,0,0,0,0,0,0,0,21,-0.4236111111111111,-0.30416666666666664,1,0,0,5.472151800000574,call4,0.019444444444444445,0.06666666666666667,1,0,0,6.00718240000424,colour2,0.4930555555555556,0.11388888888888889,1,0,0,6.34919870000158,number2,True,True,True,4,4,2019_Nov_11_1011,MA_Theta_Exp,3.0.7,59.76407533651729,
video/Experiment/zh_sp01_Un_Ro_1_NVocInAudio_NoVideo.avi,vocoded,noVideo,sp01,Un,Ro,1,0,2,flow/blocks/NVocInAudio_NoVideo_B.csv,,,,,,,,,,,,,,,,,0,0,0,0,0,1,1,24,-0.4361111111111111,-0.31666666666666665,1,0,0,5.34453829999984,call4,-0.020833333333333332,-0.15694444444444444,1,0,0,5.943965099999332,colour3,0.4111111111111111,0.25555555555555554,1,0,0,6.457580399997823,number1,True,True,True,4,4,2019_Nov_11_1011,MA_Theta_Exp,3.0.7,59.76407533651729,
video/Experiment/zh_sp07_Un_Ge_1_NVocInAudio_NoVideo.avi,vocoded,noVideo,sp07,Un,Ge,1,0,2,flow/blocks/NVocInAudio_NoVideo_B.csv,,,,,,,,,,,,,,,,,0,0,0,0,0,2,2,16,-0.4041666666666667,-0.32175925925925924,1,0,0,4.435970499995165,call4,0.006944444444444444,0.3101851851851852,1,0,0,5.019434200003161,colour1,0.37083333333333335,0.3587962962962963,1,0,0,5.303680700002587,number1,True,True,True,4,4,2019_Nov_11_1011,MA_Theta_Exp,3.0.7,59.76407533651729,
video/Experiment/zh_sp07_Un_Ro_3_NVocInAudio_NoVideo.avi,vocoded,noVideo,sp07,Un,Ro,3,0,2,flow/blocks/NVocInAudio_NoVideo_B.csv,,,,,,,,,,,,,,,,,0,0,0,0,0,3,3,26,-0.3875,-0.32314814814814813,1,0,0,4.485586700000567,call4,0.004166666666666667,-0.12731481481481483,1,0,0,4.807847299998684,colour3,0.32083333333333336,-0.14537037037037037,1,0,0,5.107261999997718,number3,True,True,True,4,4,2019_Nov_11_1011,MA_Theta_Exp,3.0.7,59.76407533651729,
video/Experiment/zh_sp01_Ti_Gr_4_NVocInAudio_NoVideo.avi,vocoded,noVideo,sp01,Ti,Gr,4,0,2,flow/blocks/NVocInAudio_NoVideo_B.csv,,,,,,,,,,,,,,,,,0,0,0,0,0,4,4,7,-0.4444444444444444,-0.08564814814814815,1,0,0,5.262574300002598,call3,-0.041666666666666664,0.07546296296296297,1,0,0,5.637353699996311,colour2,0.3972222222222222,-0.31203703703703706,1,0,0,6.124226899999485,number4,True,True,True,4,4,2019_Nov_11_1011,MA_Theta_Exp,3.0.7,59.76407533651729,
video/Experiment/zh_sp01_Ti_Ro_2_NVocInAudio_NoVideo.avi,vocoded,noVideo,sp01,Ti,Ro,2,0,2,flow/blocks/NVocInAudio_NoVideo_B.csv,,,,,,,,,,,,,,,,,0,0,0,0,0,5,5,9,-0.4013888888888889,-0.13842592592592592,1,0,0,5.065673099998094,call3,-0.025,-0.11203703703703703,1,0,0,5.4829510999989,colour3,0.4375,0.12685185185185185,1,0,0,6.010410799994133,number2,True,True,True,4,4,2019_Nov_11_1011,MA_Theta_Exp,3.0.7,59.76407533651729,
video/Experiment/zh_sp07_Ti_Gr_1_NVocInAudio_NoVideo.avi,vocoded,noVideo,sp07,Ti,Gr,1,0,2,flow/blocks/NVocInAudio_NoVideo_B.csv,,,,,,,,,,,,,,,,,0,0,0,0,0,6,6,4,-0.4222222222222222,-0.1037037037037037,1,0,0,4.462123199999041,call3,-0.07361111111111111,0.10462962962962963,1,0,0,4.824390499998117,colour2,0.4152777777777778,0.3476851851851852,1,0,0,5.262112299998989,number1,True,True,True,4,4,2019_Nov_11_1011,MA_Theta_Exp,3.0.7,59.76407533651729,
video/Experiment/zh_sp07_Un_Gr_1_NVocInAudio_NoVideo.avi,vocoded,noVideo,sp07,Un,Gr,1,0,2,flow/blocks/NVocInAudio_NoVideo_B.csv,,,,,,,,,,,,,,,,,0,0,0,0,0,7,7,20,-0.43472222222222223,-0.337037037037037,1,0,0,4.5747721000007004,call4,-0.029166666666666667,0.07685185185185185,1,0,0,5.087171599996509,colour2,0.3819444444444444,0.29074074074074074,1,0,0,5.452272000002267,number1,True,True,True,4,4,2019_Nov_11_1011,MA_Theta_Exp,3.0.7,59.76407533651729,
video/Experiment/zh_sp01_Ti_Ro_4_NVocInAudio_NoVideo.avi,vocoded,noVideo,sp01,Ti,Ro,4,0,2,flow/blocks/NVocInAudio_NoVideo_B.csv,,,,,,,,,,,,,,,,,0,0,0,0,0,8,8,11,-0.39305555555555555,-0.13703703703703704,1,0,0,4.964172199994209,call3,-0.004166666666666667,-0.12037037037037036,1,0,0,6.513308599998709,colour3,0.3958333333333333,-0.30787037037037035,1,0,0,7.126774199998181,number4,True,True,True,4,4,2019_Nov_11_1011,MA_Theta_Exp,3.0.7,59.76407533651729,
video/Experiment/zh_sp07_Un_We_4_NVocInAudio_NoVideo.avi,vocoded,noVideo,sp07,Un,We,4,0,2,flow/blocks/NVocInAudio_NoVideo_B.csv,,,,,,,,,,,,,,,,,0,0,0,0,0,9,9,31,-0.3486111111111111,-0.34814814814814815,1,0,0,4.403681399999186,call4,-0.03611111111111111,-0.33287037037037037,1,0,0,4.832023399998434,colour4,0.39166666666666666,-0.31203703703703706,1,0,0,5.168825799999468,number4,True,True,True,4,4,2019_Nov_11_1011,MA_Theta_Exp,3.0.7,59.76407533651729,
video/Experiment/zh_sp07_Un_We_2_NVocInAudio_NoVideo.avi,vocoded,noVideo,sp07,Un,We,2,0,2,flow/blocks/NVocInAudio_NoVideo_B.csv,,,,,,,,,,,,,,,,,0,0,0,0,0,10,10,29,-0.4083333333333333,-0.3648148148148148,1,0,0,4.373278700004448,call4,-0.0125,-0.3509259259259259,1,0,0,4.704104199998255,colour4,0.4166666666666667,0.1574074074074074,1,0,0,5.271321299995179,number2,True,True,True,4,4,2019_Nov_11_1011,MA_Theta_Exp,3.0.7,59.76407533651729,
video/Experiment/zh_sp01_Ti_We_4_NVocInAudio_NoVideo.avi,vocoded,noVideo,sp01,Ti,We,4,0,2,flow/blocks/NVocInAudio_NoVideo_B.csv,,,,,,,,,,,,,,,,,0,0,0,0,0,11,11,15,-0.3402777777777778,-0.09675925925925925,1,0,0,5.586581700001261,call3,0.006944444444444444,-0.3189814814814815,1,0,0,6.301843599998392,colour4,0.40555555555555556,-0.274537037037037,1,0,0,6.664862099998572,number4,True,True,True,4,4,2019_Nov_11_1011,MA_Theta_Exp,3.0.7,59.76407533651729,
video/Experiment/zh_sp01_Ti_Ro_3_NVocInAudio_NoVideo.avi,vocoded,noVideo,sp01,Ti,Ro,3,0,2,flow/blocks/NVocInAudio_NoVideo_B.csv,,,,,,,,,,,,,,,,,0,0,0,0,0,12,12,10,-0.4083333333333333,-0.08425925925925926,1,0,0,4.9718596000020625,call3,-0.04722222222222222,-0.07175925925925926,1,0,0,5.265290200004529,colour3,0.3375,-0.10787037037037037,1,0,0,5.566843900000094,number3,True,True,True,4,4,2019_Nov_11_1011,MA_Theta_Exp,3.0.7,59.76407533651729,
video/Experiment/zh_sp01_Un_Ge_2_NVocInAudio_NoVideo.avi,vocoded,noVideo,sp01,Un,Ge,2,0,2,flow/blocks/NVocInAudio_NoVideo_B.csv,,,,,,,,,,,,,,,,,0,0,0,0,0,13,13,17,-0.45694444444444443,-0.34675925925925927,1,0,0,5.175424599998223,call4,-0.013888888888888888,0.33796296296296297,1,0,0,5.7467421000037575,colour1,0.41388888888888886,0.11574074074074074,1,0,0,6.093378799996572,number2,True,True,True,4,4,2019_Nov_11_1011,MA_Theta_Exp,3.0.7,59.76407533651729,
video/Experiment/zh_sp01_Un_Ge_3_NVocInAudio_NoVideo.avi,vocoded,noVideo,sp01,Un,Ge,3,0,2,flow/blocks/NVocInAudio_NoVideo_B.csv,,,,,,,,,,,,,,,,,0,0,0,0,0,14,14,18,-0.4638888888888889,-0.12175925925925926,1,0,0,5.101872799998091,call3,0.04027777777777778,0.34629629629629627,1,0,0,5.629758399998536,colour1,0.3388888888888889,0.01712962962962963,1,0,0,6.265136499998334,number2,False,True,False,4,4,2019_Nov_11_1011,MA_Theta_Exp,3.0.7,59.76407533651729,
video/Experiment/zh_sp07_Ti_Ge_3_NVocInAudio_NoVideo.avi,vocoded,noVideo,sp07,Ti,Ge,3,0,2,flow/blocks/NVocInAudio_NoVideo_B.csv,,,,,,,,,,,,,,,,,0,0,0,0,0,15,15,2,-0.3763888888888889,-0.09953703703703703,1,0,0,5.138865099994291,call3,0.034722222222222224,-0.08703703703703704,1,0,0,6.090489700000035,colour3,0.42916666666666664,-0.08564814814814815,1,0,0,6.369669500003511,number3,True,False,True,4,4,2019_Nov_11_1011,MA_Theta_Exp,3.0.7,59.76407533651729,
video/Experiment/zh_sp01_Un_Gr_3_NVocInAudio_NoVideo.avi,vocoded,noVideo,sp01,Un,Gr,3,0,2,flow/blocks/NVocInAudio_NoVideo_B.csv,,,,,,,,,,,,,,,,,0,0,0,0,0,16,16,22,-0.42083333333333334,-0.12731481481481483,1,0,0,5.176421600001049,call3,0.011111111111111112,-0.09675925925925925,1,0,0,6.228070400000433,colour3,0.4625,-0.08703703703703704,1,0,0,6.574765199999092,number3,False,False,True,4,4,2019_Nov_11_1011,MA_Theta_Exp,3.0.7,59.76407533651729,
video/Experiment/zh_sp07_Un_Ro_2_NVocInAudio_NoVideo.avi,vocoded,noVideo,sp07,Un,Ro,2,0,2,flow/blocks/NVocInAudio_NoVideo_B.csv,,,,,,,,,,,,,,,,,0,0,0,0,0,17,17,25,-0.3861111111111111,-0.28703703703703703,1,0,0,4.504910700001346,call4,0.009722222222222222,-0.09259259259259259,1,0,0,4.82265550000011,colour3,0.4388888888888889,0.0837962962962963,1,0,0,5.140980199998012,number2,True,True,True,4,4,2019_Nov_11_1011,MA_Theta_Exp,3.0.7,59.76407533651729,
video/Experiment/zh_sp07_Ti_Ge_4_NVocInAudio_NoVideo.avi,vocoded,noVideo,sp07,Ti,Ge,4,0,2,flow/blocks/NVocInAudio_NoVideo_B.csv,,,,,,,,,,,,,,,,,0,0,0,0,0,18,18,3,-0.3902777777777778,-0.11481481481481481,1,0,0,4.5958115000030375,call3,0.05416666666666667,0.2449074074074074,1,0,0,4.979863699998532,colour1,0.42916666666666664,-0.33564814814814814,1,0,0,5.764372199999343,number4,True,True,True,4,4,2019_Nov_11_1011,MA_Theta_Exp,3.0.7,59.76407533651729,
video/Experiment/zh_sp07_Un_Ro_4_NVocInAudio_NoVideo.avi,vocoded,noVideo,sp07,Un,Ro,4,0,2,flow/blocks/NVocInAudio_NoVideo_B.csv,,,,,,,,,,,,,,,,,0,0,0,0,0,19,19,27,-0.3597222222222222,-0.32731481481481484,1,0,0,4.5063609999997425,call4,-0.03194444444444444,-0.15092592592592594,1,0,0,4.813731800000824,colour3,0.36666666666666664,-0.3398148148148148,1,0,0,5.111624499993923,number4,True,True,True,4,4,2019_Nov_11_1011,MA_Theta_Exp,3.0.7,59.76407533651729,
video/Experiment/zh_sp07_Un_Ge_4_NVocInAudio_NoVideo.avi,vocoded,noVideo,sp07,Un,Ge,4,0,2,flow/blocks/NVocInAudio_NoVideo_B.csv,,,,,,,,,,,,,,,,,0,0,0,0,0,20,20,19,-0.38472222222222224,-0.31203703703703706,1,0,0,4.19576059999963,call4,-0.09861111111111111,0.4546296296296296,1,0,0,4.546563999996579,colour1,0.5333333333333333,-0.41759259259259257,1,0,0,5.301086500003294,number4,True,True,True,4,4,2019_Nov_11_1011,MA_Theta_Exp,3.0.7,59.76407533651729,
video/Experiment/zh_sp01_Ti_Ge_2_NVocInAudio_NoVideo.avi,vocoded,noVideo,sp01,Ti,Ge,2,0,2,flow/blocks/NVocInAudio_NoVideo_B.csv,,,,,,,,,,,,,,,,,0,0,0,0,0,21,21,1,-0.41944444444444445,-0.10787037037037037,1,0,0,6.3860811999984435,call3,0.001388888888888889,0.2949074074074074,1,0,0,7.84811919999629,colour1,0.44166666666666665,0.11296296296296296,1,0,0,8.20107519999874,number2,True,True,True,4,4,2019_Nov_11_1011,MA_Theta_Exp,3.0.7,59.76407533651729,
video/Experiment/zh_sp01_Un_We_1_NVocInAudio_NoVideo.avi,vocoded,noVideo,sp01,Un,We,1,0,2,flow/blocks/NVocInAudio_NoVideo_B.csv,,,,,,,,,,,,,,,,,0,0,0,0,0,22,22,28,-0.3958333333333333,-0.33287037037037037,1,0,0,5.464058300000033,call4,-0.043055555555555555,-0.32592592592592595,1,0,0,5.764437600002566,colour4,0.4125,0.30462962962962964,1,0,0,6.405029500005185,number1,True,True,True,4,4,2019_Nov_11_1011,MA_Theta_Exp,3.0.7,59.76407533651729,
video/Experiment/zh_sp01_Ti_Gr_3_NVocInAudio_NoVideo.avi,vocoded,noVideo,sp01,Ti,Gr,3,0,2,flow/blocks/NVocInAudio_NoVideo_B.csv,,,,,,,,,,,,,,,,,0,0,0,0,0,23,23,6,-0.35694444444444445,-0.1287037037037037,1,0,0,5.484539099998074,call3,0.03333333333333333,-0.29259259259259257,1,0,0,7.705945800000336,colour4,0.4083333333333333,-0.04398148148148148,1,0,0,8.053682300000219,number3,True,False,True,4,4,2019_Nov_11_1011,MA_Theta_Exp,3.0.7,59.76407533651729,
video/Experiment/zh_sp01_Ti_Ge_1_NVocInAudio_NoVideo.avi,vocoded,noVideo,sp01,Ti,Ge,1,0,2,flow/blocks/NVocInAudio_NoVideo_B.csv,,,,,,,,,,,,,,,,,0,0,0,0,0,24,24,0,-0.37222222222222223,-0.06481481481481481,1,0,0,5.212847099995997,call3,-0.04583333333333333,0.350462962962963,1,0,0,5.794024700000591,colour1,0.45416666666666666,0.32546296296296295,1,0,0,6.180169100000057,number1,True,True,True,4,4,2019_Nov_11_1011,MA_Theta_Exp,3.0.7,59.76407533651729,
video/Experiment/zh_sp01_Ti_Ro_1_NVocInAudio_NoVideo.avi,vocoded,noVideo,sp01,Ti,Ro,1,0,2,flow/blocks/NVocInAudio_NoVideo_B.csv,,,,,,,,,,,,,,,,,0,0,0,0,0,25,25,8,-0.41388888888888886,-0.07592592592592592,1,0,0,5.455673199998273,call3,-0.019444444444444445,-0.07175925925925926,1,0,0,5.777277699999104,colour3,0.4527777777777778,0.30462962962962964,1,0,0,6.175499999997555,number1,True,True,True,4,4,2019_Nov_11_1011,MA_Theta_Exp,3.0.7,59.76407533651729,
video/Experiment/zh_sp07_Ti_We_2_NVocInAudio_NoVideo.avi,vocoded,noVideo,sp07,Ti,We,2,0,2,flow/blocks/NVocInAudio_NoVideo_B.csv,,,,,,,,,,,,,,,,,0,0,0,0,0,26,26,13,-0.4166666666666667,-0.10231481481481482,1,0,0,4.652638099993055,call3,0.05138888888888889,-0.3314814814814815,1,0,0,5.540241900002002,colour4,0.4097222222222222,0.02546296296296296,1,0,0,5.930127300001914,number2,True,True,True,4,4,2019_Nov_11_1011,MA_Theta_Exp,3.0.7,59.76407533651729,
video/Experiment/zh_sp07_Un_Gr_4_NVocInAudio_NoVideo.avi,vocoded,noVideo,sp07,Un,Gr,4,0,2,flow/blocks/NVocInAudio_NoVideo_B.csv,,,,,,,,,,,,,,,,,0,0,0,0,0,27,27,23,-0.3888888888888889,-0.32731481481481484,1,0,0,5.030702800002473,call4,0.08611111111111111,0.14351851851851852,1,0,0,5.79058939999959,colour2,0.4777777777777778,-0.32314814814814813,1,0,0,6.206700399998226,number4,True,True,True,4,4,2019_Nov_11_1011,MA_Theta_Exp,3.0.7,59.76407533651729,
video/Experiment/zh_sp07_Ti_We_3_NVocInAudio_NoVideo.avi,vocoded,noVideo,sp07,Ti,We,3,0,2,flow/blocks/NVocInAudio_NoVideo_B.csv,,,,,,,,,,,,,,,,,0,0,0,0,0,28,28,14,-0.3875,-0.1037037037037037,1,0,0,4.522429900003772,call3,0.03333333333333333,-0.29953703703703705,1,0,0,4.940238799994404,colour4,0.3402777777777778,-0.13425925925925927,1,0,0,5.256191399996169,number3,True,True,True,4,4,2019_Nov_11_1011,MA_Theta_Exp,3.0.7,59.76407533651729,
video/Experiment/zh_sp07_Ti_Gr_2_NVocInAudio_NoVideo.avi,vocoded,noVideo,sp07,Ti,Gr,2,0,2,flow/blocks/NVocInAudio_NoVideo_B.csv,,,,,,,,,,,,,,,,,0,0,0,0,0,29,29,5,-0.4847222222222222,-0.05092592592592592,1,0,0,4.440566000004765,call3,-0.030555555555555555,0.05324074074074074,1,0,0,4.854055400006473,colour2,0.36944444444444446,0.09074074074074075,1,0,0,5.156175600001006,number2,True,True,True,4,4,2019_Nov_11_1011,MA_Theta_Exp,3.0.7,59.76407533651729,
video/Experiment/zh_sp07_Ti_We_1_NVocInAudio_NoVideo.avi,vocoded,noVideo,sp07,Ti,We,1,0,2,flow/blocks/NVocInAudio_NoVideo_B.csv,,,,,,,,,,,,,,,,,0,0,0,0,0,30,30,12,-0.3763888888888889,-0.17037037037037037,1,0,0,4.358597300000838,call3,-0.022222222222222223,0.06851851851851852,1,0,0,4.688055999999051,colour2,0.42083333333333334,0.3143518518518518,1,0,0,5.223652399996354,number1,True,False,True,4,4,2019_Nov_11_1011,MA_Theta_Exp,3.0.7,59.76407533651729,
video/Experiment/zh_sp01_Un_We_3_NVocInAudio_NoVideo.avi,vocoded,noVideo,sp01,Un,We,3,0,2,flow/blocks/NVocInAudio_NoVideo_B.csv,,,,,,,,,,,,,,,,,0,0,0,0,0,31,31,30,-0.4027777777777778,-0.3453703703703704,1,0,0,5.059233199994196,call4,-0.002777777777777778,-0.35648148148148145,1,0,0,5.298029600002337,colour4,0.41388888888888886,-0.13564814814814816,1,0,0,5.625827500000014,number3,True,True,True,4,4,2019_Nov_11_1011,MA_Theta_Exp,3.0.7,59.76407533651729,
