videoFile,condition,video,speaker,callSign,colour,number,seq,id,block,exp.thisRepN,exp.thisTrialN,exp.thisN,exp.thisIndex,training.thisRepN,training.thisTrialN,training.thisN,training.thisIndex,firstHalf.thisRepN,firstHalf.thisTrialN,firstHalf.thisN,firstHalf.thisIndex,blocksA.thisRepN,blocksA.thisTrialN,blocksA.thisN,blocksA.thisIndex,secondHalf.thisRepN,secondHalf.thisTrialN,secondHalf.thisN,secondHalf.thisIndex,blocksB.thisRepN,blocksB.thisTrialN,blocksB.thisN,blocksB.thisIndex,mouseClickOnCall.x,mouseClickOnCall.y,mouseClickOnCall.leftButton,mouseClickOnCall.midButton,mouseClickOnCall.rightButton,mouseClickOnCall.time,mouseClickOnCall.clicked_name,mouseClickOnColour.x,mouseClickOnColour.y,mouseClickOnColour.leftButton,mouseClickOnColour.midButton,mouseClickOnColour.rightButton,mouseClickOnColour.time,mouseClickOnColour.clicked_name,mouseClickOnNumber.x,mouseClickOnNumber.y,mouseClickOnNumber.leftButton,mouseClickOnNumber.midButton,mouseClickOnNumber.rightButton,mouseClickOnNumber.time,mouseClickOnNumber.clicked_name,callSignCorrect,colourCorrect,numberCorrect,participant,order,date,expName,psychopyVersion,frameRate,
video/Training/zh_sp01_Ad_We_4_NVocInAudio_NoVideo.avi,vocoded,noVideo,sp01,Ad,We,4,,,,,,,,0,0,0,0,,,,,,,,,,,,,,,,,-0.35324074074074074,0.3060185185185185,1,0,0,6.12095330000011,call1,-0.010185185185185186,-0.324537037037037,1,0,0,7.188620799999626,colour4,0.449537037037037,-0.30787037037037035,1,0,0,7.820010199997341,number4,True,True,True,5,5,2019_Nov_11_1103,MA_Theta_Exp,3.0.7,59.870559851085865,
video/Training/zh_sp07_Ad_Ge_3_NVocInAudio_NoVideo.avi,vocoded,noVideo,sp07,Ad,Ge,3,,,,,,,,0,1,1,1,,,,,,,,,,,,,,,,,-0.37962962962962965,0.2935185185185185,1,0,0,4.667974600000889,call1,0.08148148148148149,0.31574074074074077,1,0,0,5.37521270000434,colour1,0.4203703703703704,-0.11064814814814815,1,0,0,6.3694015000000945,number3,True,True,True,5,5,2019_Nov_11_1103,MA_Theta_Exp,3.0.7,59.870559851085865,
video/Training/zh_sp01_Dr_Ro_3_NVocInAudio_GlobalThetaInVideo.avi,vocoded,plusVideo,sp01,Dr,Ro,3,,,,,,,,0,2,2,2,,,,,,,,,,,,,,,,,-0.38101851851851853,0.0837962962962963,1,0,0,6.208933000001707,call2,0.01898148148148148,-0.1162037037037037,1,0,0,8.606396800001676,colour3,0.4078703703703704,-0.0912037037037037,1,0,0,9.447289600000659,number3,True,True,True,5,5,2019_Nov_11_1103,MA_Theta_Exp,3.0.7,59.870559851085865,
video/Training/zh_sp07_Dr_Gr_4_NVocInAudio_GlobalThetaInVideo.avi,vocoded,plusVideo,sp07,Dr,Gr,4,,,,,,,,0,3,3,3,,,,,,,,,,,,,,,,,-0.38101851851851853,0.08518518518518518,1,0,0,4.862619599996833,call2,-0.05324074074074074,0.11574074074074074,1,0,0,5.50711460000457,colour2,0.4078703703703704,-0.30092592592592593,1,0,0,6.338035200002196,number4,True,True,True,5,5,2019_Nov_11_1103,MA_Theta_Exp,3.0.7,59.870559851085865,
video/Training/zh_sp01_Ti_Gr_2_NoThetaInAudio_NoVideo.avi,noTheta,noVideo,sp01,Ti,Gr,2,,,,,,,,0,4,4,4,,,,,,,,,,,,,,,,,-0.3976851851851852,0.28935185185185186,1,0,0,7.662013400004071,call1,-0.047685185185185185,0.11157407407407408,1,0,0,8.322464900003979,colour2,0.38981481481481484,0.1087962962962963,1,0,0,9.132542999999714,number2,False,True,True,5,5,2019_Nov_11_1103,MA_Theta_Exp,3.0.7,59.870559851085865,
video/Training/zh_sp07_Ti_Ro_1_NoThetaInAudio_NoVideo.avi,noTheta,noVideo,sp07,Ti,Ro,1,,,,,,,,0,5,5,5,,,,,,,,,,,,,,,,,-0.42962962962962964,-0.1037037037037037,1,0,0,4.688007700002345,call3,-0.02546296296296296,-0.08425925925925926,1,0,0,5.3340078000037465,colour3,0.35509259259259257,0.33101851851851855,1,0,0,6.037385199997516,number1,True,True,True,5,5,2019_Nov_11_1103,MA_Theta_Exp,3.0.7,59.870559851085865,
video/Training/zh_sp01_Un_Ge_1_NoThetaInAudio_GlobalThetaInVideo.avi,noTheta,plusVideo,sp01,Un,Ge,1,,,,,,,,0,6,6,6,,,,,,,,,,,,,,,,,-0.3768518518518518,0.1449074074074074,1,0,0,5.2476734000010765,call2,0.023148148148148147,0.300462962962963,1,0,0,6.045959100003529,colour1,0.39814814814814814,0.2962962962962963,1,0,0,7.45214329999726,number1,False,True,True,5,5,2019_Nov_11_1103,MA_Theta_Exp,3.0.7,59.870559851085865,
video/Training/zh_sp07_Un_We_2_NoThetaInAudio_GlobalThetaInVideo.avi,noTheta,plusVideo,sp07,Un,We,2,,,,,,,,0,7,7,7,,,,,,,,,,,,,,,,,-0.40046296296296297,-0.33287037037037037,1,0,0,5.010307500000636,call4,-0.01574074074074074,-0.28703703703703703,1,0,0,5.772415599996748,colour4,0.4023148148148148,0.10324074074074074,1,0,0,7.3523790999970515,number2,True,True,True,5,5,2019_Nov_11_1103,MA_Theta_Exp,3.0.7,59.870559851085865,
video/Training/zh_sp01_Ad_Ge_1_GlobalTheta_NoVideo.avi,globalTheta,noVideo,sp01,Ad,Ge,1,,,,,,,,0,8,8,8,,,,,,,,,,,,,,,,,-0.4351851851851852,0.29212962962962963,1,0,0,8.431499500002246,call1,-0.004629629629629629,0.26990740740740743,1,0,0,8.886829299997771,colour1,0.3939814814814815,0.27824074074074073,1,0,0,9.551519399996323,number1,True,True,True,5,5,2019_Nov_11_1103,MA_Theta_Exp,3.0.7,59.870559851085865,
video/Training/zh_sp07_Ad_Ro_3_GlobalTheta_NoVideo.avi,globalTheta,noVideo,sp07,Ad,Ro,3,,,,,,,,0,9,9,9,,,,,,,,,,,,,,,,,-0.39490740740740743,0.3212962962962963,1,0,0,5.871747900004266,call1,0.003703703703703704,0.10185185185185185,1,0,0,9.994026699998358,colour2,0.3800925925925926,-0.0787037037037037,1,0,0,11.00049990000116,number3,True,False,True,5,5,2019_Nov_11_1103,MA_Theta_Exp,3.0.7,59.870559851085865,
video/Experiment/zh_sp07_Dr_Gr_2_NoThetaInAudio_NoVideo.avi,noTheta,noVideo,sp07,Dr,Gr,2,0,4,flow/blocks/NoThetaInAudio_NoVideo_A.csv,,,,,,,,,0,0,0,0,0,0,0,21,,,,,,,,,-0.39351851851851855,0.10740740740740741,1,0,0,5.312222499997006,call2,0.06342592592592593,0.10324074074074074,1,0,0,5.8034631999980775,colour2,0.3814814814814815,0.10740740740740741,1,0,0,6.94969420000416,number2,True,True,True,5,5,2019_Nov_11_1103,MA_Theta_Exp,3.0.7,59.870559851085865,
video/Experiment/zh_sp07_Ad_Ro_2_NoThetaInAudio_NoVideo.avi,noTheta,noVideo,sp07,Ad,Ro,2,0,4,flow/blocks/NoThetaInAudio_NoVideo_A.csv,,,,,,,,,0,0,0,0,0,1,1,9,,,,,,,,,-0.40879629629629627,0.31157407407407406,1,0,0,4.5815029999939725,call1,-0.021296296296296296,-0.08842592592592592,1,0,0,5.317472999995516,colour3,0.38842592592592595,0.1087962962962963,1,0,0,6.548654800004442,number2,True,True,True,5,5,2019_Nov_11_1103,MA_Theta_Exp,3.0.7,59.870559851085865,
video/Experiment/zh_sp01_Ad_We_1_NoThetaInAudio_NoVideo.avi,noTheta,noVideo,sp01,Ad,We,1,0,4,flow/blocks/NoThetaInAudio_NoVideo_A.csv,,,,,,,,,0,0,0,0,0,2,2,12,,,,,,,,,-0.38657407407407407,0.29074074074074074,1,0,0,5.061267400000361,call1,-0.0032407407407407406,-0.3037037037037037,1,0,0,5.775821700000961,colour4,0.399537037037037,0.31157407407407406,1,0,0,7.140620999998646,number1,True,True,True,5,5,2019_Nov_11_1103,MA_Theta_Exp,3.0.7,59.870559851085865,
video/Experiment/zh_sp01_Dr_We_1_NoThetaInAudio_NoVideo.avi,noTheta,noVideo,sp01,Dr,We,1,0,4,flow/blocks/NoThetaInAudio_NoVideo_A.csv,,,,,,,,,0,0,0,0,0,3,3,28,,,,,,,,,-0.3990740740740741,0.12685185185185185,1,0,0,5.520657599998231,call2,0.013425925925925926,-0.29814814814814816,1,0,0,6.203576899999462,colour4,0.39537037037037037,0.33935185185185185,1,0,0,7.474033000005875,number1,True,True,True,5,5,2019_Nov_11_1103,MA_Theta_Exp,3.0.7,59.870559851085865,
video/Experiment/zh_sp01_Ad_We_2_NoThetaInAudio_NoVideo.avi,noTheta,noVideo,sp01,Ad,We,2,0,4,flow/blocks/NoThetaInAudio_NoVideo_A.csv,,,,,,,,,0,0,0,0,0,4,4,13,,,,,,,,,-0.3976851851851852,0.3060185185185185,1,0,0,5.160423000001174,call1,0.012037037037037037,-0.3175925925925926,1,0,0,5.832966500005568,colour4,0.41064814814814815,0.10740740740740741,1,0,0,6.906906500000332,number2,True,True,True,5,5,2019_Nov_11_1103,MA_Theta_Exp,3.0.7,59.870559851085865,
video/Experiment/zh_sp07_Ad_Ro_1_NoThetaInAudio_NoVideo.avi,noTheta,noVideo,sp07,Ad,Ro,1,0,4,flow/blocks/NoThetaInAudio_NoVideo_A.csv,,,,,,,,,0,0,0,0,0,5,5,8,,,,,,,,,-0.38796296296296295,0.30462962962962964,1,0,0,4.337369799999578,call1,0.027314814814814816,-0.07314814814814814,1,0,0,5.01385570000275,colour3,0.3814814814814815,0.2935185185185185,1,0,0,6.126813200004108,number1,True,True,True,5,5,2019_Nov_11_1103,MA_Theta_Exp,3.0.7,59.870559851085865,
video/Experiment/zh_sp01_Ad_Ro_4_NoThetaInAudio_NoVideo.avi,noTheta,noVideo,sp01,Ad,Ro,4,0,4,flow/blocks/NoThetaInAudio_NoVideo_A.csv,,,,,,,,,0,0,0,0,0,6,6,11,,,,,,,,,-0.45185185185185184,0.28379629629629627,1,0,0,5.236540799996874,call1,-0.032407407407407406,-0.11481481481481481,1,0,0,5.868932700002915,colour3,0.3787037037037037,-0.32314814814814813,1,0,0,7.33006849999947,number4,True,True,True,5,5,2019_Nov_11_1103,MA_Theta_Exp,3.0.7,59.870559851085865,
video/Experiment/zh_sp07_Dr_We_4_NoThetaInAudio_NoVideo.avi,noTheta,noVideo,sp07,Dr,We,4,0,4,flow/blocks/NoThetaInAudio_NoVideo_A.csv,,,,,,,,,0,0,0,0,0,7,7,31,,,,,,,,,-0.3990740740740741,0.11018518518518519,1,0,0,4.700373599996965,call2,0.023148148148148147,-0.32592592592592595,1,0,0,5.521061699997517,colour4,0.38564814814814813,-0.1050925925925926,1,0,0,7.725173300001188,number3,True,True,False,5,5,2019_Nov_11_1103,MA_Theta_Exp,3.0.7,59.870559851085865,
video/Experiment/zh_sp01_Ad_Ge_3_NoThetaInAudio_NoVideo.avi,noTheta,noVideo,sp01,Ad,Ge,3,0,4,flow/blocks/NoThetaInAudio_NoVideo_A.csv,,,,,,,,,0,0,0,0,0,8,8,2,,,,,,,,,-0.412962962962963,0.30324074074074076,1,0,0,4.782243499998003,call1,-0.05462962962962963,0.2796296296296296,1,0,0,5.20157990000007,colour1,0.3800925925925926,-0.09814814814814815,1,0,0,6.750842000001285,number3,True,True,True,5,5,2019_Nov_11_1103,MA_Theta_Exp,3.0.7,59.870559851085865,
video/Experiment/zh_sp01_Ad_We_4_NoThetaInAudio_NoVideo.avi,noTheta,noVideo,sp01,Ad,We,4,0,4,flow/blocks/NoThetaInAudio_NoVideo_A.csv,,,,,,,,,0,0,0,0,0,9,9,15,,,,,,,,,-0.4074074074074074,0.2962962962962963,1,0,0,4.890085400002135,call1,0.016203703703703703,-0.2953703703703704,1,0,0,5.526616200004355,colour4,0.4050925925925926,-0.30787037037037035,1,0,0,6.72875579999527,number4,True,True,True,5,5,2019_Nov_11_1103,MA_Theta_Exp,3.0.7,59.870559851085865,
video/Experiment/zh_sp01_Dr_Ro_3_NoThetaInAudio_NoVideo.avi,noTheta,noVideo,sp01,Dr,Ro,3,0,4,flow/blocks/NoThetaInAudio_NoVideo_A.csv,,,,,,,,,0,0,0,0,0,10,10,26,,,,,,,,,-0.4074074074074074,0.26851851851851855,1,0,0,8.511772199999541,call1,0.02175925925925926,-0.11342592592592593,1,0,0,9.208570100003271,colour3,0.4009259259259259,-0.10648148148148148,1,0,0,10.2584663000016,number3,False,True,True,5,5,2019_Nov_11_1103,MA_Theta_Exp,3.0.7,59.870559851085865,
video/Experiment/zh_sp07_Dr_Gr_1_NoThetaInAudio_NoVideo.avi,noTheta,noVideo,sp07,Dr,Gr,1,0,4,flow/blocks/NoThetaInAudio_NoVideo_A.csv,,,,,,,,,0,0,0,0,0,11,11,20,,,,,,,,,-0.38101851851851853,0.09768518518518518,1,0,0,4.50967039999523,call2,-0.001851851851851852,0.0962962962962963,1,0,0,5.004489200000535,colour2,0.3939814814814815,0.3087962962962963,1,0,0,6.025000399997225,number1,True,True,True,5,5,2019_Nov_11_1103,MA_Theta_Exp,3.0.7,59.870559851085865,
video/Experiment/zh_sp07_Dr_Ge_4_NoThetaInAudio_NoVideo.avi,noTheta,noVideo,sp07,Dr,Ge,4,0,4,flow/blocks/NoThetaInAudio_NoVideo_A.csv,,,,,,,,,0,0,0,0,0,12,12,19,,,,,,,,,-0.38935185185185184,0.09212962962962963,1,0,0,5.277465200000734,call2,-0.004629629629629629,0.28935185185185186,1,0,0,5.8376485999979195,colour1,0.4203703703703704,-0.3189814814814815,1,0,0,6.948874900001101,number4,True,True,True,5,5,2019_Nov_11_1103,MA_Theta_Exp,3.0.7,59.870559851085865,
video/Experiment/zh_sp01_Ad_Gr_3_NoThetaInAudio_NoVideo.avi,noTheta,noVideo,sp01,Ad,Gr,3,0,4,flow/blocks/NoThetaInAudio_NoVideo_A.csv,,,,,,,,,0,0,0,0,0,13,13,6,,,,,,,,,-0.39351851851851855,0.31157407407407406,1,0,0,4.994243400004052,call1,-0.018518518518518517,0.08935185185185185,1,0,0,5.56325900000229,colour2,0.3925925925925926,-0.09814814814814815,1,0,0,6.917139799996221,number3,True,True,True,5,5,2019_Nov_11_1103,MA_Theta_Exp,3.0.7,59.870559851085865,
video/Experiment/zh_sp01_Dr_We_3_NoThetaInAudio_NoVideo.avi,noTheta,noVideo,sp01,Dr,We,3,0,4,flow/blocks/NoThetaInAudio_NoVideo_A.csv,,,,,,,,,0,0,0,0,0,14,14,30,,,,,,,,,-0.412962962962963,0.0824074074074074,1,0,0,4.957259599999816,call2,0.023148148148148147,-0.3189814814814815,1,0,0,5.5952362999960314,colour4,0.41898148148148145,-0.08564814814814815,1,0,0,6.555797100001655,number3,True,True,True,5,5,2019_Nov_11_1103,MA_Theta_Exp,3.0.7,59.870559851085865,
video/Experiment/zh_sp01_Dr_Gr_4_NoThetaInAudio_NoVideo.avi,noTheta,noVideo,sp01,Dr,Gr,4,0,4,flow/blocks/NoThetaInAudio_NoVideo_A.csv,,,,,,,,,0,0,0,0,0,15,15,23,,,,,,,,,-0.3837962962962963,0.0962962962962963,1,0,0,6.105959400003485,call2,0.014814814814814815,0.08935185185185185,1,0,0,7.1446625999960816,colour2,0.4050925925925926,-0.31203703703703706,1,0,0,8.389732900002855,number4,True,True,True,5,5,2019_Nov_11_1103,MA_Theta_Exp,3.0.7,59.870559851085865,
video/Experiment/zh_sp07_Dr_Gr_3_NoThetaInAudio_NoVideo.avi,noTheta,noVideo,sp07,Dr,Gr,3,0,4,flow/blocks/NoThetaInAudio_NoVideo_A.csv,,,,,,,,,0,0,0,0,0,16,16,22,,,,,,,,,-0.38657407407407407,0.3101851851851852,1,0,0,5.34235279999848,call1,0.055092592592592596,0.11157407407407408,1,0,0,5.760418400001072,colour2,0.4203703703703704,-0.12175925925925926,1,0,0,6.340915799999493,number3,False,True,True,5,5,2019_Nov_11_1103,MA_Theta_Exp,3.0.7,59.870559851085865,
video/Experiment/zh_sp01_Ad_We_3_NoThetaInAudio_NoVideo.avi,noTheta,noVideo,sp01,Ad,We,3,0,4,flow/blocks/NoThetaInAudio_NoVideo_A.csv,,,,,,,,,0,0,0,0,0,17,17,14,,,,,,,,,-0.3990740740740741,0.31712962962962965,1,0,0,4.955583700000716,call1,0.017592592592592594,-0.2814814814814815,1,0,0,5.625746600002458,colour4,0.38425925925925924,-0.11064814814814815,1,0,0,6.588424800000212,number3,True,True,True,5,5,2019_Nov_11_1103,MA_Theta_Exp,3.0.7,59.870559851085865,
video/Experiment/zh_sp01_Dr_Ge_3_NoThetaInAudio_NoVideo.avi,noTheta,noVideo,sp01,Dr,Ge,3,0,4,flow/blocks/NoThetaInAudio_NoVideo_A.csv,,,,,,,,,0,0,0,0,0,18,18,18,,,,,,,,,-0.38796296296296295,0.07546296296296297,1,0,0,5.016638499997498,call2,-0.010185185185185186,0.3143518518518518,1,0,0,5.615402299998095,colour1,0.3773148148148148,-0.1050925925925926,1,0,0,6.296422399995208,number3,True,True,True,5,5,2019_Nov_11_1103,MA_Theta_Exp,3.0.7,59.870559851085865,
video/Experiment/zh_sp07_Ad_Ge_1_NoThetaInAudio_NoVideo.avi,noTheta,noVideo,sp07,Ad,Ge,1,0,4,flow/blocks/NoThetaInAudio_NoVideo_A.csv,,,,,,,,,0,0,0,0,0,19,19,0,,,,,,,,,-0.36157407407407405,0.3074074074074074,1,0,0,4.2793235999997705,call1,0.013425925925925926,0.29907407407407405,1,0,0,4.764792699999816,colour1,0.43287037037037035,0.33935185185185185,1,0,0,5.296985100001621,number1,True,True,True,5,5,2019_Nov_11_1103,MA_Theta_Exp,3.0.7,59.870559851085865,
video/Experiment/zh_sp07_Dr_Ge_1_NoThetaInAudio_NoVideo.avi,noTheta,noVideo,sp07,Dr,Ge,1,0,4,flow/blocks/NoThetaInAudio_NoVideo_A.csv,,,,,,,,,0,0,0,0,0,20,20,16,,,,,,,,,-0.39490740740740743,-0.32731481481481484,1,0,0,4.472557100001723,call4,0.01898148148148148,0.3212962962962963,1,0,0,5.2396856999985175,colour1,0.4078703703703704,0.3212962962962963,1,0,0,6.591831400000956,number1,False,True,True,5,5,2019_Nov_11_1103,MA_Theta_Exp,3.0.7,59.870559851085865,
video/Experiment/zh_sp07_Ad_Gr_1_NoThetaInAudio_NoVideo.avi,noTheta,noVideo,sp07,Ad,Gr,1,0,4,flow/blocks/NoThetaInAudio_NoVideo_A.csv,,,,,,,,,0,0,0,0,0,21,21,4,,,,,,,,,-0.3365740740740741,0.300462962962963,1,0,0,4.426743299998634,call1,0.04259259259259259,0.09074074074074075,1,0,0,5.074752600005013,colour2,0.4050925925925926,0.32407407407407407,1,0,0,6.269616700003098,number1,True,True,True,5,5,2019_Nov_11_1103,MA_Theta_Exp,3.0.7,59.870559851085865,
video/Experiment/zh_sp01_Ad_Ro_3_NoThetaInAudio_NoVideo.avi,noTheta,noVideo,sp01,Ad,Ro,3,0,4,flow/blocks/NoThetaInAudio_NoVideo_A.csv,,,,,,,,,0,0,0,0,0,22,22,10,,,,,,,,,-0.3587962962962963,0.30324074074074076,1,0,0,5.206559599995671,call1,0.016203703703703703,-0.09814814814814815,1,0,0,5.910986300004879,colour3,0.38287037037037036,-0.10092592592592593,1,0,0,6.746271299998625,number3,True,True,True,5,5,2019_Nov_11_1103,MA_Theta_Exp,3.0.7,59.870559851085865,
video/Experiment/zh_sp01_Dr_Ro_2_NoThetaInAudio_NoVideo.avi,noTheta,noVideo,sp01,Dr,Ro,2,0,4,flow/blocks/NoThetaInAudio_NoVideo_A.csv,,,,,,,,,0,0,0,0,0,23,23,25,,,,,,,,,-0.36574074074074076,0.0699074074074074,1,0,0,5.310039700001653,call2,0.03287037037037037,-0.13148148148148148,1,0,0,5.781328299999586,colour3,0.387037037037037,0.12407407407407407,1,0,0,6.470850399993651,number2,True,True,True,5,5,2019_Nov_11_1103,MA_Theta_Exp,3.0.7,59.870559851085865,
video/Experiment/zh_sp07_Ad_Ge_4_NoThetaInAudio_NoVideo.avi,noTheta,noVideo,sp07,Ad,Ge,4,0,4,flow/blocks/NoThetaInAudio_NoVideo_A.csv,,,,,,,,,0,0,0,0,0,24,24,3,,,,,,,,,-0.35185185185185186,0.2865740740740741,1,0,0,4.501534100003482,call1,0.055092592592592596,0.31157407407407406,1,0,0,5.02753980000125,colour1,0.40370370370370373,-0.30787037037037035,1,0,0,5.820737300004112,number4,True,True,True,5,5,2019_Nov_11_1103,MA_Theta_Exp,3.0.7,59.870559851085865,
video/Experiment/zh_sp01_Dr_Ro_4_NoThetaInAudio_NoVideo.avi,noTheta,noVideo,sp01,Dr,Ro,4,0,4,flow/blocks/NoThetaInAudio_NoVideo_A.csv,,,,,,,,,0,0,0,0,0,25,25,27,,,,,,,,,-0.4046296296296296,0.11296296296296296,1,0,0,4.823963800001366,call2,-0.06435185185185185,-0.09537037037037037,1,0,0,5.293087199999718,colour3,0.43703703703703706,-0.30787037037037035,1,0,0,5.920984000003955,number4,True,True,True,5,5,2019_Nov_11_1103,MA_Theta_Exp,3.0.7,59.870559851085865,
video/Experiment/zh_sp07_Ad_Ge_2_NoThetaInAudio_NoVideo.avi,noTheta,noVideo,sp07,Ad,Ge,2,0,4,flow/blocks/NoThetaInAudio_NoVideo_A.csv,,,,,,,,,0,0,0,0,0,26,26,1,,,,,,,,,-0.4101851851851852,0.30324074074074076,1,0,0,4.279036499996437,call1,0.014814814814814815,0.2740740740740741,1,0,0,4.997113600002194,colour1,0.3939814814814815,0.1087962962962963,1,0,0,6.256115699994552,number2,True,True,True,5,5,2019_Nov_11_1103,MA_Theta_Exp,3.0.7,59.870559851085865,
video/Experiment/zh_sp07_Ad_Gr_4_NoThetaInAudio_NoVideo.avi,noTheta,noVideo,sp07,Ad,Gr,4,0,4,flow/blocks/NoThetaInAudio_NoVideo_A.csv,,,,,,,,,0,0,0,0,0,27,27,7,,,,,,,,,-0.37962962962962965,0.2824074074074074,1,0,0,4.206000099999073,call1,-0.0032407407407407406,0.10462962962962963,1,0,0,4.617215999998734,colour2,0.4078703703703704,-0.3162037037037037,1,0,0,5.2716073999981745,number4,True,True,True,5,5,2019_Nov_11_1103,MA_Theta_Exp,3.0.7,59.870559851085865,
video/Experiment/zh_sp07_Dr_Ro_1_NoThetaInAudio_NoVideo.avi,noTheta,noVideo,sp07,Dr,Ro,1,0,4,flow/blocks/NoThetaInAudio_NoVideo_A.csv,,,,,,,,,0,0,0,0,0,28,28,24,,,,,,,,,-0.37824074074074077,0.15601851851851853,1,0,0,4.383085499997833,call2,0.012037037037037037,-0.0787037037037037,1,0,0,5.052152399999613,colour3,0.39537037037037037,0.30324074074074076,1,0,0,6.914833900002122,number1,True,True,True,5,5,2019_Nov_11_1103,MA_Theta_Exp,3.0.7,59.870559851085865,
video/Experiment/zh_sp01_Dr_We_2_NoThetaInAudio_NoVideo.avi,noTheta,noVideo,sp01,Dr,We,2,0,4,flow/blocks/NoThetaInAudio_NoVideo_A.csv,,,,,,,,,0,0,0,0,0,29,29,29,,,,,,,,,-0.3990740740740741,-0.29259259259259257,1,0,0,5.57786070000293,call4,-0.012962962962962963,-0.30787037037037035,1,0,0,6.034400399999868,colour4,0.41203703703703703,0.10601851851851851,1,0,0,7.914860099997895,number2,False,True,True,5,5,2019_Nov_11_1103,MA_Theta_Exp,3.0.7,59.870559851085865,
video/Experiment/zh_sp07_Ad_Gr_2_NoThetaInAudio_NoVideo.avi,noTheta,noVideo,sp07,Ad,Gr,2,0,4,flow/blocks/NoThetaInAudio_NoVideo_A.csv,,,,,,,,,0,0,0,0,0,30,30,5,,,,,,,,,-0.3824074074074074,0.30462962962962964,1,0,0,4.408291100000497,call1,-0.05185185185185185,0.12129629629629629,1,0,0,4.82715879999887,colour2,0.39814814814814814,0.11157407407407408,1,0,0,6.070390200002294,number2,True,True,True,5,5,2019_Nov_11_1103,MA_Theta_Exp,3.0.7,59.870559851085865,
video/Experiment/zh_sp07_Dr_Ge_2_NoThetaInAudio_NoVideo.avi,noTheta,noVideo,sp07,Dr,Ge,2,0,4,flow/blocks/NoThetaInAudio_NoVideo_A.csv,,,,,,,,,0,0,0,0,0,31,31,17,,,,,,,,,-0.3851851851851852,0.07546296296296297,1,0,0,4.59492969999701,call2,0.003703703703703704,0.33796296296296297,1,0,0,5.18953540000075,colour1,0.4023148148148148,0.11851851851851852,1,0,0,6.58872529999644,number2,True,True,True,5,5,2019_Nov_11_1103,MA_Theta_Exp,3.0.7,59.870559851085865,
video/Experiment/zh_sp07_Ad_Ro_1_NVocInAudio_NoVideo.avi,vocoded,noVideo,sp07,Ad,Ro,1,1,2,flow/blocks/NVocInAudio_NoVideo_A.csv,,,,,,,,,0,1,1,1,0,0,0,8,,,,,,,,,-0.38796296296296295,0.3226851851851852,1,0,0,4.236974600004032,call1,0.0023148148148148147,-0.10231481481481482,1,0,0,4.8376301000025705,colour3,0.39675925925925926,0.32407407407407407,1,0,0,6.121871400006057,number1,True,True,True,5,5,2019_Nov_11_1103,MA_Theta_Exp,3.0.7,59.870559851085865,
video/Experiment/zh_sp07_Ad_Ge_1_NVocInAudio_NoVideo.avi,vocoded,noVideo,sp07,Ad,Ge,1,1,2,flow/blocks/NVocInAudio_NoVideo_A.csv,,,,,,,,,0,1,1,1,0,1,1,0,,,,,,,,,-0.43472222222222223,0.3199074074074074,1,0,0,4.726978300001065,call1,0.043055555555555555,0.31712962962962965,1,0,0,5.3594391000006,colour1,0.4041666666666667,0.31574074074074077,1,0,0,6.528676000001724,number1,True,True,True,5,5,2019_Nov_11_1103,MA_Theta_Exp,3.0.7,59.870559851085865,
video/Experiment/zh_sp01_Dr_Gr_4_NVocInAudio_NoVideo.avi,vocoded,noVideo,sp01,Dr,Gr,4,1,2,flow/blocks/NVocInAudio_NoVideo_A.csv,,,,,,,,,0,1,1,1,0,2,2,23,,,,,,,,,-0.35694444444444445,0.07546296296296297,1,0,0,4.9525236999979825,call2,0.005555555555555556,0.10324074074074074,1,0,0,5.6140291999981855,colour2,0.3972222222222222,-0.3148148148148148,1,0,0,7.082770699998946,number4,True,True,True,5,5,2019_Nov_11_1103,MA_Theta_Exp,3.0.7,59.870559851085865,
video/Experiment/zh_sp01_Ad_We_3_NVocInAudio_NoVideo.avi,vocoded,noVideo,sp01,Ad,We,3,1,2,flow/blocks/NVocInAudio_NoVideo_A.csv,,,,,,,,,0,1,1,1,0,3,3,14,,,,,,,,,-0.35,0.2935185185185185,1,0,0,5.002326299996639,call1,0.013888888888888888,-0.3398148148148148,1,0,0,5.630249499998172,colour4,0.39861111111111114,-0.10925925925925926,1,0,0,6.7986390000005485,number3,True,True,True,5,5,2019_Nov_11_1103,MA_Theta_Exp,3.0.7,59.870559851085865,
video/Experiment/zh_sp07_Dr_Gr_3_NVocInAudio_NoVideo.avi,vocoded,noVideo,sp07,Dr,Gr,3,1,2,flow/blocks/NVocInAudio_NoVideo_A.csv,,,,,,,,,0,1,1,1,0,4,4,22,,,,,,,,,-0.41805555555555557,0.13518518518518519,1,0,0,4.31527030000143,call2,0.013888888888888888,0.09768518518518518,1,0,0,4.824605200003134,colour2,0.41805555555555557,-0.09398148148148149,1,0,0,5.895721100001538,number3,True,True,True,5,5,2019_Nov_11_1103,MA_Theta_Exp,3.0.7,59.870559851085865,
video/Experiment/zh_sp01_Ad_We_2_NVocInAudio_NoVideo.avi,vocoded,noVideo,sp01,Ad,We,2,1,2,flow/blocks/NVocInAudio_NoVideo_A.csv,,,,,,,,,0,1,1,1,0,5,5,13,,,,,,,,,-0.41944444444444445,0.300462962962963,1,0,0,5.077572600006533,call1,0.008333333333333333,-0.30648148148148147,1,0,0,5.957486799998151,colour4,0.4013888888888889,0.1087962962962963,1,0,0,7.167416399999638,number2,True,True,True,5,5,2019_Nov_11_1103,MA_Theta_Exp,3.0.7,59.870559851085865,
video/Experiment/zh_sp07_Dr_Ge_3_NVocInAudio_NoVideo.avi,vocoded,noVideo,sp07,Dr,Ge,3,1,2,flow/blocks/NVocInAudio_NoVideo_A.csv,,,,,,,,,0,1,1,1,0,6,6,18,,,,,,,,,-0.43333333333333335,0.0837962962962963,1,0,0,4.276761900000565,call2,-0.034722222222222224,0.32546296296296295,1,0,0,4.8578822999988915,colour1,0.4027777777777778,-0.09814814814814815,1,0,0,6.1597251999992295,number3,True,True,True,5,5,2019_Nov_11_1103,MA_Theta_Exp,3.0.7,59.870559851085865,
video/Experiment/zh_sp07_Ad_Ge_4_NVocInAudio_NoVideo.avi,vocoded,noVideo,sp07,Ad,Ge,4,1,2,flow/blocks/NVocInAudio_NoVideo_A.csv,,,,,,,,,0,1,1,1,0,7,7,3,,,,,,,,,-0.3638888888888889,0.3101851851851852,1,0,0,4.6251903000011225,call1,0.041666666666666664,0.2935185185185185,1,0,0,5.203711900001508,colour1,0.39166666666666666,-0.3050925925925926,1,0,0,6.567385100002866,number4,True,True,True,5,5,2019_Nov_11_1103,MA_Theta_Exp,3.0.7,59.870559851085865,
video/Experiment/zh_sp01_Dr_We_4_NVocInAudio_NoVideo.avi,vocoded,noVideo,sp01,Dr,We,4,1,2,flow/blocks/NVocInAudio_NoVideo_A.csv,,,,,,,,,0,1,1,1,0,8,8,31,,,,,,,,,-0.4263888888888889,0.09074074074074075,1,0,0,5.052900499998941,call2,0.0125,-0.3175925925925926,1,0,0,5.69278679999843,colour4,0.4027777777777778,-0.32037037037037036,1,0,0,6.985624999993888,number4,True,True,True,5,5,2019_Nov_11_1103,MA_Theta_Exp,3.0.7,59.870559851085865,
video/Experiment/zh_sp07_Ad_Ro_2_NVocInAudio_NoVideo.avi,vocoded,noVideo,sp07,Ad,Ro,2,1,2,flow/blocks/NVocInAudio_NoVideo_A.csv,,,,,,,,,0,1,1,1,0,9,9,9,,,,,,,,,-0.425,0.31157407407407406,1,0,0,4.54927769999631,call1,0.02361111111111111,-0.1259259259259259,1,0,0,5.119279800004733,colour3,0.39166666666666666,0.09212962962962963,1,0,0,6.4741406999964966,number2,True,True,True,5,5,2019_Nov_11_1103,MA_Theta_Exp,3.0.7,59.870559851085865,
video/Experiment/zh_sp01_Ad_Gr_2_NVocInAudio_NoVideo.avi,vocoded,noVideo,sp01,Ad,Gr,2,1,2,flow/blocks/NVocInAudio_NoVideo_A.csv,,,,,,,,,0,1,1,1,0,10,10,5,,,,,,,,,-0.43472222222222223,0.3333333333333333,1,0,0,5.42737930000294,call1,0.022222222222222223,0.10416666666666667,1,0,0,5.911521000001812,colour2,0.4041666666666667,0.09305555555555556,1,0,0,7.026142399998207,number2,True,True,True,5,5,2019_Nov_11_1103,MA_Theta_Exp,3.0.7,59.870559851085865,
video/Experiment/zh_sp01_Dr_Ge_1_NVocInAudio_NoVideo.avi,vocoded,noVideo,sp01,Dr,Ge,1,1,2,flow/blocks/NVocInAudio_NoVideo_A.csv,,,,,,,,,0,1,1,1,0,11,11,16,,,,,,,,,-0.3888888888888889,0.10555555555555556,1,0,0,4.97200509999675,call2,0.011111111111111112,0.3055555555555556,1,0,0,6.107371300000523,colour1,0.42083333333333334,0.3236111111111111,1,0,0,7.537527400003455,number1,True,True,True,5,5,2019_Nov_11_1103,MA_Theta_Exp,3.0.7,59.870559851085865,
video/Experiment/zh_sp07_Dr_Ge_2_NVocInAudio_NoVideo.avi,vocoded,noVideo,sp07,Dr,Ge,2,1,2,flow/blocks/NVocInAudio_NoVideo_A.csv,,,,,,,,,0,1,1,1,0,12,12,17,,,,,,,,,-0.3902777777777778,0.08888888888888889,1,0,0,4.537395500003186,call2,-0.018055555555555554,0.3194444444444444,1,0,0,5.081491700002516,colour1,0.4027777777777778,0.10972222222222222,1,0,0,6.364229999999225,number2,True,True,True,5,5,2019_Nov_11_1103,MA_Theta_Exp,3.0.7,59.870559851085865,
video/Experiment/zh_sp07_Dr_Gr_2_NVocInAudio_NoVideo.avi,vocoded,noVideo,sp07,Dr,Gr,2,1,2,flow/blocks/NVocInAudio_NoVideo_A.csv,,,,,,,,,0,1,1,1,0,13,13,21,,,,,,,,,-0.37916666666666665,0.0625,1,0,0,4.398544000003312,call2,0.02361111111111111,0.08333333333333333,1,0,0,4.917419400000654,colour2,0.39444444444444443,0.10833333333333334,1,0,0,5.8994391999949585,number2,True,True,True,5,5,2019_Nov_11_1103,MA_Theta_Exp,3.0.7,59.870559851085865,
video/Experiment/zh_sp07_Dr_Gr_1_NVocInAudio_NoVideo.avi,vocoded,noVideo,sp07,Dr,Gr,1,1,2,flow/blocks/NVocInAudio_NoVideo_A.csv,,,,,,,,,0,1,1,1,0,14,14,20,,,,,,,,,-0.3763888888888889,0.1111111111111111,1,0,0,4.390178599998762,call2,0.0375,0.11805555555555555,1,0,0,4.815264199998637,colour2,0.3861111111111111,0.33194444444444443,1,0,0,5.880822700004501,number1,True,True,True,5,5,2019_Nov_11_1103,MA_Theta_Exp,3.0.7,59.870559851085865,
video/Experiment/zh_sp07_Dr_Ge_4_NVocInAudio_NoVideo.avi,vocoded,noVideo,sp07,Dr,Ge,4,1,2,flow/blocks/NVocInAudio_NoVideo_A.csv,,,,,,,,,0,1,1,1,0,15,15,19,,,,,,,,,-0.425,0.09583333333333334,1,0,0,4.340917999994417,call2,0.04027777777777778,0.3388888888888889,1,0,0,4.866695199998503,colour1,0.4027777777777778,-0.30972222222222223,1,0,0,5.765823699999601,number4,True,True,True,5,5,2019_Nov_11_1103,MA_Theta_Exp,3.0.7,59.870559851085865,
video/Experiment/zh_sp07_Ad_We_1_NVocInAudio_NoVideo.avi,vocoded,noVideo,sp07,Ad,We,1,1,2,flow/blocks/NVocInAudio_NoVideo_A.csv,,,,,,,,,0,1,1,1,0,16,16,12,,,,,,,,,-0.3638888888888889,0.2972222222222222,1,0,0,4.6920071999993525,call1,-0.001388888888888889,-0.36527777777777776,1,0,0,5.481968100000813,colour4,0.4013888888888889,0.33194444444444443,1,0,0,6.954199499996321,number1,True,True,True,5,5,2019_Nov_11_1103,MA_Theta_Exp,3.0.7,59.870559851085865,
video/Experiment/zh_sp07_Ad_Gr_1_NVocInAudio_NoVideo.avi,vocoded,noVideo,sp07,Ad,Gr,1,1,2,flow/blocks/NVocInAudio_NoVideo_A.csv,,,,,,,,,0,1,1,1,0,17,17,4,,,,,,,,,-0.34444444444444444,0.2902777777777778,1,0,0,4.44284680000419,call1,0.011111111111111112,0.09722222222222222,1,0,0,4.925130199997511,colour2,0.39861111111111114,0.3375,1,0,0,5.574605699999665,number1,True,True,True,5,5,2019_Nov_11_1103,MA_Theta_Exp,3.0.7,59.870559851085865,
video/Experiment/zh_sp01_Ad_Gr_4_NVocInAudio_NoVideo.avi,vocoded,noVideo,sp01,Ad,Gr,4,1,2,flow/blocks/NVocInAudio_NoVideo_A.csv,,,,,,,,,0,1,1,1,0,18,18,7,,,,,,,,,-0.35694444444444445,0.28055555555555556,1,0,0,4.956948099999863,call1,-0.002777777777777778,0.1388888888888889,1,0,0,5.4662504000007175,colour2,0.4111111111111111,-0.3763888888888889,1,0,0,6.205555699998513,number4,True,True,True,5,5,2019_Nov_11_1103,MA_Theta_Exp,3.0.7,59.870559851085865,
video/Experiment/zh_sp01_Ad_Ro_3_NVocInAudio_NoVideo.avi,vocoded,noVideo,sp01,Ad,Ro,3,1,2,flow/blocks/NVocInAudio_NoVideo_A.csv,,,,,,,,,0,1,1,1,0,19,19,10,,,,,,,,,-0.42777777777777776,0.30833333333333335,1,0,0,5.191492099998868,call1,0.0,-0.08333333333333333,1,0,0,5.7038431000037235,colour3,0.4097222222222222,-0.10277777777777777,1,0,0,7.247097300001769,number3,True,True,True,5,5,2019_Nov_11_1103,MA_Theta_Exp,3.0.7,59.870559851085865,
video/Experiment/zh_sp01_Ad_Ge_2_NVocInAudio_NoVideo.avi,vocoded,noVideo,sp01,Ad,Ge,2,1,2,flow/blocks/NVocInAudio_NoVideo_A.csv,,,,,,,,,0,1,1,1,0,20,20,1,,,,,,,,,-0.4027777777777778,0.3333333333333333,1,0,0,5.342569600004936,call1,0.02361111111111111,0.3263888888888889,1,0,0,5.809352600001148,colour1,0.39305555555555555,0.10833333333333334,1,0,0,6.634656400005042,number2,True,True,True,5,5,2019_Nov_11_1103,MA_Theta_Exp,3.0.7,59.870559851085865,
video/Experiment/zh_sp01_Ad_Ge_3_NVocInAudio_NoVideo.avi,vocoded,noVideo,sp01,Ad,Ge,3,1,2,flow/blocks/NVocInAudio_NoVideo_A.csv,,,,,,,,,0,1,1,1,0,21,21,2,,,,,,,,,-0.38472222222222224,0.31805555555555554,1,0,0,4.819231699999364,call1,-0.030555555555555555,0.28055555555555556,1,0,0,5.292670200004068,colour1,0.37777777777777777,-0.10972222222222222,1,0,0,6.322307599999476,number3,True,True,True,5,5,2019_Nov_11_1103,MA_Theta_Exp,3.0.7,59.870559851085865,
video/Experiment/zh_sp01_Dr_We_3_NVocInAudio_NoVideo.avi,vocoded,noVideo,sp01,Dr,We,3,1,2,flow/blocks/NVocInAudio_NoVideo_A.csv,,,,,,,,,0,1,1,1,0,22,22,30,,,,,,,,,-0.4041666666666667,0.12777777777777777,1,0,0,5.198883599994588,call2,-0.001388888888888889,-0.2638888888888889,1,0,0,5.90949069999624,colour4,0.39861111111111114,-0.09861111111111111,1,0,0,7.82633569999598,number3,True,True,True,5,5,2019_Nov_11_1103,MA_Theta_Exp,3.0.7,59.870559851085865,
video/Experiment/zh_sp01_Dr_Ro_1_NVocInAudio_NoVideo.avi,vocoded,noVideo,sp01,Dr,Ro,1,1,2,flow/blocks/NVocInAudio_NoVideo_A.csv,,,,,,,,,0,1,1,1,0,23,23,24,,,,,,,,,-0.42916666666666664,0.12361111111111112,1,0,0,5.4454418000023,call2,0.013888888888888888,-0.12222222222222222,1,0,0,5.994489699995029,colour3,0.3888888888888889,0.3138888888888889,1,0,0,7.009284300002037,number1,True,True,True,5,5,2019_Nov_11_1103,MA_Theta_Exp,3.0.7,59.870559851085865,
video/Experiment/zh_sp01_Dr_Ro_3_NVocInAudio_NoVideo.avi,vocoded,noVideo,sp01,Dr,Ro,3,1,2,flow/blocks/NVocInAudio_NoVideo_A.csv,,,,,,,,,0,1,1,1,0,24,24,26,,,,,,,,,-0.4361111111111111,0.1361111111111111,1,0,0,4.950752500000817,call2,-0.015277777777777777,-0.06944444444444445,1,0,0,5.664577000003192,colour3,0.40555555555555556,-0.10277777777777777,1,0,0,6.697978600001079,number3,True,True,True,5,5,2019_Nov_11_1103,MA_Theta_Exp,3.0.7,59.870559851085865,
video/Experiment/zh_sp01_Dr_Ro_4_NVocInAudio_NoVideo.avi,vocoded,noVideo,sp01,Dr,Ro,4,1,2,flow/blocks/NVocInAudio_NoVideo_A.csv,,,,,,,,,0,1,1,1,0,25,25,27,,,,,,,,,-0.3277777777777778,0.07777777777777778,1,0,0,4.947598600003403,call2,0.025,-0.13055555555555556,1,0,0,5.620508300002257,colour3,0.39166666666666666,-0.30694444444444446,1,0,0,6.797834299999522,number4,True,True,True,5,5,2019_Nov_11_1103,MA_Theta_Exp,3.0.7,59.870559851085865,
video/Experiment/zh_sp07_Ad_Ro_4_NVocInAudio_NoVideo.avi,vocoded,noVideo,sp07,Ad,Ro,4,1,2,flow/blocks/NVocInAudio_NoVideo_A.csv,,,,,,,,,0,1,1,1,0,26,26,11,,,,,,,,,-0.4013888888888889,0.36666666666666664,1,0,0,4.498167099998682,call1,-0.009722222222222222,-0.11944444444444445,1,0,0,5.0618261999989045,colour3,0.38472222222222224,-0.31666666666666665,1,0,0,6.34159119999822,number4,True,True,True,5,5,2019_Nov_11_1103,MA_Theta_Exp,3.0.7,59.870559851085865,
video/Experiment/zh_sp01_Ad_We_4_NVocInAudio_NoVideo.avi,vocoded,noVideo,sp01,Ad,We,4,1,2,flow/blocks/NVocInAudio_NoVideo_A.csv,,,,,,,,,0,1,1,1,0,27,27,15,,,,,,,,,-0.37916666666666665,0.3,1,0,0,5.253902900003595,call1,-0.03333333333333333,-0.28055555555555556,1,0,0,5.839382999998634,colour4,0.3875,-0.3111111111111111,1,0,0,6.887350700002571,number4,True,True,True,5,5,2019_Nov_11_1103,MA_Theta_Exp,3.0.7,59.870559851085865,
video/Experiment/zh_sp07_Dr_We_2_NVocInAudio_NoVideo.avi,vocoded,noVideo,sp07,Dr,We,2,1,2,flow/blocks/NVocInAudio_NoVideo_A.csv,,,,,,,,,0,1,1,1,0,28,28,29,,,,,,,,,-0.3736111111111111,0.11666666666666667,1,0,0,4.592615900000965,call2,-0.03194444444444444,-0.30416666666666664,1,0,0,5.196996599996055,colour4,0.38055555555555554,0.11527777777777778,1,0,0,6.499248199994327,number2,True,True,True,5,5,2019_Nov_11_1103,MA_Theta_Exp,3.0.7,59.870559851085865,
video/Experiment/zh_sp07_Dr_We_1_NVocInAudio_NoVideo.avi,vocoded,noVideo,sp07,Dr,We,1,1,2,flow/blocks/NVocInAudio_NoVideo_A.csv,,,,,,,,,0,1,1,1,0,29,29,28,,,,,,,,,-0.3902777777777778,0.10277777777777777,1,0,0,4.346837600001891,call2,-0.03194444444444444,-0.3402777777777778,1,0,0,4.917314800004533,colour4,0.3972222222222222,0.32083333333333336,1,0,0,5.994882700004382,number1,True,True,True,5,5,2019_Nov_11_1103,MA_Theta_Exp,3.0.7,59.870559851085865,
video/Experiment/zh_sp01_Ad_Gr_3_NVocInAudio_NoVideo.avi,vocoded,noVideo,sp01,Ad,Gr,3,1,2,flow/blocks/NVocInAudio_NoVideo_A.csv,,,,,,,,,0,1,1,1,0,30,30,6,,,,,,,,,-0.3611111111111111,0.32083333333333336,1,0,0,5.3188144999949145,call1,-0.015277777777777777,0.125,1,0,0,5.825046300000395,colour2,0.4263888888888889,-0.10138888888888889,1,0,0,6.594560100005765,number3,True,True,True,5,5,2019_Nov_11_1103,MA_Theta_Exp,3.0.7,59.870559851085865,
video/Experiment/zh_sp07_Dr_Ro_2_NVocInAudio_NoVideo.avi,vocoded,noVideo,sp07,Dr,Ro,2,1,2,flow/blocks/NVocInAudio_NoVideo_A.csv,,,,,,,,,0,1,1,1,0,31,31,25,,,,,,,,,-0.4444444444444444,0.0875,1,0,0,4.446566400001757,call2,0.05138888888888889,-0.12916666666666668,1,0,0,4.967051200001151,colour3,0.39166666666666666,0.14166666666666666,1,0,0,5.844561099998828,number2,True,True,True,5,5,2019_Nov_11_1103,MA_Theta_Exp,3.0.7,59.870559851085865,
video/Experiment/zh_sp07_Dr_Ro_3_NoThetaInAudio_GlobalThetaInVideo.avi,noTheta,plusVideo,sp07,Dr,Ro,3,2,3,flow/blocks/NoThetaInAudio_GlobalThetaInVideo_A.csv,,,,,,,,,0,2,2,2,0,0,0,26,,,,,,,,,-0.36944444444444446,0.3,1,0,0,4.5268575999944005,call1,0.030555555555555555,-0.09722222222222222,1,0,0,5.064753499995277,colour3,0.39444444444444443,-0.10694444444444444,1,0,0,6.181134899998142,number3,False,True,True,5,5,2019_Nov_11_1103,MA_Theta_Exp,3.0.7,59.870559851085865,
video/Experiment/zh_sp07_Dr_Gr_1_NoThetaInAudio_GlobalThetaInVideo.avi,noTheta,plusVideo,sp07,Dr,Gr,1,2,3,flow/blocks/NoThetaInAudio_GlobalThetaInVideo_A.csv,,,,,,,,,0,2,2,2,0,1,1,20,,,,,,,,,-0.3819444444444444,0.09583333333333334,1,0,0,4.371420499999658,call2,0.025,0.08055555555555556,1,0,0,4.793081499999971,colour2,0.39861111111111114,0.30833333333333335,1,0,0,5.610994399998162,number1,True,True,True,5,5,2019_Nov_11_1103,MA_Theta_Exp,3.0.7,59.870559851085865,
video/Experiment/zh_sp07_Ad_We_1_NoThetaInAudio_GlobalThetaInVideo.avi,noTheta,plusVideo,sp07,Ad,We,1,2,3,flow/blocks/NoThetaInAudio_GlobalThetaInVideo_A.csv,,,,,,,,,0,2,2,2,0,2,2,12,,,,,,,,,-0.37083333333333335,0.28194444444444444,1,0,0,5.1081353000045056,call1,-0.0125,-0.30277777777777776,1,0,0,5.686806999998225,colour4,0.3972222222222222,0.32222222222222224,1,0,0,6.88311899999826,number1,True,True,True,5,5,2019_Nov_11_1103,MA_Theta_Exp,3.0.7,59.870559851085865,
video/Experiment/zh_sp07_Ad_Ge_2_NoThetaInAudio_GlobalThetaInVideo.avi,noTheta,plusVideo,sp07,Ad,Ge,2,2,3,flow/blocks/NoThetaInAudio_GlobalThetaInVideo_A.csv,,,,,,,,,0,2,2,2,0,3,3,1,,,,,,,,,-0.41388888888888886,0.29444444444444445,1,0,0,4.399565400002757,call1,-0.02361111111111111,0.2833333333333333,1,0,0,5.112120699996012,colour1,0.4027777777777778,0.10416666666666667,1,0,0,6.398658500002057,number2,True,True,True,5,5,2019_Nov_11_1103,MA_Theta_Exp,3.0.7,59.870559851085865,
video/Experiment/zh_sp01_Dr_We_4_NoThetaInAudio_GlobalThetaInVideo.avi,noTheta,plusVideo,sp01,Dr,We,4,2,3,flow/blocks/NoThetaInAudio_GlobalThetaInVideo_A.csv,,,,,,,,,0,2,2,2,0,4,4,31,,,,,,,,,-0.375,0.09444444444444444,1,0,0,5.074734299996635,call2,0.030555555555555555,-0.30277777777777776,1,0,0,5.6816613000046345,colour4,0.4,-0.3125,1,0,0,6.613640199997462,number4,True,True,True,5,5,2019_Nov_11_1103,MA_Theta_Exp,3.0.7,59.870559851085865,
video/Experiment/zh_sp07_Ad_We_4_NoThetaInAudio_GlobalThetaInVideo.avi,noTheta,plusVideo,sp07,Ad,We,4,2,3,flow/blocks/NoThetaInAudio_GlobalThetaInVideo_A.csv,,,,,,,,,0,2,2,2,0,5,5,15,,,,,,,,,-0.3736111111111111,0.3138888888888889,1,0,0,4.209713900003408,call1,0.030555555555555555,-0.2875,1,0,0,4.847203500001342,colour4,0.4097222222222222,-0.3055555555555556,1,0,0,5.463671400000749,number4,True,True,True,5,5,2019_Nov_11_1103,MA_Theta_Exp,3.0.7,59.870559851085865,
video/Experiment/zh_sp07_Dr_Ro_1_NoThetaInAudio_GlobalThetaInVideo.avi,noTheta,plusVideo,sp07,Dr,Ro,1,2,3,flow/blocks/NoThetaInAudio_GlobalThetaInVideo_A.csv,,,,,,,,,0,2,2,2,0,6,6,24,,,,,,,,,-0.3972222222222222,0.10277777777777777,1,0,0,4.5285612999941804,call2,0.008333333333333333,-0.12083333333333333,1,0,0,5.035249100001238,colour3,0.40694444444444444,0.3236111111111111,1,0,0,6.30934569999954,number1,True,True,True,5,5,2019_Nov_11_1103,MA_Theta_Exp,3.0.7,59.870559851085865,
video/Experiment/zh_sp01_Dr_Ge_4_NoThetaInAudio_GlobalThetaInVideo.avi,noTheta,plusVideo,sp01,Dr,Ge,4,2,3,flow/blocks/NoThetaInAudio_GlobalThetaInVideo_A.csv,,,,,,,,,0,2,2,2,0,7,7,19,,,,,,,,,-0.3902777777777778,0.09166666666666666,1,0,0,4.82863720000023,call2,0.018055555555555554,0.3486111111111111,1,0,0,5.393196500001068,colour1,0.39861111111111114,-0.30972222222222223,1,0,0,6.595436299998255,number4,True,True,True,5,5,2019_Nov_11_1103,MA_Theta_Exp,3.0.7,59.870559851085865,
video/Experiment/zh_sp01_Dr_Gr_2_NoThetaInAudio_GlobalThetaInVideo.avi,noTheta,plusVideo,sp01,Dr,Gr,2,2,3,flow/blocks/NoThetaInAudio_GlobalThetaInVideo_A.csv,,,,,,,,,0,2,2,2,0,8,8,21,,,,,,,,,-0.3486111111111111,0.09305555555555556,1,0,0,5.183370899998408,call2,-0.03611111111111111,0.08472222222222223,1,0,0,5.552210100002412,colour2,0.4125,0.09166666666666666,1,0,0,6.403101800002332,number2,True,True,True,5,5,2019_Nov_11_1103,MA_Theta_Exp,3.0.7,59.870559851085865,
video/Experiment/zh_sp01_Ad_Ro_3_NoThetaInAudio_GlobalThetaInVideo.avi,noTheta,plusVideo,sp01,Ad,Ro,3,2,3,flow/blocks/NoThetaInAudio_GlobalThetaInVideo_A.csv,,,,,,,,,0,2,2,2,0,9,9,10,,,,,,,,,-0.38055555555555554,0.2972222222222222,1,0,0,5.1103170000060345,call1,0.002777777777777778,-0.10694444444444444,1,0,0,5.729230099997949,colour3,0.3902777777777778,-0.11666666666666667,1,0,0,7.1297537999998895,number3,True,True,True,5,5,2019_Nov_11_1103,MA_Theta_Exp,3.0.7,59.870559851085865,
video/Experiment/zh_sp07_Dr_Gr_4_NoThetaInAudio_GlobalThetaInVideo.avi,noTheta,plusVideo,sp07,Dr,Gr,4,2,3,flow/blocks/NoThetaInAudio_GlobalThetaInVideo_A.csv,,,,,,,,,0,2,2,2,0,10,10,23,,,,,,,,,-0.38055555555555554,0.125,1,0,0,4.420229399998789,call2,-0.05138888888888889,0.11666666666666667,1,0,0,4.773446500003047,colour2,0.3819444444444444,-0.09722222222222222,1,0,0,5.687378299997363,number3,True,True,False,5,5,2019_Nov_11_1103,MA_Theta_Exp,3.0.7,59.870559851085865,
video/Experiment/zh_sp01_Ad_Gr_3_NoThetaInAudio_GlobalThetaInVideo.avi,noTheta,plusVideo,sp01,Ad,Gr,3,2,3,flow/blocks/NoThetaInAudio_GlobalThetaInVideo_A.csv,,,,,,,,,0,2,2,2,0,11,11,6,,,,,,,,,-0.42083333333333334,0.2972222222222222,1,0,0,5.575494299999264,call1,-0.008333333333333333,0.08194444444444444,1,0,0,6.153003300001728,colour2,0.3875,-0.10138888888888889,1,0,0,7.400392399998964,number3,True,True,True,5,5,2019_Nov_11_1103,MA_Theta_Exp,3.0.7,59.870559851085865,
video/Experiment/zh_sp01_Dr_Gr_3_NoThetaInAudio_GlobalThetaInVideo.avi,noTheta,plusVideo,sp01,Dr,Gr,3,2,3,flow/blocks/NoThetaInAudio_GlobalThetaInVideo_A.csv,,,,,,,,,0,2,2,2,0,12,12,22,,,,,,,,,-0.39444444444444443,0.09166666666666666,1,0,0,5.3186274000036065,call2,-0.04583333333333333,0.10416666666666667,1,0,0,5.815473799993924,colour2,0.4041666666666667,-0.09583333333333334,1,0,0,7.327362200005155,number3,True,True,True,5,5,2019_Nov_11_1103,MA_Theta_Exp,3.0.7,59.870559851085865,
video/Experiment/zh_sp01_Dr_Ge_2_NoThetaInAudio_GlobalThetaInVideo.avi,noTheta,plusVideo,sp01,Dr,Ge,2,2,3,flow/blocks/NoThetaInAudio_GlobalThetaInVideo_A.csv,,,,,,,,,0,2,2,2,0,13,13,17,,,,,,,,,-0.40555555555555556,0.1,1,0,0,5.3602456000007805,call2,-0.020833333333333332,0.3263888888888889,1,0,0,5.821184100001119,colour1,0.3902777777777778,0.1111111111111111,1,0,0,7.228999700004351,number2,True,True,True,5,5,2019_Nov_11_1103,MA_Theta_Exp,3.0.7,59.870559851085865,
video/Experiment/zh_sp07_Dr_We_1_NoThetaInAudio_GlobalThetaInVideo.avi,noTheta,plusVideo,sp07,Dr,We,1,2,3,flow/blocks/NoThetaInAudio_GlobalThetaInVideo_A.csv,,,,,,,,,0,2,2,2,0,14,14,28,,,,,,,,,-0.39444444444444443,-0.28888888888888886,1,0,0,4.967309200001182,call4,0.002777777777777778,0.06805555555555555,1,0,0,5.615351400003419,colour2,0.39861111111111114,0.31666666666666665,1,0,0,7.066547700000228,number1,False,False,True,5,5,2019_Nov_11_1103,MA_Theta_Exp,3.0.7,59.870559851085865,
video/Experiment/zh_sp01_Ad_Ge_4_NoThetaInAudio_GlobalThetaInVideo.avi,noTheta,plusVideo,sp01,Ad,Ge,4,2,3,flow/blocks/NoThetaInAudio_GlobalThetaInVideo_A.csv,,,,,,,,,0,2,2,2,0,15,15,3,,,,,,,,,-0.3819444444444444,0.30694444444444446,1,0,0,5.694035900000017,call1,-0.018055555555555554,0.30277777777777776,1,0,0,6.263036099997407,colour1,0.40555555555555556,-0.30972222222222223,1,0,0,7.835905699997966,number4,True,True,True,5,5,2019_Nov_11_1103,MA_Theta_Exp,3.0.7,59.870559851085865,
video/Experiment/zh_sp01_Ad_Gr_1_NoThetaInAudio_GlobalThetaInVideo.avi,noTheta,plusVideo,sp01,Ad,Gr,1,2,3,flow/blocks/NoThetaInAudio_GlobalThetaInVideo_A.csv,,,,,,,,,0,2,2,2,0,16,16,4,,,,,,,,,-0.4013888888888889,0.29305555555555557,1,0,0,5.562621800003399,call1,0.013888888888888888,0.10694444444444444,1,0,0,6.076955299999099,colour2,0.4,0.30972222222222223,1,0,0,7.386983100004727,number1,True,True,True,5,5,2019_Nov_11_1103,MA_Theta_Exp,3.0.7,59.870559851085865,
video/Experiment/zh_sp07_Dr_Ro_4_NoThetaInAudio_GlobalThetaInVideo.avi,noTheta,plusVideo,sp07,Dr,Ro,4,2,3,flow/blocks/NoThetaInAudio_GlobalThetaInVideo_A.csv,,,,,,,,,0,2,2,2,0,17,17,27,,,,,,,,,-0.42083333333333334,0.09305555555555556,1,0,0,4.559161799996218,call2,0.025,-0.10833333333333334,1,0,0,5.0579257999997935,colour3,0.3902777777777778,-0.30694444444444446,1,0,0,6.705190199994831,number4,True,True,True,5,5,2019_Nov_11_1103,MA_Theta_Exp,3.0.7,59.870559851085865,
video/Experiment/zh_sp01_Dr_Ge_3_NoThetaInAudio_GlobalThetaInVideo.avi,noTheta,plusVideo,sp01,Dr,Ge,3,2,3,flow/blocks/NoThetaInAudio_GlobalThetaInVideo_A.csv,,,,,,,,,0,2,2,2,0,18,18,18,,,,,,,,,-0.4027777777777778,0.10694444444444444,1,0,0,4.84572130000015,call2,-0.004166666666666667,0.3486111111111111,1,0,0,5.3943110999971395,colour1,0.4013888888888889,-0.09444444444444444,1,0,0,6.445274000005156,number3,True,True,True,5,5,2019_Nov_11_1103,MA_Theta_Exp,3.0.7,59.870559851085865,
video/Experiment/zh_sp07_Ad_Ro_1_NoThetaInAudio_GlobalThetaInVideo.avi,noTheta,plusVideo,sp07,Ad,Ro,1,2,3,flow/blocks/NoThetaInAudio_GlobalThetaInVideo_A.csv,,,,,,,,,0,2,2,2,0,19,19,8,,,,,,,,,-0.4013888888888889,0.2972222222222222,1,0,0,4.354980700001761,call1,0.015277777777777777,-0.044444444444444446,1,0,0,5.053216500004055,colour3,0.4041666666666667,0.325,1,0,0,5.990273700001126,number1,True,True,True,5,5,2019_Nov_11_1103,MA_Theta_Exp,3.0.7,59.870559851085865,
video/Experiment/zh_sp01_Ad_Gr_2_NoThetaInAudio_GlobalThetaInVideo.avi,noTheta,plusVideo,sp01,Ad,Gr,2,2,3,flow/blocks/NoThetaInAudio_GlobalThetaInVideo_A.csv,,,,,,,,,0,2,2,2,0,20,20,5,,,,,,,,,-0.37916666666666665,0.29583333333333334,1,0,0,5.822803700000804,call1,0.025,0.10277777777777777,1,0,0,6.2993454999959795,colour2,0.39305555555555555,0.10972222222222222,1,0,0,7.7315302999995765,number2,True,True,True,5,5,2019_Nov_11_1103,MA_Theta_Exp,3.0.7,59.870559851085865,
video/Experiment/zh_sp01_Dr_Ro_2_NoThetaInAudio_GlobalThetaInVideo.avi,noTheta,plusVideo,sp01,Dr,Ro,2,2,3,flow/blocks/NoThetaInAudio_GlobalThetaInVideo_A.csv,,,,,,,,,0,2,2,2,0,21,21,25,,,,,,,,,-0.4027777777777778,0.07083333333333333,1,0,0,5.273957199999131,call2,-0.002777777777777778,-0.11805555555555555,1,0,0,5.7964628000045195,colour3,0.3888888888888889,0.10972222222222222,1,0,0,7.30036839999957,number2,True,True,True,5,5,2019_Nov_11_1103,MA_Theta_Exp,3.0.7,59.870559851085865,
video/Experiment/zh_sp07_Dr_We_2_NoThetaInAudio_GlobalThetaInVideo.avi,noTheta,plusVideo,sp07,Dr,We,2,2,3,flow/blocks/NoThetaInAudio_GlobalThetaInVideo_A.csv,,,,,,,,,0,2,2,2,0,22,22,29,,,,,,,,,-0.4,0.07777777777777778,1,0,0,4.768361700000241,call2,0.006944444444444444,-0.30416666666666664,1,0,0,5.533794499999203,colour4,0.3972222222222222,0.09444444444444444,1,0,0,7.678351599999587,number2,True,True,True,5,5,2019_Nov_11_1103,MA_Theta_Exp,3.0.7,59.870559851085865,
video/Experiment/zh_sp07_Ad_We_3_NoThetaInAudio_GlobalThetaInVideo.avi,noTheta,plusVideo,sp07,Ad,We,3,2,3,flow/blocks/NoThetaInAudio_GlobalThetaInVideo_A.csv,,,,,,,,,0,2,2,2,0,23,23,14,,,,,,,,,-0.4097222222222222,0.3111111111111111,1,0,0,4.37892920000013,call1,0.016666666666666666,-0.35,1,0,0,4.993815499998163,colour4,0.39166666666666666,-0.10972222222222222,1,0,0,6.302489900001092,number3,True,True,True,5,5,2019_Nov_11_1103,MA_Theta_Exp,3.0.7,59.870559851085865,
video/Experiment/zh_sp01_Ad_Ge_3_NoThetaInAudio_GlobalThetaInVideo.avi,noTheta,plusVideo,sp01,Ad,Ge,3,2,3,flow/blocks/NoThetaInAudio_GlobalThetaInVideo_A.csv,,,,,,,,,0,2,2,2,0,24,24,2,,,,,,,,,-0.4083333333333333,0.3,1,0,0,4.679815399998915,call1,-0.08888888888888889,0.2833333333333333,1,0,0,5.08252199999697,colour1,0.3819444444444444,-0.11527777777777778,1,0,0,6.423806299993885,number3,True,True,True,5,5,2019_Nov_11_1103,MA_Theta_Exp,3.0.7,59.870559851085865,
video/Experiment/zh_sp07_Ad_Gr_4_NoThetaInAudio_GlobalThetaInVideo.avi,noTheta,plusVideo,sp07,Ad,Gr,4,2,3,flow/blocks/NoThetaInAudio_GlobalThetaInVideo_A.csv,,,,,,,,,0,2,2,2,0,25,25,7,,,,,,,,,-0.3888888888888889,0.3111111111111111,1,0,0,4.2140050000016345,call1,-0.02361111111111111,0.10694444444444444,1,0,0,4.616475900002115,colour2,0.4,-0.30833333333333335,1,0,0,5.5623357000004034,number4,True,True,True,5,5,2019_Nov_11_1103,MA_Theta_Exp,3.0.7,59.870559851085865,
video/Experiment/zh_sp01_Dr_We_3_NoThetaInAudio_GlobalThetaInVideo.avi,noTheta,plusVideo,sp01,Dr,We,3,2,3,flow/blocks/NoThetaInAudio_GlobalThetaInVideo_A.csv,,,,,,,,,0,2,2,2,0,26,26,30,,,,,,,,,-0.4513888888888889,0.13055555555555556,1,0,0,5.357837200004724,call2,-0.013888888888888888,-0.33055555555555555,1,0,0,5.960691200001747,colour4,0.39305555555555555,-0.09722222222222222,1,0,0,7.046400100000028,number3,True,True,True,5,5,2019_Nov_11_1103,MA_Theta_Exp,3.0.7,59.870559851085865,
video/Experiment/zh_sp07_Dr_Ge_1_NoThetaInAudio_GlobalThetaInVideo.avi,noTheta,plusVideo,sp07,Dr,Ge,1,2,3,flow/blocks/NoThetaInAudio_GlobalThetaInVideo_A.csv,,,,,,,,,0,2,2,2,0,27,27,16,,,,,,,,,-0.3611111111111111,0.3194444444444444,1,0,0,4.746815899998182,call1,-0.058333333333333334,0.31805555555555554,1,0,0,5.091181799994956,colour1,0.3875,0.3055555555555556,1,0,0,6.221884200000204,number1,False,True,True,5,5,2019_Nov_11_1103,MA_Theta_Exp,3.0.7,59.870559851085865,
video/Experiment/zh_sp07_Ad_We_2_NoThetaInAudio_GlobalThetaInVideo.avi,noTheta,plusVideo,sp07,Ad,We,2,2,3,flow/blocks/NoThetaInAudio_GlobalThetaInVideo_A.csv,,,,,,,,,0,2,2,2,0,28,28,13,,,,,,,,,-0.40694444444444444,0.3055555555555556,1,0,0,4.433211899995513,call1,0.013888888888888888,-0.34305555555555556,1,0,0,5.082243100005144,colour4,0.3902777777777778,0.1,1,0,0,6.28717169999436,number2,True,True,True,5,5,2019_Nov_11_1103,MA_Theta_Exp,3.0.7,59.870559851085865,
video/Experiment/zh_sp07_Ad_Ge_1_NoThetaInAudio_GlobalThetaInVideo.avi,noTheta,plusVideo,sp07,Ad,Ge,1,2,3,flow/blocks/NoThetaInAudio_GlobalThetaInVideo_A.csv,,,,,,,,,0,2,2,2,0,29,29,0,,,,,,,,,-0.37083333333333335,0.2972222222222222,1,0,0,4.233677700001863,call1,-0.05277777777777778,0.31527777777777777,1,0,0,4.556982299996889,colour1,0.4013888888888889,0.3111111111111111,1,0,0,5.595853999999235,number1,True,True,True,5,5,2019_Nov_11_1103,MA_Theta_Exp,3.0.7,59.870559851085865,
video/Experiment/zh_sp01_Ad_Ro_4_NoThetaInAudio_GlobalThetaInVideo.avi,noTheta,plusVideo,sp01,Ad,Ro,4,2,3,flow/blocks/NoThetaInAudio_GlobalThetaInVideo_A.csv,,,,,,,,,0,2,2,2,0,30,30,11,,,,,,,,,-0.3736111111111111,0.3194444444444444,1,0,0,5.005518100006157,call1,-0.0125,-0.09861111111111111,1,0,0,5.517224000002898,colour3,0.38472222222222224,-0.30277777777777776,1,0,0,6.886347999999998,number4,True,True,True,5,5,2019_Nov_11_1103,MA_Theta_Exp,3.0.7,59.870559851085865,
video/Experiment/zh_sp01_Ad_Ro_2_NoThetaInAudio_GlobalThetaInVideo.avi,noTheta,plusVideo,sp01,Ad,Ro,2,2,3,flow/blocks/NoThetaInAudio_GlobalThetaInVideo_A.csv,,,,,,,,,0,2,2,2,0,31,31,9,,,,,,,,,-0.3736111111111111,0.30416666666666664,1,0,0,5.157989100000123,call1,0.006944444444444444,-0.15555555555555556,1,0,0,5.70714500000031,colour3,0.3888888888888889,0.10833333333333334,1,0,0,6.525380899998709,number2,True,True,True,5,5,2019_Nov_11_1103,MA_Theta_Exp,3.0.7,59.870559851085865,
video/Experiment/zh_sp07_Dr_Ge_1_GlobalTheta_NoVideo.avi,globalTheta,noVideo,sp07,Dr,Ge,1,3,5,flow/blocks/GlobalTheta_NoVideo_A.csv,,,,,,,,,0,3,3,3,0,0,0,16,,,,,,,,,-0.37777777777777777,0.3402777777777778,1,0,0,4.332459299999755,call1,0.05694444444444444,0.2833333333333333,1,0,0,4.684219000002486,colour1,0.38333333333333336,0.3125,1,0,0,5.665521399998397,number1,False,True,True,5,5,2019_Nov_11_1103,MA_Theta_Exp,3.0.7,59.870559851085865,
video/Experiment/zh_sp01_Dr_Gr_3_GlobalTheta_NoVideo.avi,globalTheta,noVideo,sp01,Dr,Gr,3,3,5,flow/blocks/GlobalTheta_NoVideo_A.csv,,,,,,,,,0,3,3,3,0,1,1,22,,,,,,,,,-0.39305555555555555,0.10555555555555556,1,0,0,4.906919799999741,call2,0.022222222222222223,0.08194444444444444,1,0,0,5.313966800000344,colour2,0.39444444444444443,-0.11805555555555555,1,0,0,6.323576499999035,number3,True,True,True,5,5,2019_Nov_11_1103,MA_Theta_Exp,3.0.7,59.870559851085865,
video/Experiment/zh_sp01_Ad_Ro_4_GlobalTheta_NoVideo.avi,globalTheta,noVideo,sp01,Ad,Ro,4,3,5,flow/blocks/GlobalTheta_NoVideo_A.csv,,,,,,,,,0,3,3,3,0,2,2,11,,,,,,,,,-0.3888888888888889,0.2847222222222222,1,0,0,4.909470799997507,call1,0.022222222222222223,-0.09722222222222222,1,0,0,5.951649899994663,colour3,0.39444444444444443,-0.31805555555555554,1,0,0,7.665462999997544,number4,True,True,True,5,5,2019_Nov_11_1103,MA_Theta_Exp,3.0.7,59.870559851085865,
video/Experiment/zh_sp01_Dr_Ro_2_GlobalTheta_NoVideo.avi,globalTheta,noVideo,sp01,Dr,Ro,2,3,5,flow/blocks/GlobalTheta_NoVideo_A.csv,,,,,,,,,0,3,3,3,0,3,3,25,,,,,,,,,-0.3875,0.10138888888888889,1,0,0,5.112250899997889,call2,0.0125,-0.125,1,0,0,5.561591000005137,colour3,0.3902777777777778,0.10555555555555556,1,0,0,6.8675488000008045,number2,True,True,True,5,5,2019_Nov_11_1103,MA_Theta_Exp,3.0.7,59.870559851085865,
video/Experiment/zh_sp07_Ad_Ge_4_GlobalTheta_NoVideo.avi,globalTheta,noVideo,sp07,Ad,Ge,4,3,5,flow/blocks/GlobalTheta_NoVideo_A.csv,,,,,,,,,0,3,3,3,0,4,4,3,,,,,,,,,-0.37222222222222223,0.3111111111111111,1,0,0,5.543663900003594,call1,0.029166666666666667,0.3194444444444444,1,0,0,6.160790499998257,colour1,0.40694444444444444,-0.10138888888888889,1,0,0,7.7808864999969956,number3,True,True,False,5,5,2019_Nov_11_1103,MA_Theta_Exp,3.0.7,59.870559851085865,
video/Experiment/zh_sp07_Dr_We_4_GlobalTheta_NoVideo.avi,globalTheta,noVideo,sp07,Dr,We,4,3,5,flow/blocks/GlobalTheta_NoVideo_A.csv,,,,,,,,,0,3,3,3,0,5,5,31,,,,,,,,,-0.3638888888888889,0.09583333333333334,1,0,0,4.721450099998037,call2,0.06666666666666667,-0.09305555555555556,1,0,0,7.803661300000385,colour3,0.3888888888888889,-0.09861111111111111,1,0,0,8.679651999998896,number3,True,False,False,5,5,2019_Nov_11_1103,MA_Theta_Exp,3.0.7,59.870559851085865,
video/Experiment/zh_sp01_Dr_Ge_3_GlobalTheta_NoVideo.avi,globalTheta,noVideo,sp01,Dr,Ge,3,3,5,flow/blocks/GlobalTheta_NoVideo_A.csv,,,,,,,,,0,3,3,3,0,6,6,18,,,,,,,,,-0.39305555555555555,0.1111111111111111,1,0,0,5.12268039999617,call2,-0.05277777777777778,0.28888888888888886,1,0,0,5.499363599999924,colour1,0.4,-0.09444444444444444,1,0,0,6.6323225000014645,number3,True,True,True,5,5,2019_Nov_11_1103,MA_Theta_Exp,3.0.7,59.870559851085865,
video/Experiment/zh_sp07_Ad_Gr_4_GlobalTheta_NoVideo.avi,globalTheta,noVideo,sp07,Ad,Gr,4,3,5,flow/blocks/GlobalTheta_NoVideo_A.csv,,,,,,,,,0,3,3,3,0,7,7,7,,,,,,,,,-0.42083333333333334,0.28888888888888886,1,0,0,4.183056499998202,call1,-0.030555555555555555,0.09722222222222222,1,0,0,4.532875099997909,colour2,0.3958333333333333,-0.32222222222222224,1,0,0,6.077387099998305,number4,True,True,True,5,5,2019_Nov_11_1103,MA_Theta_Exp,3.0.7,59.870559851085865,
video/Experiment/zh_sp07_Dr_Gr_4_GlobalTheta_NoVideo.avi,globalTheta,noVideo,sp07,Dr,Gr,4,3,5,flow/blocks/GlobalTheta_NoVideo_A.csv,,,,,,,,,0,3,3,3,0,8,8,23,,,,,,,,,-0.3597222222222222,0.09861111111111111,1,0,0,4.438302700000349,call2,0.009722222222222222,0.07777777777777778,1,0,0,4.934111199996551,colour2,0.39444444444444443,-0.09722222222222222,1,0,0,5.936292600003071,number3,True,True,False,5,5,2019_Nov_11_1103,MA_Theta_Exp,3.0.7,59.870559851085865,
video/Experiment/zh_sp01_Ad_Ge_3_GlobalTheta_NoVideo.avi,globalTheta,noVideo,sp01,Ad,Ge,3,3,5,flow/blocks/GlobalTheta_NoVideo_A.csv,,,,,,,,,0,3,3,3,0,9,9,2,,,,,,,,,-0.3888888888888889,0.32916666666666666,1,0,0,4.60278250000556,call1,-0.05416666666666667,0.2916666666666667,1,0,0,4.942144799999369,colour1,0.4041666666666667,-0.10277777777777777,1,0,0,5.981074199997238,number3,True,True,True,5,5,2019_Nov_11_1103,MA_Theta_Exp,3.0.7,59.870559851085865,
video/Experiment/zh_sp01_Ad_We_3_GlobalTheta_NoVideo.avi,globalTheta,noVideo,sp01,Ad,We,3,3,5,flow/blocks/GlobalTheta_NoVideo_A.csv,,,,,,,,,0,3,3,3,0,10,10,14,,,,,,,,,-0.38333333333333336,0.3111111111111111,1,0,0,4.9007574999995995,call1,0.027777777777777776,-0.29444444444444445,1,0,0,5.617813099997875,colour4,0.4013888888888889,-0.10694444444444444,1,0,0,7.254587499999616,number3,True,True,True,5,5,2019_Nov_11_1103,MA_Theta_Exp,3.0.7,59.870559851085865,
video/Experiment/zh_sp01_Ad_Ge_2_GlobalTheta_NoVideo.avi,globalTheta,noVideo,sp01,Ad,Ge,2,3,5,flow/blocks/GlobalTheta_NoVideo_A.csv,,,,,,,,,0,3,3,3,0,11,11,1,,,,,,,,,-0.44166666666666665,0.2986111111111111,1,0,0,5.172378299997945,call1,0.008333333333333333,0.32222222222222224,1,0,0,5.676478499997756,colour1,0.39305555555555555,0.10138888888888889,1,0,0,6.821086299998569,number2,True,True,True,5,5,2019_Nov_11_1103,MA_Theta_Exp,3.0.7,59.870559851085865,
video/Experiment/zh_sp07_Dr_Ge_2_GlobalTheta_NoVideo.avi,globalTheta,noVideo,sp07,Dr,Ge,2,3,5,flow/blocks/GlobalTheta_NoVideo_A.csv,,,,,,,,,0,3,3,3,0,12,12,17,,,,,,,,,-0.39166666666666666,0.08472222222222223,1,0,0,4.287686599993322,call2,0.009722222222222222,0.29444444444444445,1,0,0,4.63238039999851,colour1,0.375,0.30416666666666664,1,0,0,5.204483399997116,number1,True,True,False,5,5,2019_Nov_11_1103,MA_Theta_Exp,3.0.7,59.870559851085865,
video/Experiment/zh_sp01_Dr_Gr_2_GlobalTheta_NoVideo.avi,globalTheta,noVideo,sp01,Dr,Gr,2,3,5,flow/blocks/GlobalTheta_NoVideo_A.csv,,,,,,,,,0,3,3,3,0,13,13,21,,,,,,,,,-0.3819444444444444,0.08333333333333333,1,0,0,5.1578940999970655,call2,-0.013888888888888888,0.12361111111111112,1,0,0,5.550875599998108,colour2,0.4041666666666667,0.09722222222222222,1,0,0,7.023787000005541,number2,True,True,True,5,5,2019_Nov_11_1103,MA_Theta_Exp,3.0.7,59.870559851085865,
video/Experiment/zh_sp01_Ad_Ge_1_GlobalTheta_NoVideo.avi,globalTheta,noVideo,sp01,Ad,Ge,1,3,5,flow/blocks/GlobalTheta_NoVideo_A.csv,,,,,,,,,0,3,3,3,0,14,14,0,,,,,,,,,-0.36527777777777776,0.2708333333333333,1,0,0,4.998096800001804,call1,-0.0125,0.3125,1,0,0,5.540061899999273,colour1,0.39166666666666666,0.30694444444444446,1,0,0,6.832909299999301,number1,True,True,True,5,5,2019_Nov_11_1103,MA_Theta_Exp,3.0.7,59.870559851085865,
video/Experiment/zh_sp01_Dr_We_1_GlobalTheta_NoVideo.avi,globalTheta,noVideo,sp01,Dr,We,1,3,5,flow/blocks/GlobalTheta_NoVideo_A.csv,,,,,,,,,0,3,3,3,0,15,15,28,,,,,,,,,-0.38333333333333336,0.09027777777777778,1,0,0,4.946603499993216,call2,0.02638888888888889,-0.325,1,0,0,5.4932269000055385,colour4,0.4027777777777778,0.31527777777777777,1,0,0,6.561918799998239,number1,True,True,True,5,5,2019_Nov_11_1103,MA_Theta_Exp,3.0.7,59.870559851085865,
video/Experiment/zh_sp01_Ad_We_2_GlobalTheta_NoVideo.avi,globalTheta,noVideo,sp01,Ad,We,2,3,5,flow/blocks/GlobalTheta_NoVideo_A.csv,,,,,,,,,0,3,3,3,0,16,16,13,,,,,,,,,-0.4375,0.3125,1,0,0,4.92224780000106,call1,0.005555555555555556,-0.35833333333333334,1,0,0,5.492027200001758,colour4,0.39444444444444443,0.12083333333333333,1,0,0,6.271814899999299,number2,True,True,True,5,5,2019_Nov_11_1103,MA_Theta_Exp,3.0.7,59.870559851085865,
video/Experiment/zh_sp01_Ad_Gr_1_GlobalTheta_NoVideo.avi,globalTheta,noVideo,sp01,Ad,Gr,1,3,5,flow/blocks/GlobalTheta_NoVideo_A.csv,,,,,,,,,0,3,3,3,0,17,17,4,,,,,,,,,-0.41805555555555557,0.32222222222222224,1,0,0,5.345267000004242,call1,-0.009722222222222222,0.13333333333333333,1,0,0,5.733909700000368,colour2,0.4111111111111111,0.31805555555555554,1,0,0,6.347969100002956,number1,True,True,True,5,5,2019_Nov_11_1103,MA_Theta_Exp,3.0.7,59.870559851085865,
video/Experiment/zh_sp07_Ad_We_1_GlobalTheta_NoVideo.avi,globalTheta,noVideo,sp07,Ad,We,1,3,5,flow/blocks/GlobalTheta_NoVideo_A.csv,,,,,,,,,0,3,3,3,0,18,18,12,,,,,,,,,-0.4125,0.06666666666666667,1,0,0,4.169524400000228,call2,0.004166666666666667,-0.24166666666666667,1,0,0,4.602429099999426,colour4,0.38333333333333336,0.30277777777777776,1,0,0,5.866602000001876,number1,False,True,True,5,5,2019_Nov_11_1103,MA_Theta_Exp,3.0.7,59.870559851085865,
video/Experiment/zh_sp01_Dr_Ro_3_GlobalTheta_NoVideo.avi,globalTheta,noVideo,sp01,Dr,Ro,3,3,5,flow/blocks/GlobalTheta_NoVideo_A.csv,,,,,,,,,0,3,3,3,0,19,19,26,,,,,,,,,-0.3597222222222222,0.10972222222222222,1,0,0,5.433596099996066,call2,-0.009722222222222222,-0.12083333333333333,1,0,0,6.20882160000474,colour3,0.4027777777777778,-0.10694444444444444,1,0,0,7.8634711999984575,number3,True,True,True,5,5,2019_Nov_11_1103,MA_Theta_Exp,3.0.7,59.870559851085865,
video/Experiment/zh_sp01_Dr_Gr_1_GlobalTheta_NoVideo.avi,globalTheta,noVideo,sp01,Dr,Gr,1,3,5,flow/blocks/GlobalTheta_NoVideo_A.csv,,,,,,,,,0,3,3,3,0,20,20,20,,,,,,,,,-0.4166666666666667,0.058333333333333334,1,0,0,5.114836200002173,call2,-0.015277777777777777,0.06944444444444445,1,0,0,5.659923499995784,colour2,0.3958333333333333,0.30972222222222223,1,0,0,7.877021499996772,number1,True,True,True,5,5,2019_Nov_11_1103,MA_Theta_Exp,3.0.7,59.870559851085865,
video/Experiment/zh_sp01_Dr_We_2_GlobalTheta_NoVideo.avi,globalTheta,noVideo,sp01,Dr,We,2,3,5,flow/blocks/GlobalTheta_NoVideo_A.csv,,,,,,,,,0,3,3,3,0,21,21,29,,,,,,,,,-0.4097222222222222,-0.3347222222222222,1,0,0,5.158201899997948,call4,0.06527777777777778,-0.28888888888888886,1,0,0,5.75598390000232,colour4,0.4013888888888889,0.08472222222222223,1,0,0,7.055486099998234,number2,False,True,True,5,5,2019_Nov_11_1103,MA_Theta_Exp,3.0.7,59.870559851085865,
video/Experiment/zh_sp07_Ad_Ro_3_GlobalTheta_NoVideo.avi,globalTheta,noVideo,sp07,Ad,Ro,3,3,5,flow/blocks/GlobalTheta_NoVideo_A.csv,,,,,,,,,0,3,3,3,0,22,22,10,,,,,,,,,-0.39305555555555555,0.275,1,0,0,4.470427899999777,call1,-0.03888888888888889,-0.3611111111111111,1,0,0,5.047993000000133,colour4,0.3736111111111111,-0.11388888888888889,1,0,0,5.584076400002232,number3,True,False,True,5,5,2019_Nov_11_1103,MA_Theta_Exp,3.0.7,59.870559851085865,
video/Experiment/zh_sp07_Dr_Ro_4_GlobalTheta_NoVideo.avi,globalTheta,noVideo,sp07,Dr,Ro,4,3,5,flow/blocks/GlobalTheta_NoVideo_A.csv,,,,,,,,,0,3,3,3,0,23,23,27,,,,,,,,,-0.39861111111111114,0.2875,1,0,0,5.127567399998952,call1,0.001388888888888889,-0.075,1,0,0,5.627105399995344,colour3,0.4041666666666667,-0.3111111111111111,1,0,0,7.326121099999,number4,False,True,True,5,5,2019_Nov_11_1103,MA_Theta_Exp,3.0.7,59.870559851085865,
video/Experiment/zh_sp07_Dr_Ge_4_GlobalTheta_NoVideo.avi,globalTheta,noVideo,sp07,Dr,Ge,4,3,5,flow/blocks/GlobalTheta_NoVideo_A.csv,,,,,,,,,0,3,3,3,0,24,24,19,,,,,,,,,-0.39861111111111114,-0.3277777777777778,1,0,0,6.320148599996173,call4,-0.020833333333333332,0.08055555555555556,1,0,0,6.791410400001041,colour2,0.3958333333333333,-0.3125,1,0,0,9.30207099999825,number4,False,False,True,5,5,2019_Nov_11_1103,MA_Theta_Exp,3.0.7,59.870559851085865,
video/Experiment/zh_sp07_Ad_We_4_GlobalTheta_NoVideo.avi,globalTheta,noVideo,sp07,Ad,We,4,3,5,flow/blocks/GlobalTheta_NoVideo_A.csv,,,,,,,,,0,3,3,3,0,25,25,15,,,,,,,,,-0.3819444444444444,0.30972222222222223,1,0,0,4.523710499997833,call1,0.009722222222222222,-0.3013888888888889,1,0,0,5.212136100002681,colour4,0.3888888888888889,-0.3125,1,0,0,6.710731499995745,number4,True,True,True,5,5,2019_Nov_11_1103,MA_Theta_Exp,3.0.7,59.870559851085865,
video/Experiment/zh_sp07_Ad_Gr_3_GlobalTheta_NoVideo.avi,globalTheta,noVideo,sp07,Ad,Gr,3,3,5,flow/blocks/GlobalTheta_NoVideo_A.csv,,,,,,,,,0,3,3,3,0,26,26,6,,,,,,,,,-0.40555555555555556,0.2833333333333333,1,0,0,4.525373899996339,call1,0.005555555555555556,0.11527777777777778,1,0,0,4.979644300001382,colour2,0.3958333333333333,-0.09722222222222222,1,0,0,6.422933600006218,number3,True,True,True,5,5,2019_Nov_11_1103,MA_Theta_Exp,3.0.7,59.870559851085865,
video/Experiment/zh_sp07_Ad_Ro_2_GlobalTheta_NoVideo.avi,globalTheta,noVideo,sp07,Ad,Ro,2,3,5,flow/blocks/GlobalTheta_NoVideo_A.csv,,,,,,,,,0,3,3,3,0,27,27,9,,,,,,,,,-0.3888888888888889,0.2972222222222222,1,0,0,4.769748999999138,call1,0.05694444444444444,-0.0875,1,0,0,8.506060700005037,colour3,0.3875,0.10972222222222222,1,0,0,10.627042200001597,number2,True,True,True,5,5,2019_Nov_11_1103,MA_Theta_Exp,3.0.7,59.870559851085865,
video/Experiment/zh_sp07_Ad_Gr_2_GlobalTheta_NoVideo.avi,globalTheta,noVideo,sp07,Ad,Gr,2,3,5,flow/blocks/GlobalTheta_NoVideo_A.csv,,,,,,,,,0,3,3,3,0,28,28,5,,,,,,,,,-0.39305555555555555,0.3013888888888889,1,0,0,4.340298499999335,call1,-0.002777777777777778,0.14583333333333334,1,0,0,4.719642900003237,colour2,0.4013888888888889,0.08888888888888889,1,0,0,6.7477622000005795,number2,True,True,True,5,5,2019_Nov_11_1103,MA_Theta_Exp,3.0.7,59.870559851085865,
video/Experiment/zh_sp01_Dr_Ro_1_GlobalTheta_NoVideo.avi,globalTheta,noVideo,sp01,Dr,Ro,1,3,5,flow/blocks/GlobalTheta_NoVideo_A.csv,,,,,,,,,0,3,3,3,0,29,29,24,,,,,,,,,-0.3611111111111111,0.07916666666666666,1,0,0,6.228841900003317,call2,-0.006944444444444444,-0.05416666666666667,1,0,0,6.698100599998725,colour3,0.40694444444444444,0.30972222222222223,1,0,0,8.08152759999939,number1,True,True,True,5,5,2019_Nov_11_1103,MA_Theta_Exp,3.0.7,59.870559851085865,
video/Experiment/zh_sp07_Dr_We_3_GlobalTheta_NoVideo.avi,globalTheta,noVideo,sp07,Dr,We,3,3,5,flow/blocks/GlobalTheta_NoVideo_A.csv,,,,,,,,,0,3,3,3,0,30,30,30,,,,,,,,,-0.375,0.12222222222222222,1,0,0,9.163662799997837,call2,0.013888888888888888,-0.10694444444444444,1,0,0,12.013583200001449,colour3,,,,,,,,True,False,NO_ANSW,5,5,2019_Nov_11_1103,MA_Theta_Exp,3.0.7,59.870559851085865,
video/Experiment/zh_sp07_Ad_Ro_1_GlobalTheta_NoVideo.avi,globalTheta,noVideo,sp07,Ad,Ro,1,3,5,flow/blocks/GlobalTheta_NoVideo_A.csv,,,,,,,,,0,3,3,3,0,31,31,8,,,,,,,,,-0.42083333333333334,0.13333333333333333,1,0,0,5.0130216000034125,call2,0.04027777777777778,-0.1125,1,0,0,5.505097300003399,colour3,0.39444444444444443,0.09444444444444444,1,0,0,8.74227790000441,number2,False,True,False,5,5,2019_Nov_11_1103,MA_Theta_Exp,3.0.7,59.870559851085865,
video/Experiment/zh_sp01_Dr_We_4_NVocInAudio_GlobalThetaInVideo.avi,vocoded,plusVideo,sp01,Dr,We,4,4,1,flow/blocks/NVocInAudio_GlobalThetaInVideo_A.csv,,,,,,,,,0,4,4,4,0,0,0,31,,,,,,,,,-0.3875,0.06388888888888888,1,0,0,5.050403199995344,call2,0.06527777777777778,-0.33194444444444443,1,0,0,5.55514740000217,colour4,0.39861111111111114,-0.31666666666666665,1,0,0,6.619123100004799,number4,True,True,True,5,5,2019_Nov_11_1103,MA_Theta_Exp,3.0.7,59.870559851085865,
video/Experiment/zh_sp07_Dr_Ro_1_NVocInAudio_GlobalThetaInVideo.avi,vocoded,plusVideo,sp07,Dr,Ro,1,4,1,flow/blocks/NVocInAudio_GlobalThetaInVideo_A.csv,,,,,,,,,0,4,4,4,0,1,1,24,,,,,,,,,-0.38333333333333336,0.10416666666666667,1,0,0,4.354177699999127,call2,0.03611111111111111,-0.1111111111111111,1,0,0,4.877164099998481,colour3,0.4041666666666667,0.30694444444444446,1,0,0,5.867062799996347,number1,True,True,True,5,5,2019_Nov_11_1103,MA_Theta_Exp,3.0.7,59.870559851085865,
video/Experiment/zh_sp07_Dr_Ge_4_NVocInAudio_GlobalThetaInVideo.avi,vocoded,plusVideo,sp07,Dr,Ge,4,4,1,flow/blocks/NVocInAudio_GlobalThetaInVideo_A.csv,,,,,,,,,0,4,4,4,0,2,2,19,,,,,,,,,-0.42083333333333334,0.10138888888888889,1,0,0,4.674452399995062,call2,0.05138888888888889,0.325,1,0,0,5.20216210000217,colour1,0.3958333333333333,-0.32222222222222224,1,0,0,6.726381500004209,number4,True,True,True,5,5,2019_Nov_11_1103,MA_Theta_Exp,3.0.7,59.870559851085865,
video/Experiment/zh_sp07_Dr_Ro_4_NVocInAudio_GlobalThetaInVideo.avi,vocoded,plusVideo,sp07,Dr,Ro,4,4,1,flow/blocks/NVocInAudio_GlobalThetaInVideo_A.csv,,,,,,,,,0,4,4,4,0,3,3,27,,,,,,,,,-0.39166666666666666,0.09305555555555556,1,0,0,4.647456699996837,call2,-0.02361111111111111,-0.08194444444444444,1,0,0,5.100632900001074,colour3,0.40694444444444444,-0.3013888888888889,1,0,0,6.481754500004172,number4,True,True,True,5,5,2019_Nov_11_1103,MA_Theta_Exp,3.0.7,59.870559851085865,
video/Experiment/zh_sp01_Ad_Gr_4_NVocInAudio_GlobalThetaInVideo.avi,vocoded,plusVideo,sp01,Ad,Gr,4,4,1,flow/blocks/NVocInAudio_GlobalThetaInVideo_A.csv,,,,,,,,,0,4,4,4,0,4,4,7,,,,,,,,,-0.4,0.32083333333333336,1,0,0,5.295622699995874,call1,-0.025,0.0763888888888889,1,0,0,5.943567400005122,colour2,0.39444444444444443,-0.3138888888888889,1,0,0,7.426378500000283,number4,True,True,True,5,5,2019_Nov_11_1103,MA_Theta_Exp,3.0.7,59.870559851085865,
video/Experiment/zh_sp07_Ad_We_1_NVocInAudio_GlobalThetaInVideo.avi,vocoded,plusVideo,sp07,Ad,We,1,4,1,flow/blocks/NVocInAudio_GlobalThetaInVideo_A.csv,,,,,,,,,0,4,4,4,0,5,5,12,,,,,,,,,-0.41388888888888886,0.28194444444444444,1,0,0,4.344480300002033,call1,0.009722222222222222,-0.3402777777777778,1,0,0,5.121686300000874,colour4,0.4027777777777778,0.30277777777777776,1,0,0,6.514421100000618,number1,True,True,True,5,5,2019_Nov_11_1103,MA_Theta_Exp,3.0.7,59.870559851085865,
video/Experiment/zh_sp07_Ad_Ro_3_NVocInAudio_GlobalThetaInVideo.avi,vocoded,plusVideo,sp07,Ad,Ro,3,4,1,flow/blocks/NVocInAudio_GlobalThetaInVideo_A.csv,,,,,,,,,0,4,4,4,0,6,6,10,,,,,,,,,-0.4236111111111111,0.3055555555555556,1,0,0,4.471675699998741,call1,-0.013888888888888888,-0.10555555555555556,1,0,0,5.138757100001385,colour3,0.38333333333333336,-0.09722222222222222,1,0,0,6.203669700000319,number3,True,True,True,5,5,2019_Nov_11_1103,MA_Theta_Exp,3.0.7,59.870559851085865,
video/Experiment/zh_sp07_Ad_Ro_2_NVocInAudio_GlobalThetaInVideo.avi,vocoded,plusVideo,sp07,Ad,Ro,2,4,1,flow/blocks/NVocInAudio_GlobalThetaInVideo_A.csv,,,,,,,,,0,4,4,4,0,7,7,9,,,,,,,,,-0.39166666666666666,0.3055555555555556,1,0,0,4.512646800001676,call1,0.013888888888888888,-0.11527777777777778,1,0,0,5.050753399998939,colour3,0.4166666666666667,0.1125,1,0,0,5.856056299999182,number2,True,True,True,5,5,2019_Nov_11_1103,MA_Theta_Exp,3.0.7,59.870559851085865,
video/Experiment/zh_sp01_Dr_Ge_1_NVocInAudio_GlobalThetaInVideo.avi,vocoded,plusVideo,sp01,Dr,Ge,1,4,1,flow/blocks/NVocInAudio_GlobalThetaInVideo_A.csv,,,,,,,,,0,4,4,4,0,8,8,16,,,,,,,,,-0.39861111111111114,0.11388888888888889,1,0,0,5.271647699999448,call2,0.018055555555555554,0.2833333333333333,1,0,0,5.872036699998716,colour1,0.39861111111111114,0.3125,1,0,0,7.186296300002141,number1,True,True,True,5,5,2019_Nov_11_1103,MA_Theta_Exp,3.0.7,59.870559851085865,
video/Experiment/zh_sp07_Ad_Ge_3_NVocInAudio_GlobalThetaInVideo.avi,vocoded,plusVideo,sp07,Ad,Ge,3,4,1,flow/blocks/NVocInAudio_GlobalThetaInVideo_A.csv,,,,,,,,,0,4,4,4,0,9,9,2,,,,,,,,,-0.37222222222222223,0.32916666666666666,1,0,0,4.437511000003724,call1,0.05,0.2986111111111111,1,0,0,5.269429499996477,colour1,0.4027777777777778,-0.10694444444444444,1,0,0,6.63679840000259,number3,True,True,True,5,5,2019_Nov_11_1103,MA_Theta_Exp,3.0.7,59.870559851085865,
video/Experiment/zh_sp07_Dr_We_1_NVocInAudio_GlobalThetaInVideo.avi,vocoded,plusVideo,sp07,Dr,We,1,4,1,flow/blocks/NVocInAudio_GlobalThetaInVideo_A.csv,,,,,,,,,0,4,4,4,0,10,10,28,,,,,,,,,-0.37916666666666665,0.1,1,0,0,4.504814499996428,call2,0.041666666666666664,-0.3680555555555556,1,0,0,5.072279300002265,colour4,0.38472222222222224,0.3277777777777778,1,0,0,5.9743917000014335,number1,True,True,True,5,5,2019_Nov_11_1103,MA_Theta_Exp,3.0.7,59.870559851085865,
video/Experiment/zh_sp01_Ad_We_3_NVocInAudio_GlobalThetaInVideo.avi,vocoded,plusVideo,sp01,Ad,We,3,4,1,flow/blocks/NVocInAudio_GlobalThetaInVideo_A.csv,,,,,,,,,0,4,4,4,0,11,11,14,,,,,,,,,-0.41805555555555557,0.31805555555555554,1,0,0,4.991689400005271,call1,0.020833333333333332,-0.32222222222222224,1,0,0,5.628560500001186,colour4,0.36944444444444446,-0.10555555555555556,1,0,0,6.5876227999979164,number3,True,True,True,5,5,2019_Nov_11_1103,MA_Theta_Exp,3.0.7,59.870559851085865,
video/Experiment/zh_sp01_Dr_Gr_1_NVocInAudio_GlobalThetaInVideo.avi,vocoded,plusVideo,sp01,Dr,Gr,1,4,1,flow/blocks/NVocInAudio_GlobalThetaInVideo_A.csv,,,,,,,,,0,4,4,4,0,12,12,20,,,,,,,,,-0.4027777777777778,0.1111111111111111,1,0,0,5.51182510000217,call2,-0.034722222222222224,0.11944444444444445,1,0,0,6.062943299999461,colour2,0.3902777777777778,0.2972222222222222,1,0,0,7.632178100000601,number1,True,True,True,5,5,2019_Nov_11_1103,MA_Theta_Exp,3.0.7,59.870559851085865,
video/Experiment/zh_sp07_Ad_Ro_1_NVocInAudio_GlobalThetaInVideo.avi,vocoded,plusVideo,sp07,Ad,Ro,1,4,1,flow/blocks/NVocInAudio_GlobalThetaInVideo_A.csv,,,,,,,,,0,4,4,4,0,13,13,8,,,,,,,,,-0.3972222222222222,0.3055555555555556,1,0,0,4.1755189999967115,call1,-0.0125,-0.13055555555555556,1,0,0,4.6963756999975885,colour3,0.39444444444444443,0.3013888888888889,1,0,0,5.263794499995129,number1,True,True,True,5,5,2019_Nov_11_1103,MA_Theta_Exp,3.0.7,59.870559851085865,
video/Experiment/zh_sp07_Ad_Ro_4_NVocInAudio_GlobalThetaInVideo.avi,vocoded,plusVideo,sp07,Ad,Ro,4,4,1,flow/blocks/NVocInAudio_GlobalThetaInVideo_A.csv,,,,,,,,,0,4,4,4,0,14,14,11,,,,,,,,,-0.42083333333333334,0.30833333333333335,1,0,0,4.528833299998951,call1,0.009722222222222222,-0.125,1,0,0,5.069929500001308,colour3,0.4236111111111111,-0.3277777777777778,1,0,0,5.652167200001713,number4,True,True,True,5,5,2019_Nov_11_1103,MA_Theta_Exp,3.0.7,59.870559851085865,
video/Experiment/zh_sp07_Dr_Gr_3_NVocInAudio_GlobalThetaInVideo.avi,vocoded,plusVideo,sp07,Dr,Gr,3,4,1,flow/blocks/NVocInAudio_GlobalThetaInVideo_A.csv,,,,,,,,,0,4,4,4,0,15,15,22,,,,,,,,,-0.475,0.10138888888888889,1,0,0,4.56370899999456,call2,0.005555555555555556,0.10416666666666667,1,0,0,5.030928599997424,colour2,0.40694444444444444,-0.12361111111111112,1,0,0,5.516510500005097,number3,True,True,True,5,5,2019_Nov_11_1103,MA_Theta_Exp,3.0.7,59.870559851085865,
video/Experiment/zh_sp07_Dr_Ge_3_NVocInAudio_GlobalThetaInVideo.avi,vocoded,plusVideo,sp07,Dr,Ge,3,4,1,flow/blocks/NVocInAudio_GlobalThetaInVideo_A.csv,,,,,,,,,0,4,4,4,0,16,16,18,,,,,,,,,-0.42083333333333334,0.09027777777777778,1,0,0,4.32314690000203,call2,-0.020833333333333332,0.3236111111111111,1,0,0,4.821942100003071,colour1,0.3972222222222222,-0.09027777777777778,1,0,0,5.425607400000445,number3,True,True,True,5,5,2019_Nov_11_1103,MA_Theta_Exp,3.0.7,59.870559851085865,
video/Experiment/zh_sp01_Ad_Ge_4_NVocInAudio_GlobalThetaInVideo.avi,vocoded,plusVideo,sp01,Ad,Ge,4,4,1,flow/blocks/NVocInAudio_GlobalThetaInVideo_A.csv,,,,,,,,,0,4,4,4,0,17,17,3,,,,,,,,,-0.3958333333333333,0.3125,1,0,0,4.813233900000341,call1,-0.019444444444444445,0.32083333333333336,1,0,0,5.345865599992976,colour1,0.4083333333333333,-0.31666666666666665,1,0,0,6.60934790000465,number4,True,True,True,5,5,2019_Nov_11_1103,MA_Theta_Exp,3.0.7,59.870559851085865,
video/Experiment/zh_sp01_Ad_We_4_NVocInAudio_GlobalThetaInVideo.avi,vocoded,plusVideo,sp01,Ad,We,4,4,1,flow/blocks/NVocInAudio_GlobalThetaInVideo_A.csv,,,,,,,,,0,4,4,4,0,18,18,15,,,,,,,,,-0.4,0.3333333333333333,1,0,0,4.83798139999999,call1,0.002777777777777778,-0.35,1,0,0,5.336554099994828,colour4,0.4111111111111111,-0.325,1,0,0,6.4982316000023275,number4,True,True,True,5,5,2019_Nov_11_1103,MA_Theta_Exp,3.0.7,59.870559851085865,
video/Experiment/zh_sp07_Dr_We_3_NVocInAudio_GlobalThetaInVideo.avi,vocoded,plusVideo,sp07,Dr,We,3,4,1,flow/blocks/NVocInAudio_GlobalThetaInVideo_A.csv,,,,,,,,,0,4,4,4,0,19,19,30,,,,,,,,,-0.4041666666666667,0.09583333333333334,1,0,0,4.335533800003759,call2,-0.041666666666666664,-0.3375,1,0,0,4.833221600005345,colour4,0.4097222222222222,-0.10972222222222222,1,0,0,6.000079199999163,number3,True,True,True,5,5,2019_Nov_11_1103,MA_Theta_Exp,3.0.7,59.870559851085865,
video/Experiment/zh_sp07_Ad_Gr_3_NVocInAudio_GlobalThetaInVideo.avi,vocoded,plusVideo,sp07,Ad,Gr,3,4,1,flow/blocks/NVocInAudio_GlobalThetaInVideo_A.csv,,,,,,,,,0,4,4,4,0,20,20,6,,,,,,,,,-0.45,0.3,1,0,0,4.451061399995524,call1,-0.05555555555555555,0.09722222222222222,1,0,0,4.848915799993847,colour2,0.3958333333333333,-0.10138888888888889,1,0,0,5.741821199997503,number3,True,True,True,5,5,2019_Nov_11_1103,MA_Theta_Exp,3.0.7,59.870559851085865,
video/Experiment/zh_sp01_Dr_Gr_4_NVocInAudio_GlobalThetaInVideo.avi,vocoded,plusVideo,sp01,Dr,Gr,4,4,1,flow/blocks/NVocInAudio_GlobalThetaInVideo_A.csv,,,,,,,,,0,4,4,4,0,21,21,23,,,,,,,,,-0.43472222222222223,0.12222222222222222,1,0,0,5.55891580000025,call2,-0.022222222222222223,0.12361111111111112,1,0,0,6.08782390000124,colour2,0.3861111111111111,-0.31527777777777777,1,0,0,7.134234799996193,number4,True,True,True,5,5,2019_Nov_11_1103,MA_Theta_Exp,3.0.7,59.870559851085865,
video/Experiment/zh_sp07_Ad_Gr_1_NVocInAudio_GlobalThetaInVideo.avi,vocoded,plusVideo,sp07,Ad,Gr,1,4,1,flow/blocks/NVocInAudio_GlobalThetaInVideo_A.csv,,,,,,,,,0,4,4,4,0,22,22,4,,,,,,,,,-0.4125,0.29305555555555557,1,0,0,4.534051799993904,call1,0.1375,0.13333333333333333,1,0,0,5.034387100000458,colour2,0.39305555555555555,0.2972222222222222,1,0,0,6.561941399995703,number1,True,True,True,5,5,2019_Nov_11_1103,MA_Theta_Exp,3.0.7,59.870559851085865,
video/Experiment/zh_sp01_Dr_Gr_2_NVocInAudio_GlobalThetaInVideo.avi,vocoded,plusVideo,sp01,Dr,Gr,2,4,1,flow/blocks/NVocInAudio_GlobalThetaInVideo_A.csv,,,,,,,,,0,4,4,4,0,23,23,21,,,,,,,,,-0.38333333333333336,0.09861111111111111,1,0,0,5.136623400001554,call2,-0.02638888888888889,0.12638888888888888,1,0,0,5.481108699998003,colour2,0.3625,0.12361111111111112,1,0,0,5.78754480000498,number2,True,True,True,5,5,2019_Nov_11_1103,MA_Theta_Exp,3.0.7,59.870559851085865,
video/Experiment/zh_sp01_Ad_Gr_2_NVocInAudio_GlobalThetaInVideo.avi,vocoded,plusVideo,sp01,Ad,Gr,2,4,1,flow/blocks/NVocInAudio_GlobalThetaInVideo_A.csv,,,,,,,,,0,4,4,4,0,24,24,5,,,,,,,,,-0.3972222222222222,0.3138888888888889,1,0,0,4.979819199994381,call1,0.011111111111111112,0.11944444444444445,1,0,0,5.474821499999962,colour2,0.44027777777777777,0.10972222222222222,1,0,0,5.949521900001855,number2,True,True,True,5,5,2019_Nov_11_1103,MA_Theta_Exp,3.0.7,59.870559851085865,
video/Experiment/zh_sp01_Ad_We_2_NVocInAudio_GlobalThetaInVideo.avi,vocoded,plusVideo,sp01,Ad,We,2,4,1,flow/blocks/NVocInAudio_GlobalThetaInVideo_A.csv,,,,,,,,,0,4,4,4,0,25,25,13,,,,,,,,,-0.3861111111111111,0.3125,1,0,0,5.13399699999718,call1,0.034722222222222224,-0.28194444444444444,1,0,0,5.850023799997871,colour4,0.3763888888888889,0.11388888888888889,1,0,0,6.557236199994804,number2,True,True,True,5,5,2019_Nov_11_1103,MA_Theta_Exp,3.0.7,59.870559851085865,
video/Experiment/zh_sp01_Dr_Ro_3_NVocInAudio_GlobalThetaInVideo.avi,vocoded,plusVideo,sp01,Dr,Ro,3,4,1,flow/blocks/NVocInAudio_GlobalThetaInVideo_A.csv,,,,,,,,,0,4,4,4,0,26,26,26,,,,,,,,,-0.41388888888888886,0.11574074074074074,1,0,0,4.932622300002549,call2,-0.022222222222222223,-0.10231481481481482,1,0,0,5.449589800002286,colour3,0.3875,-0.10092592592592593,1,0,0,6.482979300002626,number3,True,True,True,5,5,2019_Nov_11_1103,MA_Theta_Exp,3.0.7,59.870559851085865,
video/Experiment/zh_sp07_Ad_Ge_1_NVocInAudio_GlobalThetaInVideo.avi,vocoded,plusVideo,sp07,Ad,Ge,1,4,1,flow/blocks/NVocInAudio_GlobalThetaInVideo_A.csv,,,,,,,,,0,4,4,4,0,27,27,0,,,,,,,,,-0.425,0.3087962962962963,1,0,0,4.235890000003565,call1,-0.041666666666666664,0.28379629629629627,1,0,0,4.596271900001739,colour1,0.40555555555555556,0.3060185185185185,1,0,0,5.6143395000035525,number1,True,True,True,5,5,2019_Nov_11_1103,MA_Theta_Exp,3.0.7,59.870559851085865,
video/Experiment/zh_sp01_Dr_Ge_2_NVocInAudio_GlobalThetaInVideo.avi,vocoded,plusVideo,sp01,Dr,Ge,2,4,1,flow/blocks/NVocInAudio_GlobalThetaInVideo_A.csv,,,,,,,,,0,4,4,4,0,28,28,17,,,,,,,,,-0.4125,0.11851851851851852,1,0,0,5.116377899998042,call2,-0.03333333333333333,0.2671296296296296,1,0,0,5.520536399999401,colour1,0.3763888888888889,0.11296296296296296,1,0,0,6.021019899999374,number2,True,True,True,5,5,2019_Nov_11_1103,MA_Theta_Exp,3.0.7,59.870559851085865,
video/Experiment/zh_sp01_Ad_Ge_2_NVocInAudio_GlobalThetaInVideo.avi,vocoded,plusVideo,sp01,Ad,Ge,2,4,1,flow/blocks/NVocInAudio_GlobalThetaInVideo_A.csv,,,,,,,,,0,4,4,4,0,29,29,1,,,,,,,,,-0.35138888888888886,0.300462962962963,1,0,0,4.994752000005974,call1,-0.0125,0.3282407407407407,1,0,0,5.54291910000029,colour1,0.3861111111111111,0.10462962962962963,1,0,0,6.596599199998309,number2,True,True,True,5,5,2019_Nov_11_1103,MA_Theta_Exp,3.0.7,59.870559851085865,
video/Experiment/zh_sp01_Dr_Ro_2_NVocInAudio_GlobalThetaInVideo.avi,vocoded,plusVideo,sp01,Dr,Ro,2,4,1,flow/blocks/NVocInAudio_GlobalThetaInVideo_A.csv,,,,,,,,,0,4,4,4,0,30,30,25,,,,,,,,,-0.3819444444444444,0.09490740740740741,1,0,0,5.485853199999838,call2,-0.009722222222222222,-0.09398148148148149,1,0,0,5.908132100004877,colour3,0.39861111111111114,0.10324074074074074,1,0,0,7.070761799994216,number2,True,True,True,5,5,2019_Nov_11_1103,MA_Theta_Exp,3.0.7,59.870559851085865,
video/Experiment/zh_sp01_Dr_We_2_NVocInAudio_GlobalThetaInVideo.avi,vocoded,plusVideo,sp01,Dr,We,2,4,1,flow/blocks/NVocInAudio_GlobalThetaInVideo_A.csv,,,,,,,,,0,4,4,4,0,31,31,29,,,,,,,,,-0.4166666666666667,0.12268518518518519,1,0,0,5.095189700004994,call2,0.043055555555555555,-0.3398148148148148,1,0,0,5.774640399999043,colour4,0.37916666666666665,0.1087962962962963,1,0,0,6.580637099999876,number2,True,True,True,5,5,2019_Nov_11_1103,MA_Theta_Exp,3.0.7,59.870559851085865,
video/Experiment/zh_sp07_Un_We_2_NoThetaInAudio_NoVideo.avi,noTheta,noVideo,sp07,Un,We,2,0,4,flow/blocks/NoThetaInAudio_NoVideo_B.csv,,,,,,,,,,,,,,,,,0,0,0,0,0,0,0,29,-0.4027777777777778,-0.32592592592592595,1,0,0,4.594313699999475,call4,0.030555555555555555,-0.32731481481481484,1,0,0,5.145098699998925,colour4,0.4013888888888889,0.11018518518518519,1,0,0,6.680470500003139,number2,True,True,True,5,5,2019_Nov_11_1103,MA_Theta_Exp,3.0.7,59.870559851085865,
video/Experiment/zh_sp01_Ti_Ge_2_NoThetaInAudio_NoVideo.avi,noTheta,noVideo,sp01,Ti,Ge,2,0,4,flow/blocks/NoThetaInAudio_NoVideo_B.csv,,,,,,,,,,,,,,,,,0,0,0,0,0,1,1,1,-0.39305555555555555,-0.09953703703703703,1,0,0,5.647483799999463,call3,-0.011111111111111112,0.29768518518518516,1,0,0,6.589334999996936,colour1,0.40694444444444444,0.12407407407407407,1,0,0,8.03348730000289,number2,True,True,True,5,5,2019_Nov_11_1103,MA_Theta_Exp,3.0.7,59.870559851085865,
video/Experiment/zh_sp01_Un_We_4_NoThetaInAudio_NoVideo.avi,noTheta,noVideo,sp01,Un,We,4,0,4,flow/blocks/NoThetaInAudio_NoVideo_B.csv,,,,,,,,,,,,,,,,,0,0,0,0,0,2,2,31,-0.43333333333333335,-0.34675925925925927,1,0,0,5.150320399996417,call4,-0.022222222222222223,-0.3037037037037037,1,0,0,5.717227000001003,colour4,0.40694444444444444,-0.29814814814814816,1,0,0,6.947439700001269,number4,True,True,True,5,5,2019_Nov_11_1103,MA_Theta_Exp,3.0.7,59.870559851085865,
video/Experiment/zh_sp01_Ti_Ro_1_NoThetaInAudio_NoVideo.avi,noTheta,noVideo,sp01,Ti,Ro,1,0,4,flow/blocks/NoThetaInAudio_NoVideo_B.csv,,,,,,,,,,,,,,,,,0,0,0,0,0,3,3,8,-0.4375,-0.14675925925925926,1,0,0,5.1440093999990495,call3,0.02638888888888889,-0.09953703703703703,1,0,0,5.598487700000987,colour3,0.4152777777777778,0.29212962962962963,1,0,0,6.773608099996636,number1,True,True,True,5,5,2019_Nov_11_1103,MA_Theta_Exp,3.0.7,59.870559851085865,
video/Experiment/zh_sp01_Ti_Ge_1_NoThetaInAudio_NoVideo.avi,noTheta,noVideo,sp01,Ti,Ge,1,0,4,flow/blocks/NoThetaInAudio_NoVideo_B.csv,,,,,,,,,,,,,,,,,0,0,0,0,0,4,4,0,-0.37083333333333335,-0.09537037037037037,1,0,0,5.181868300001952,call3,-0.005555555555555556,0.30185185185185187,1,0,0,5.748459800001001,colour1,0.3972222222222222,0.29212962962962963,1,0,0,6.727538999999524,number1,True,True,True,5,5,2019_Nov_11_1103,MA_Theta_Exp,3.0.7,59.870559851085865,
video/Experiment/zh_sp01_Un_Ro_2_NoThetaInAudio_NoVideo.avi,noTheta,noVideo,sp01,Un,Ro,2,0,4,flow/blocks/NoThetaInAudio_NoVideo_B.csv,,,,,,,,,,,,,,,,,0,0,0,0,0,5,5,25,-0.4013888888888889,-0.3509259259259259,1,0,0,4.971039499992912,call4,0.019444444444444445,-0.09814814814814815,1,0,0,5.438059699998121,colour3,0.3902777777777778,0.11435185185185186,1,0,0,6.137898699998914,number2,True,True,True,5,5,2019_Nov_11_1103,MA_Theta_Exp,3.0.7,59.870559851085865,
video/Experiment/zh_sp01_Ti_We_1_NoThetaInAudio_NoVideo.avi,noTheta,noVideo,sp01,Ti,We,1,0,4,flow/blocks/NoThetaInAudio_NoVideo_B.csv,,,,,,,,,,,,,,,,,0,0,0,0,0,6,6,12,-0.40694444444444444,-0.12453703703703704,1,0,0,5.0544528999962495,call3,-0.013888888888888888,-0.32592592592592595,1,0,0,5.636289100002614,colour4,0.4166666666666667,0.30462962962962964,1,0,0,6.908490100002382,number1,True,True,True,5,5,2019_Nov_11_1103,MA_Theta_Exp,3.0.7,59.870559851085865,
video/Experiment/zh_sp07_Un_Ge_4_NoThetaInAudio_NoVideo.avi,noTheta,noVideo,sp07,Un,Ge,4,0,4,flow/blocks/NoThetaInAudio_NoVideo_B.csv,,,,,,,,,,,,,,,,,0,0,0,0,0,7,7,19,-0.39444444444444443,-0.3162037037037037,1,0,0,4.519316700003401,call4,0.002777777777777778,0.2810185185185185,1,0,0,5.130090799997561,colour1,0.38333333333333336,-0.08425925925925926,1,0,0,6.954832600000373,number3,True,True,False,5,5,2019_Nov_11_1103,MA_Theta_Exp,3.0.7,59.870559851085865,
video/Experiment/zh_sp07_Ti_Ro_3_NoThetaInAudio_NoVideo.avi,noTheta,noVideo,sp07,Ti,Ro,3,0,4,flow/blocks/NoThetaInAudio_NoVideo_B.csv,,,,,,,,,,,,,,,,,0,0,0,0,0,8,8,10,-0.3680555555555556,-0.10092592592592593,1,0,0,4.315506999999343,call3,0.02361111111111111,-0.08148148148148149,1,0,0,4.768484200001694,colour3,0.3958333333333333,-0.11342592592592593,1,0,0,5.532355299998017,number3,True,True,True,5,5,2019_Nov_11_1103,MA_Theta_Exp,3.0.7,59.870559851085865,
video/Experiment/zh_sp01_Un_Ge_3_NoThetaInAudio_NoVideo.avi,noTheta,noVideo,sp01,Un,Ge,3,0,4,flow/blocks/NoThetaInAudio_NoVideo_B.csv,,,,,,,,,,,,,,,,,0,0,0,0,0,9,9,18,-0.4527777777777778,-0.34675925925925927,1,0,0,4.852046499996504,call4,-0.016666666666666666,0.31851851851851853,1,0,0,5.523646399997233,colour1,0.40555555555555556,-0.10925925925925926,1,0,0,6.6796366999988095,number3,True,True,True,5,5,2019_Nov_11_1103,MA_Theta_Exp,3.0.7,59.870559851085865,
video/Experiment/zh_sp01_Ti_Ge_4_NoThetaInAudio_NoVideo.avi,noTheta,noVideo,sp01,Ti,Ge,4,0,4,flow/blocks/NoThetaInAudio_NoVideo_B.csv,,,,,,,,,,,,,,,,,0,0,0,0,0,10,10,3,-0.4097222222222222,-0.11342592592592593,1,0,0,4.885411199997179,call3,-0.004166666666666667,0.3421296296296296,1,0,0,5.431022700002359,colour1,0.4166666666666667,-0.3189814814814815,1,0,0,6.777193999994779,number4,True,True,True,5,5,2019_Nov_11_1103,MA_Theta_Exp,3.0.7,59.870559851085865,
video/Experiment/zh_sp07_Un_Gr_4_NoThetaInAudio_NoVideo.avi,noTheta,noVideo,sp07,Un,Gr,4,0,4,flow/blocks/NoThetaInAudio_NoVideo_B.csv,,,,,,,,,,,,,,,,,0,0,0,0,0,11,11,23,-0.3638888888888889,-0.32592592592592595,1,0,0,4.554223400002229,call4,-0.0125,0.0699074074074074,1,0,0,4.973624099999142,colour2,0.39861111111111114,-0.10092592592592593,1,0,0,6.171593099999882,number3,True,True,False,5,5,2019_Nov_11_1103,MA_Theta_Exp,3.0.7,59.870559851085865,
video/Experiment/zh_sp01_Ti_Ro_4_NoThetaInAudio_NoVideo.avi,noTheta,noVideo,sp01,Ti,Ro,4,0,4,flow/blocks/NoThetaInAudio_NoVideo_B.csv,,,,,,,,,,,,,,,,,0,0,0,0,0,12,12,11,-0.3680555555555556,-0.11898148148148148,1,0,0,4.81577549999929,call3,-0.005555555555555556,-0.11203703703703703,1,0,0,5.147629200000665,colour3,0.39305555555555555,-0.30092592592592593,1,0,0,6.133912999997847,number4,True,True,True,5,5,2019_Nov_11_1103,MA_Theta_Exp,3.0.7,59.870559851085865,
video/Experiment/zh_sp07_Un_Gr_2_NoThetaInAudio_NoVideo.avi,noTheta,noVideo,sp07,Un,Gr,2,0,4,flow/blocks/NoThetaInAudio_NoVideo_B.csv,,,,,,,,,,,,,,,,,0,0,0,0,0,13,13,21,-0.38472222222222224,-0.3148148148148148,1,0,0,4.4982337999972515,call4,0.011111111111111112,0.09768518518518518,1,0,0,5.035724200002733,colour2,0.3861111111111111,0.09351851851851851,1,0,0,6.426828299998306,number2,True,True,True,5,5,2019_Nov_11_1103,MA_Theta_Exp,3.0.7,59.870559851085865,
video/Experiment/zh_sp07_Ti_We_2_NoThetaInAudio_NoVideo.avi,noTheta,noVideo,sp07,Ti,We,2,0,4,flow/blocks/NoThetaInAudio_NoVideo_B.csv,,,,,,,,,,,,,,,,,0,0,0,0,0,14,14,13,-0.4013888888888889,-0.1175925925925926,1,0,0,4.47757350000029,call3,-0.030555555555555555,0.047685185185185185,1,0,0,4.930690199995297,colour2,0.40694444444444444,0.11018518518518519,1,0,0,6.077616299997317,number2,True,False,True,5,5,2019_Nov_11_1103,MA_Theta_Exp,3.0.7,59.870559851085865,
video/Experiment/zh_sp07_Un_Ge_2_NoThetaInAudio_NoVideo.avi,noTheta,noVideo,sp07,Un,Ge,2,0,4,flow/blocks/NoThetaInAudio_NoVideo_B.csv,,,,,,,,,,,,,,,,,0,0,0,0,0,15,15,17,-0.4361111111111111,-0.30648148148148147,1,0,0,4.257123399998818,call4,-0.05138888888888889,0.2740740740740741,1,0,0,4.914100499998312,colour1,0.3972222222222222,0.10324074074074074,1,0,0,6.009081900003366,number2,True,True,True,5,5,2019_Nov_11_1103,MA_Theta_Exp,3.0.7,59.870559851085865,
video/Experiment/zh_sp01_Ti_Gr_3_NoThetaInAudio_NoVideo.avi,noTheta,noVideo,sp01,Ti,Gr,3,0,4,flow/blocks/NoThetaInAudio_NoVideo_B.csv,,,,,,,,,,,,,,,,,0,0,0,0,0,16,16,6,-0.4013888888888889,-0.13287037037037036,1,0,0,4.883035300001211,call3,0.041666666666666664,0.07546296296296297,1,0,0,5.279228000006697,colour2,0.3958333333333333,-0.11898148148148148,1,0,0,6.292837799999688,number3,True,True,True,5,5,2019_Nov_11_1103,MA_Theta_Exp,3.0.7,59.870559851085865,
video/Experiment/zh_sp07_Un_Gr_3_NoThetaInAudio_NoVideo.avi,noTheta,noVideo,sp07,Un,Gr,3,0,4,flow/blocks/NoThetaInAudio_NoVideo_B.csv,,,,,,,,,,,,,,,,,0,0,0,0,0,17,17,22,-0.3861111111111111,-0.3453703703703704,1,0,0,4.146581599998171,call4,-0.030555555555555555,0.06296296296296296,1,0,0,4.7642383000056725,colour2,0.3888888888888889,-0.1050925925925926,1,0,0,5.598635399997875,number3,True,True,True,5,5,2019_Nov_11_1103,MA_Theta_Exp,3.0.7,59.870559851085865,
video/Experiment/zh_sp07_Un_Gr_1_NoThetaInAudio_NoVideo.avi,noTheta,noVideo,sp07,Un,Gr,1,0,4,flow/blocks/NoThetaInAudio_NoVideo_B.csv,,,,,,,,,,,,,,,,,0,0,0,0,0,18,18,20,-0.3902777777777778,-0.30787037037037035,1,0,0,4.7435763999965275,call4,0.043055555555555555,0.09351851851851851,1,0,0,5.345031100005144,colour2,0.40555555555555556,0.29074074074074074,1,0,0,6.33875529999932,number1,True,True,True,5,5,2019_Nov_11_1103,MA_Theta_Exp,3.0.7,59.870559851085865,
video/Experiment/zh_sp07_Un_Ro_1_NoThetaInAudio_NoVideo.avi,noTheta,noVideo,sp07,Un,Ro,1,0,4,flow/blocks/NoThetaInAudio_NoVideo_B.csv,,,,,,,,,,,,,,,,,0,0,0,0,0,19,19,24,-0.34305555555555556,-0.31203703703703706,1,0,0,4.3425731000024825,call4,0.041666666666666664,-0.09675925925925925,1,0,0,4.7505744000009145,colour3,0.37777777777777777,0.3226851851851852,1,0,0,5.412621399998898,number1,True,True,True,5,5,2019_Nov_11_1103,MA_Theta_Exp,3.0.7,59.870559851085865,
video/Experiment/zh_sp07_Ti_We_4_NoThetaInAudio_NoVideo.avi,noTheta,noVideo,sp07,Ti,We,4,0,4,flow/blocks/NoThetaInAudio_NoVideo_B.csv,,,,,,,,,,,,,,,,,0,0,0,0,0,20,20,15,-0.37222222222222223,-0.1287037037037037,1,0,0,4.678326399996877,call3,0.022222222222222223,-0.3189814814814815,1,0,0,5.205578500004776,colour4,0.39444444444444443,-0.30648148148148147,1,0,0,6.883618400002888,number4,True,True,True,5,5,2019_Nov_11_1103,MA_Theta_Exp,3.0.7,59.870559851085865,
video/Experiment/zh_sp01_Ti_We_3_NoThetaInAudio_NoVideo.avi,noTheta,noVideo,sp01,Ti,We,3,0,4,flow/blocks/NoThetaInAudio_NoVideo_B.csv,,,,,,,,,,,,,,,,,0,0,0,0,0,21,21,14,-0.3902777777777778,-0.08703703703703704,1,0,0,5.169793300003221,call3,0.013888888888888888,-0.31203703703703706,1,0,0,5.910288300001412,colour4,0.4027777777777778,-0.09398148148148149,1,0,0,6.697525199997472,number3,True,True,True,5,5,2019_Nov_11_1103,MA_Theta_Exp,3.0.7,59.870559851085865,
video/Experiment/zh_sp01_Un_Ro_4_NoThetaInAudio_NoVideo.avi,noTheta,noVideo,sp01,Un,Ro,4,0,4,flow/blocks/NoThetaInAudio_NoVideo_B.csv,,,,,,,,,,,,,,,,,0,0,0,0,0,22,22,27,-0.3958333333333333,-0.3425925925925926,1,0,0,4.927488599998469,call4,-0.03888888888888889,-0.15092592592592594,1,0,0,5.292999899997085,colour3,0.4013888888888889,-0.32037037037037036,1,0,0,6.279414700002235,number4,True,True,True,5,5,2019_Nov_11_1103,MA_Theta_Exp,3.0.7,59.870559851085865,
video/Experiment/zh_sp07_Ti_Gr_2_NoThetaInAudio_NoVideo.avi,noTheta,noVideo,sp07,Ti,Gr,2,0,4,flow/blocks/NoThetaInAudio_NoVideo_B.csv,,,,,,,,,,,,,,,,,0,0,0,0,0,23,23,5,-0.35694444444444445,-0.11898148148148148,1,0,0,4.384928100000252,call3,0.001388888888888889,0.11296296296296296,1,0,0,4.714463299998897,colour2,0.4111111111111111,0.07962962962962963,1,0,0,5.477948600004311,number2,True,True,True,5,5,2019_Nov_11_1103,MA_Theta_Exp,3.0.7,59.870559851085865,
video/Experiment/zh_sp01_Ti_Ge_3_NoThetaInAudio_NoVideo.avi,noTheta,noVideo,sp01,Ti,Ge,3,0,4,flow/blocks/NoThetaInAudio_NoVideo_B.csv,,,,,,,,,,,,,,,,,0,0,0,0,0,24,24,2,-0.3972222222222222,-0.13842592592592592,1,0,0,4.903198200001498,call3,-0.03888888888888889,0.3351851851851852,1,0,0,5.592036299996835,colour1,0.4111111111111111,-0.09814814814814815,1,0,0,6.502682600003027,number3,True,True,True,5,5,2019_Nov_11_1103,MA_Theta_Exp,3.0.7,59.870559851085865,
video/Experiment/zh_sp01_Ti_Ro_2_NoThetaInAudio_NoVideo.avi,noTheta,noVideo,sp01,Ti,Ro,2,0,4,flow/blocks/NoThetaInAudio_NoVideo_B.csv,,,,,,,,,,,,,,,,,0,0,0,0,0,25,25,9,-0.3819444444444444,-0.10231481481481482,1,0,0,4.929443300003186,call3,-0.03333333333333333,-0.052314814814814814,1,0,0,5.2988489999988815,colour3,0.3958333333333333,0.12407407407407407,1,0,0,6.2568066000021645,number2,True,True,True,5,5,2019_Nov_11_1103,MA_Theta_Exp,3.0.7,59.870559851085865,
video/Experiment/zh_sp07_Un_We_1_NoThetaInAudio_NoVideo.avi,noTheta,noVideo,sp07,Un,We,1,0,4,flow/blocks/NoThetaInAudio_NoVideo_B.csv,,,,,,,,,,,,,,,,,0,0,0,0,0,26,26,28,-0.36944444444444446,-0.3300925925925926,1,0,0,5.201261700000032,call4,0.022222222222222223,0.11435185185185186,1,0,0,6.749341100003221,colour2,0.4125,0.30185185185185187,1,0,0,7.931739899999229,number1,True,False,True,5,5,2019_Nov_11_1103,MA_Theta_Exp,3.0.7,59.870559851085865,
video/Experiment/zh_sp01_Un_Ge_1_NoThetaInAudio_NoVideo.avi,noTheta,noVideo,sp01,Un,Ge,1,0,4,flow/blocks/NoThetaInAudio_NoVideo_B.csv,,,,,,,,,,,,,,,,,0,0,0,0,0,27,27,16,-0.39861111111111114,-0.36898148148148147,1,0,0,5.232516600000963,call4,0.018055555555555554,0.2712962962962963,1,0,0,6.18372279999312,colour1,0.4125,0.31574074074074077,1,0,0,6.808077699999558,number1,True,True,True,5,5,2019_Nov_11_1103,MA_Theta_Exp,3.0.7,59.870559851085865,
video/Experiment/zh_sp07_Un_Ro_3_NoThetaInAudio_NoVideo.avi,noTheta,noVideo,sp07,Un,Ro,3,0,4,flow/blocks/NoThetaInAudio_NoVideo_B.csv,,,,,,,,,,,,,,,,,0,0,0,0,0,28,28,26,-0.38055555555555554,-0.3439814814814815,1,0,0,4.566700999996101,call4,-0.06111111111111111,-0.14953703703703702,1,0,0,4.9552720000065165,colour3,0.39305555555555555,-0.09259259259259259,1,0,0,6.756219400005648,number3,True,True,True,5,5,2019_Nov_11_1103,MA_Theta_Exp,3.0.7,59.870559851085865,
video/Experiment/zh_sp07_Un_We_3_NoThetaInAudio_NoVideo.avi,noTheta,noVideo,sp07,Un,We,3,0,4,flow/blocks/NoThetaInAudio_NoVideo_B.csv,,,,,,,,,,,,,,,,,0,0,0,0,0,29,29,30,-0.35138888888888886,-0.38425925925925924,1,0,0,4.154779599994072,call4,0.011111111111111112,-0.27175925925925926,1,0,0,4.507682000003115,colour4,0.3527777777777778,-0.08703703703703704,1,0,0,5.185785699999542,number3,True,True,True,5,5,2019_Nov_11_1103,MA_Theta_Exp,3.0.7,59.870559851085865,
video/Experiment/zh_sp07_Ti_Gr_4_NoThetaInAudio_NoVideo.avi,noTheta,noVideo,sp07,Ti,Gr,4,0,4,flow/blocks/NoThetaInAudio_NoVideo_B.csv,,,,,,,,,,,,,,,,,0,0,0,0,0,30,30,7,-0.3638888888888889,-0.11342592592592593,1,0,0,4.905795499995293,call3,-0.016666666666666666,0.033796296296296297,1,0,0,5.2714938999997685,colour2,0.3875,-0.30925925925925923,1,0,0,6.467504600004759,number4,True,True,True,5,5,2019_Nov_11_1103,MA_Theta_Exp,3.0.7,59.870559851085865,
video/Experiment/zh_sp01_Ti_Gr_1_NoThetaInAudio_NoVideo.avi,noTheta,noVideo,sp01,Ti,Gr,1,0,4,flow/blocks/NoThetaInAudio_NoVideo_B.csv,,,,,,,,,,,,,,,,,0,0,0,0,0,31,31,4,-0.3680555555555556,-0.1037037037037037,1,0,0,5.137522500001069,call3,-0.020833333333333332,0.12129629629629629,1,0,0,5.698630099999718,colour2,0.4166666666666667,0.30462962962962964,1,0,0,6.786325399996713,number1,True,True,True,5,5,2019_Nov_11_1103,MA_Theta_Exp,3.0.7,59.870559851085865,
video/Experiment/zh_sp07_Un_Gr_4_GlobalTheta_NoVideo.avi,globalTheta,noVideo,sp07,Un,Gr,4,1,5,flow/blocks/GlobalTheta_NoVideo_B.csv,,,,,,,,,,,,,,,,,0,1,1,1,0,0,0,23,-0.39305555555555555,-0.31342592592592594,1,0,0,4.546352799996384,call4,0.005555555555555556,0.06851851851851852,1,0,0,5.435741699999198,colour2,0.3902777777777778,-0.12175925925925926,1,0,0,6.203933700002381,number3,True,True,False,5,5,2019_Nov_11_1103,MA_Theta_Exp,3.0.7,59.870559851085865,
video/Experiment/zh_sp01_Ti_Ro_2_GlobalTheta_NoVideo.avi,globalTheta,noVideo,sp01,Ti,Ro,2,1,5,flow/blocks/GlobalTheta_NoVideo_B.csv,,,,,,,,,,,,,,,,,0,1,1,1,0,1,1,9,-0.41388888888888886,-0.1037037037037037,1,0,0,4.987803999996686,call3,-0.04861111111111111,-0.09953703703703703,1,0,0,5.313975899996876,colour3,0.39305555555555555,0.10185185185185185,1,0,0,6.209515900001861,number2,True,True,True,5,5,2019_Nov_11_1103,MA_Theta_Exp,3.0.7,59.870559851085865,
video/Experiment/zh_sp07_Un_Ge_2_GlobalTheta_NoVideo.avi,globalTheta,noVideo,sp07,Un,Ge,2,1,5,flow/blocks/GlobalTheta_NoVideo_B.csv,,,,,,,,,,,,,,,,,0,1,1,1,0,2,2,17,-0.39861111111111114,-0.3050925925925926,1,0,0,4.055815800005803,call4,0.0375,0.3101851851851852,1,0,0,4.639961799999583,colour1,0.41388888888888886,0.07962962962962963,1,0,0,5.241324599999643,number2,True,True,True,5,5,2019_Nov_11_1103,MA_Theta_Exp,3.0.7,59.870559851085865,
video/Experiment/zh_sp07_Ti_We_2_GlobalTheta_NoVideo.avi,globalTheta,noVideo,sp07,Ti,We,2,1,5,flow/blocks/GlobalTheta_NoVideo_B.csv,,,,,,,,,,,,,,,,,0,1,1,1,0,3,3,13,-0.3611111111111111,-0.32592592592592595,1,0,0,4.871244900001329,call4,-0.008333333333333333,-0.30648148148148147,1,0,0,5.6044504000019515,colour4,0.38472222222222224,0.08796296296296297,1,0,0,7.122552000000724,number2,False,True,True,5,5,2019_Nov_11_1103,MA_Theta_Exp,3.0.7,59.870559851085865,
video/Experiment/zh_sp07_Ti_We_4_GlobalTheta_NoVideo.avi,globalTheta,noVideo,sp07,Ti,We,4,1,5,flow/blocks/GlobalTheta_NoVideo_B.csv,,,,,,,,,,,,,,,,,0,1,1,1,0,4,4,15,-0.3888888888888889,-0.11203703703703703,1,0,0,4.501364899995679,call3,-0.006944444444444444,-0.3189814814814815,1,0,0,5.071827100000519,colour4,0.4097222222222222,-0.09814814814814815,1,0,0,5.813199399999576,number3,True,True,False,5,5,2019_Nov_11_1103,MA_Theta_Exp,3.0.7,59.870559851085865,
video/Experiment/zh_sp07_Un_Ge_4_GlobalTheta_NoVideo.avi,globalTheta,noVideo,sp07,Un,Ge,4,1,5,flow/blocks/GlobalTheta_NoVideo_B.csv,,,,,,,,,,,,,,,,,0,1,1,1,0,5,5,19,-0.38333333333333336,-0.33287037037037037,1,0,0,4.164095500003896,call4,0.058333333333333334,0.30185185185185187,1,0,0,4.674204799994186,colour1,0.4,-0.09814814814814815,1,0,0,5.762475099996664,number3,True,True,False,5,5,2019_Nov_11_1103,MA_Theta_Exp,3.0.7,59.870559851085865,
video/Experiment/zh_sp07_Ti_Gr_1_GlobalTheta_NoVideo.avi,globalTheta,noVideo,sp07,Ti,Gr,1,1,5,flow/blocks/GlobalTheta_NoVideo_B.csv,,,,,,,,,,,,,,,,,0,1,1,1,0,6,6,4,-0.4236111111111111,-0.12453703703703704,1,0,0,4.061292799997318,call3,-0.002777777777777778,0.07407407407407407,1,0,0,4.474423300001945,colour2,0.36944444444444446,0.2740740740740741,1,0,0,4.893798699995386,number1,True,True,True,5,5,2019_Nov_11_1103,MA_Theta_Exp,3.0.7,59.870559851085865,
video/Experiment/zh_sp01_Un_Gr_1_GlobalTheta_NoVideo.avi,globalTheta,noVideo,sp01,Un,Gr,1,1,5,flow/blocks/GlobalTheta_NoVideo_B.csv,,,,,,,,,,,,,,,,,0,1,1,1,0,7,7,20,-0.39305555555555555,-0.31203703703703706,1,0,0,5.0550153000003775,call4,-0.009722222222222222,0.07962962962962963,1,0,0,5.558268400003726,colour2,0.39305555555555555,0.32407407407407407,1,0,0,6.208991300001799,number1,True,True,True,5,5,2019_Nov_11_1103,MA_Theta_Exp,3.0.7,59.870559851085865,
video/Experiment/zh_sp01_Ti_Ro_1_GlobalTheta_NoVideo.avi,globalTheta,noVideo,sp01,Ti,Ro,1,1,5,flow/blocks/GlobalTheta_NoVideo_B.csv,,,,,,,,,,,,,,,,,0,1,1,1,0,8,8,8,-0.3902777777777778,-0.13287037037037036,1,0,0,4.933913799999573,call3,-0.05555555555555555,-0.06759259259259259,1,0,0,5.297959000003175,colour3,0.3680555555555556,0.2935185185185185,1,0,0,6.331481300003361,number1,True,True,True,5,5,2019_Nov_11_1103,MA_Theta_Exp,3.0.7,59.870559851085865,
video/Experiment/zh_sp07_Ti_Ge_4_GlobalTheta_NoVideo.avi,globalTheta,noVideo,sp07,Ti,Ge,4,1,5,flow/blocks/GlobalTheta_NoVideo_B.csv,,,,,,,,,,,,,,,,,0,1,1,1,0,9,9,3,-0.3972222222222222,-0.09398148148148149,1,0,0,4.170727600001555,call3,0.03333333333333333,0.33935185185185185,1,0,0,4.611928699996497,colour1,0.4097222222222222,-0.324537037037037,1,0,0,5.7257317999974475,number4,True,True,True,5,5,2019_Nov_11_1103,MA_Theta_Exp,3.0.7,59.870559851085865,
video/Experiment/zh_sp07_Un_We_1_GlobalTheta_NoVideo.avi,globalTheta,noVideo,sp07,Un,We,1,1,5,flow/blocks/GlobalTheta_NoVideo_B.csv,,,,,,,,,,,,,,,,,0,1,1,1,0,10,10,28,-0.4013888888888889,-0.30648148148148147,1,0,0,4.809353399999964,call4,-0.0625,-0.29259259259259257,1,0,0,5.276922000004561,colour4,0.4111111111111111,0.3060185185185185,1,0,0,6.663368200002878,number1,True,True,True,5,5,2019_Nov_11_1103,MA_Theta_Exp,3.0.7,59.870559851085865,
video/Experiment/zh_sp07_Ti_Gr_4_GlobalTheta_NoVideo.avi,globalTheta,noVideo,sp07,Ti,Gr,4,1,5,flow/blocks/GlobalTheta_NoVideo_B.csv,,,,,,,,,,,,,,,,,0,1,1,1,0,11,11,7,-0.39861111111111114,-0.07592592592592592,1,0,0,4.882747399999062,call3,0.002777777777777778,0.10601851851851851,1,0,0,5.677081299996644,colour2,0.40555555555555556,-0.3189814814814815,1,0,0,7.599983000000066,number4,True,True,True,5,5,2019_Nov_11_1103,MA_Theta_Exp,3.0.7,59.870559851085865,
video/Experiment/zh_sp01_Un_Ro_3_GlobalTheta_NoVideo.avi,globalTheta,noVideo,sp01,Un,Ro,3,1,5,flow/blocks/GlobalTheta_NoVideo_B.csv,,,,,,,,,,,,,,,,,0,1,1,1,0,12,12,26,-0.4041666666666667,-0.3453703703703704,1,0,0,5.437891300003685,call4,-0.002777777777777778,0.08935185185185185,1,0,0,6.185947199999646,colour2,0.4013888888888889,-0.12175925925925926,1,0,0,7.606347399996594,number3,True,False,True,5,5,2019_Nov_11_1103,MA_Theta_Exp,3.0.7,59.870559851085865,
video/Experiment/zh_sp07_Ti_Ge_1_GlobalTheta_NoVideo.avi,globalTheta,noVideo,sp07,Ti,Ge,1,1,5,flow/blocks/GlobalTheta_NoVideo_B.csv,,,,,,,,,,,,,,,,,0,1,1,1,0,13,13,0,-0.41388888888888886,-0.09537037037037037,1,0,0,4.379910900002869,call3,0.005555555555555556,0.2824074074074074,1,0,0,4.882994500003406,colour1,0.4013888888888889,0.3060185185185185,1,0,0,6.2133313000013,number1,True,True,True,5,5,2019_Nov_11_1103,MA_Theta_Exp,3.0.7,59.870559851085865,
video/Experiment/zh_sp01_Ti_Gr_3_GlobalTheta_NoVideo.avi,globalTheta,noVideo,sp01,Ti,Gr,3,1,5,flow/blocks/GlobalTheta_NoVideo_B.csv,,,,,,,,,,,,,,,,,0,1,1,1,0,14,14,6,-0.44305555555555554,-0.13564814814814816,1,0,0,4.657773000006273,call3,-0.05416666666666667,0.0837962962962963,1,0,0,5.080180000004475,colour2,0.4125,-0.08425925925925926,1,0,0,5.648477399998228,number3,True,True,True,5,5,2019_Nov_11_1103,MA_Theta_Exp,3.0.7,59.870559851085865,
