videoFile,condition,video,speaker,callSign,colour,number,seq,id,block,exp.thisRepN,exp.thisTrialN,exp.thisN,exp.thisIndex,training.thisRepN,training.thisTrialN,training.thisN,training.thisIndex,firstHalf.thisRepN,firstHalf.thisTrialN,firstHalf.thisN,firstHalf.thisIndex,blocksA.thisRepN,blocksA.thisTrialN,blocksA.thisN,blocksA.thisIndex,mouseClickOnCall.x,mouseClickOnCall.y,mouseClickOnCall.leftButton,mouseClickOnCall.midButton,mouseClickOnCall.rightButton,mouseClickOnCall.time,mouseClickOnCall.clicked_name,mouseClickOnColour.x,mouseClickOnColour.y,mouseClickOnColour.leftButton,mouseClickOnColour.midButton,mouseClickOnColour.rightButton,mouseClickOnColour.time,mouseClickOnColour.clicked_name,mouseClickOnNumber.x,mouseClickOnNumber.y,mouseClickOnNumber.leftButton,mouseClickOnNumber.midButton,mouseClickOnNumber.rightButton,mouseClickOnNumber.time,mouseClickOnNumber.clicked_name,callSignCorrect,colourCorrect,numberCorrect,participant,order,date,expName,psychopyVersion,frameRate,
video/Training/zh_sp01_Ad_We_4_NVocInAudio_NoVideo.avi,vocoded,noVideo,sp01,Ad,We,4,,,,,,,,0,0,0,0,,,,,,,,,-0.35324074074074074,0.3060185185185185,1,0,0,6.12095330000011,call1,-0.010185185185185186,-0.324537037037037,1,0,0,7.188620799999626,colour4,0.449537037037037,-0.30787037037037035,1,0,0,7.820010199997341,number4,True,True,True,5,5,2019_Nov_11_1103,MA_Theta_Exp,3.0.7,59.870559851085865,
video/Training/zh_sp07_Ad_Ge_3_NVocInAudio_NoVideo.avi,vocoded,noVideo,sp07,Ad,Ge,3,,,,,,,,0,1,1,1,,,,,,,,,-0.37962962962962965,0.2935185185185185,1,0,0,4.667974600000889,call1,0.08148148148148149,0.31574074074074077,1,0,0,5.37521270000434,colour1,0.4203703703703704,-0.11064814814814815,1,0,0,6.3694015000000945,number3,True,True,True,5,5,2019_Nov_11_1103,MA_Theta_Exp,3.0.7,59.870559851085865,
video/Training/zh_sp01_Dr_Ro_3_NVocInAudio_GlobalThetaInVideo.avi,vocoded,plusVideo,sp01,Dr,Ro,3,,,,,,,,0,2,2,2,,,,,,,,,-0.38101851851851853,0.0837962962962963,1,0,0,6.208933000001707,call2,0.01898148148148148,-0.1162037037037037,1,0,0,8.606396800001676,colour3,0.4078703703703704,-0.0912037037037037,1,0,0,9.447289600000659,number3,True,True,True,5,5,2019_Nov_11_1103,MA_Theta_Exp,3.0.7,59.870559851085865,
video/Training/zh_sp07_Dr_Gr_4_NVocInAudio_GlobalThetaInVideo.avi,vocoded,plusVideo,sp07,Dr,Gr,4,,,,,,,,0,3,3,3,,,,,,,,,-0.38101851851851853,0.08518518518518518,1,0,0,4.862619599996833,call2,-0.05324074074074074,0.11574074074074074,1,0,0,5.50711460000457,colour2,0.4078703703703704,-0.30092592592592593,1,0,0,6.338035200002196,number4,True,True,True,5,5,2019_Nov_11_1103,MA_Theta_Exp,3.0.7,59.870559851085865,
video/Training/zh_sp01_Ti_Gr_2_NoThetaInAudio_NoVideo.avi,noTheta,noVideo,sp01,Ti,Gr,2,,,,,,,,0,4,4,4,,,,,,,,,-0.3976851851851852,0.28935185185185186,1,0,0,7.662013400004071,call1,-0.047685185185185185,0.11157407407407408,1,0,0,8.322464900003979,colour2,0.38981481481481484,0.1087962962962963,1,0,0,9.132542999999714,number2,False,True,True,5,5,2019_Nov_11_1103,MA_Theta_Exp,3.0.7,59.870559851085865,
video/Training/zh_sp07_Ti_Ro_1_NoThetaInAudio_NoVideo.avi,noTheta,noVideo,sp07,Ti,Ro,1,,,,,,,,0,5,5,5,,,,,,,,,-0.42962962962962964,-0.1037037037037037,1,0,0,4.688007700002345,call3,-0.02546296296296296,-0.08425925925925926,1,0,0,5.3340078000037465,colour3,0.35509259259259257,0.33101851851851855,1,0,0,6.037385199997516,number1,True,True,True,5,5,2019_Nov_11_1103,MA_Theta_Exp,3.0.7,59.870559851085865,
video/Training/zh_sp01_Un_Ge_1_NoThetaInAudio_GlobalThetaInVideo.avi,noTheta,plusVideo,sp01,Un,Ge,1,,,,,,,,0,6,6,6,,,,,,,,,-0.3768518518518518,0.1449074074074074,1,0,0,5.2476734000010765,call2,0.023148148148148147,0.300462962962963,1,0,0,6.045959100003529,colour1,0.39814814814814814,0.2962962962962963,1,0,0,7.45214329999726,number1,False,True,True,5,5,2019_Nov_11_1103,MA_Theta_Exp,3.0.7,59.870559851085865,
video/Training/zh_sp07_Un_We_2_NoThetaInAudio_GlobalThetaInVideo.avi,noTheta,plusVideo,sp07,Un,We,2,,,,,,,,0,7,7,7,,,,,,,,,-0.40046296296296297,-0.33287037037037037,1,0,0,5.010307500000636,call4,-0.01574074074074074,-0.28703703703703703,1,0,0,5.772415599996748,colour4,0.4023148148148148,0.10324074074074074,1,0,0,7.3523790999970515,number2,True,True,True,5,5,2019_Nov_11_1103,MA_Theta_Exp,3.0.7,59.870559851085865,
video/Training/zh_sp01_Ad_Ge_1_GlobalTheta_NoVideo.avi,globalTheta,noVideo,sp01,Ad,Ge,1,,,,,,,,0,8,8,8,,,,,,,,,-0.4351851851851852,0.29212962962962963,1,0,0,8.431499500002246,call1,-0.004629629629629629,0.26990740740740743,1,0,0,8.886829299997771,colour1,0.3939814814814815,0.27824074074074073,1,0,0,9.551519399996323,number1,True,True,True,5,5,2019_Nov_11_1103,MA_Theta_Exp,3.0.7,59.870559851085865,
video/Training/zh_sp07_Ad_Ro_3_GlobalTheta_NoVideo.avi,globalTheta,noVideo,sp07,Ad,Ro,3,,,,,,,,0,9,9,9,,,,,,,,,-0.39490740740740743,0.3212962962962963,1,0,0,5.871747900004266,call1,0.003703703703703704,0.10185185185185185,1,0,0,9.994026699998358,colour2,0.3800925925925926,-0.0787037037037037,1,0,0,11.00049990000116,number3,True,False,True,5,5,2019_Nov_11_1103,MA_Theta_Exp,3.0.7,59.870559851085865,
video/Experiment/zh_sp07_Dr_Gr_2_NoThetaInAudio_NoVideo.avi,noTheta,noVideo,sp07,Dr,Gr,2,0,4,flow/blocks/NoThetaInAudio_NoVideo_A.csv,,,,,,,,,0,0,0,0,0,0,0,21,-0.39351851851851855,0.10740740740740741,1,0,0,5.312222499997006,call2,0.06342592592592593,0.10324074074074074,1,0,0,5.8034631999980775,colour2,0.3814814814814815,0.10740740740740741,1,0,0,6.94969420000416,number2,True,True,True,5,5,2019_Nov_11_1103,MA_Theta_Exp,3.0.7,59.870559851085865,
video/Experiment/zh_sp07_Ad_Ro_2_NoThetaInAudio_NoVideo.avi,noTheta,noVideo,sp07,Ad,Ro,2,0,4,flow/blocks/NoThetaInAudio_NoVideo_A.csv,,,,,,,,,0,0,0,0,0,1,1,9,-0.40879629629629627,0.31157407407407406,1,0,0,4.5815029999939725,call1,-0.021296296296296296,-0.08842592592592592,1,0,0,5.317472999995516,colour3,0.38842592592592595,0.1087962962962963,1,0,0,6.548654800004442,number2,True,True,True,5,5,2019_Nov_11_1103,MA_Theta_Exp,3.0.7,59.870559851085865,
video/Experiment/zh_sp01_Ad_We_1_NoThetaInAudio_NoVideo.avi,noTheta,noVideo,sp01,Ad,We,1,0,4,flow/blocks/NoThetaInAudio_NoVideo_A.csv,,,,,,,,,0,0,0,0,0,2,2,12,-0.38657407407407407,0.29074074074074074,1,0,0,5.061267400000361,call1,-0.0032407407407407406,-0.3037037037037037,1,0,0,5.775821700000961,colour4,0.399537037037037,0.31157407407407406,1,0,0,7.140620999998646,number1,True,True,True,5,5,2019_Nov_11_1103,MA_Theta_Exp,3.0.7,59.870559851085865,
video/Experiment/zh_sp01_Dr_We_1_NoThetaInAudio_NoVideo.avi,noTheta,noVideo,sp01,Dr,We,1,0,4,flow/blocks/NoThetaInAudio_NoVideo_A.csv,,,,,,,,,0,0,0,0,0,3,3,28,-0.3990740740740741,0.12685185185185185,1,0,0,5.520657599998231,call2,0.013425925925925926,-0.29814814814814816,1,0,0,6.203576899999462,colour4,0.39537037037037037,0.33935185185185185,1,0,0,7.474033000005875,number1,True,True,True,5,5,2019_Nov_11_1103,MA_Theta_Exp,3.0.7,59.870559851085865,
video/Experiment/zh_sp01_Ad_We_2_NoThetaInAudio_NoVideo.avi,noTheta,noVideo,sp01,Ad,We,2,0,4,flow/blocks/NoThetaInAudio_NoVideo_A.csv,,,,,,,,,0,0,0,0,0,4,4,13,-0.3976851851851852,0.3060185185185185,1,0,0,5.160423000001174,call1,0.012037037037037037,-0.3175925925925926,1,0,0,5.832966500005568,colour4,0.41064814814814815,0.10740740740740741,1,0,0,6.906906500000332,number2,True,True,True,5,5,2019_Nov_11_1103,MA_Theta_Exp,3.0.7,59.870559851085865,
video/Experiment/zh_sp07_Ad_Ro_1_NoThetaInAudio_NoVideo.avi,noTheta,noVideo,sp07,Ad,Ro,1,0,4,flow/blocks/NoThetaInAudio_NoVideo_A.csv,,,,,,,,,0,0,0,0,0,5,5,8,-0.38796296296296295,0.30462962962962964,1,0,0,4.337369799999578,call1,0.027314814814814816,-0.07314814814814814,1,0,0,5.01385570000275,colour3,0.3814814814814815,0.2935185185185185,1,0,0,6.126813200004108,number1,True,True,True,5,5,2019_Nov_11_1103,MA_Theta_Exp,3.0.7,59.870559851085865,
video/Experiment/zh_sp01_Ad_Ro_4_NoThetaInAudio_NoVideo.avi,noTheta,noVideo,sp01,Ad,Ro,4,0,4,flow/blocks/NoThetaInAudio_NoVideo_A.csv,,,,,,,,,0,0,0,0,0,6,6,11,-0.45185185185185184,0.28379629629629627,1,0,0,5.236540799996874,call1,-0.032407407407407406,-0.11481481481481481,1,0,0,5.868932700002915,colour3,0.3787037037037037,-0.32314814814814813,1,0,0,7.33006849999947,number4,True,True,True,5,5,2019_Nov_11_1103,MA_Theta_Exp,3.0.7,59.870559851085865,
video/Experiment/zh_sp07_Dr_We_4_NoThetaInAudio_NoVideo.avi,noTheta,noVideo,sp07,Dr,We,4,0,4,flow/blocks/NoThetaInAudio_NoVideo_A.csv,,,,,,,,,0,0,0,0,0,7,7,31,-0.3990740740740741,0.11018518518518519,1,0,0,4.700373599996965,call2,0.023148148148148147,-0.32592592592592595,1,0,0,5.521061699997517,colour4,0.38564814814814813,-0.1050925925925926,1,0,0,7.725173300001188,number3,True,True,False,5,5,2019_Nov_11_1103,MA_Theta_Exp,3.0.7,59.870559851085865,
video/Experiment/zh_sp01_Ad_Ge_3_NoThetaInAudio_NoVideo.avi,noTheta,noVideo,sp01,Ad,Ge,3,0,4,flow/blocks/NoThetaInAudio_NoVideo_A.csv,,,,,,,,,0,0,0,0,0,8,8,2,-0.412962962962963,0.30324074074074076,1,0,0,4.782243499998003,call1,-0.05462962962962963,0.2796296296296296,1,0,0,5.20157990000007,colour1,0.3800925925925926,-0.09814814814814815,1,0,0,6.750842000001285,number3,True,True,True,5,5,2019_Nov_11_1103,MA_Theta_Exp,3.0.7,59.870559851085865,
video/Experiment/zh_sp01_Ad_We_4_NoThetaInAudio_NoVideo.avi,noTheta,noVideo,sp01,Ad,We,4,0,4,flow/blocks/NoThetaInAudio_NoVideo_A.csv,,,,,,,,,0,0,0,0,0,9,9,15,-0.4074074074074074,0.2962962962962963,1,0,0,4.890085400002135,call1,0.016203703703703703,-0.2953703703703704,1,0,0,5.526616200004355,colour4,0.4050925925925926,-0.30787037037037035,1,0,0,6.72875579999527,number4,True,True,True,5,5,2019_Nov_11_1103,MA_Theta_Exp,3.0.7,59.870559851085865,
video/Experiment/zh_sp01_Dr_Ro_3_NoThetaInAudio_NoVideo.avi,noTheta,noVideo,sp01,Dr,Ro,3,0,4,flow/blocks/NoThetaInAudio_NoVideo_A.csv,,,,,,,,,0,0,0,0,0,10,10,26,-0.4074074074074074,0.26851851851851855,1,0,0,8.511772199999541,call1,0.02175925925925926,-0.11342592592592593,1,0,0,9.208570100003271,colour3,0.4009259259259259,-0.10648148148148148,1,0,0,10.2584663000016,number3,False,True,True,5,5,2019_Nov_11_1103,MA_Theta_Exp,3.0.7,59.870559851085865,
video/Experiment/zh_sp07_Dr_Gr_1_NoThetaInAudio_NoVideo.avi,noTheta,noVideo,sp07,Dr,Gr,1,0,4,flow/blocks/NoThetaInAudio_NoVideo_A.csv,,,,,,,,,0,0,0,0,0,11,11,20,-0.38101851851851853,0.09768518518518518,1,0,0,4.50967039999523,call2,-0.001851851851851852,0.0962962962962963,1,0,0,5.004489200000535,colour2,0.3939814814814815,0.3087962962962963,1,0,0,6.025000399997225,number1,True,True,True,5,5,2019_Nov_11_1103,MA_Theta_Exp,3.0.7,59.870559851085865,
video/Experiment/zh_sp07_Dr_Ge_4_NoThetaInAudio_NoVideo.avi,noTheta,noVideo,sp07,Dr,Ge,4,0,4,flow/blocks/NoThetaInAudio_NoVideo_A.csv,,,,,,,,,0,0,0,0,0,12,12,19,-0.38935185185185184,0.09212962962962963,1,0,0,5.277465200000734,call2,-0.004629629629629629,0.28935185185185186,1,0,0,5.8376485999979195,colour1,0.4203703703703704,-0.3189814814814815,1,0,0,6.948874900001101,number4,True,True,True,5,5,2019_Nov_11_1103,MA_Theta_Exp,3.0.7,59.870559851085865,
video/Experiment/zh_sp01_Ad_Gr_3_NoThetaInAudio_NoVideo.avi,noTheta,noVideo,sp01,Ad,Gr,3,0,4,flow/blocks/NoThetaInAudio_NoVideo_A.csv,,,,,,,,,0,0,0,0,0,13,13,6,-0.39351851851851855,0.31157407407407406,1,0,0,4.994243400004052,call1,-0.018518518518518517,0.08935185185185185,1,0,0,5.56325900000229,colour2,0.3925925925925926,-0.09814814814814815,1,0,0,6.917139799996221,number3,True,True,True,5,5,2019_Nov_11_1103,MA_Theta_Exp,3.0.7,59.870559851085865,
video/Experiment/zh_sp01_Dr_We_3_NoThetaInAudio_NoVideo.avi,noTheta,noVideo,sp01,Dr,We,3,0,4,flow/blocks/NoThetaInAudio_NoVideo_A.csv,,,,,,,,,0,0,0,0,0,14,14,30,-0.412962962962963,0.0824074074074074,1,0,0,4.957259599999816,call2,0.023148148148148147,-0.3189814814814815,1,0,0,5.5952362999960314,colour4,0.41898148148148145,-0.08564814814814815,1,0,0,6.555797100001655,number3,True,True,True,5,5,2019_Nov_11_1103,MA_Theta_Exp,3.0.7,59.870559851085865,
video/Experiment/zh_sp01_Dr_Gr_4_NoThetaInAudio_NoVideo.avi,noTheta,noVideo,sp01,Dr,Gr,4,0,4,flow/blocks/NoThetaInAudio_NoVideo_A.csv,,,,,,,,,0,0,0,0,0,15,15,23,-0.3837962962962963,0.0962962962962963,1,0,0,6.105959400003485,call2,0.014814814814814815,0.08935185185185185,1,0,0,7.1446625999960816,colour2,0.4050925925925926,-0.31203703703703706,1,0,0,8.389732900002855,number4,True,True,True,5,5,2019_Nov_11_1103,MA_Theta_Exp,3.0.7,59.870559851085865,
video/Experiment/zh_sp07_Dr_Gr_3_NoThetaInAudio_NoVideo.avi,noTheta,noVideo,sp07,Dr,Gr,3,0,4,flow/blocks/NoThetaInAudio_NoVideo_A.csv,,,,,,,,,0,0,0,0,0,16,16,22,-0.38657407407407407,0.3101851851851852,1,0,0,5.34235279999848,call1,0.055092592592592596,0.11157407407407408,1,0,0,5.760418400001072,colour2,0.4203703703703704,-0.12175925925925926,1,0,0,6.340915799999493,number3,False,True,True,5,5,2019_Nov_11_1103,MA_Theta_Exp,3.0.7,59.870559851085865,
video/Experiment/zh_sp01_Ad_We_3_NoThetaInAudio_NoVideo.avi,noTheta,noVideo,sp01,Ad,We,3,0,4,flow/blocks/NoThetaInAudio_NoVideo_A.csv,,,,,,,,,0,0,0,0,0,17,17,14,-0.3990740740740741,0.31712962962962965,1,0,0,4.955583700000716,call1,0.017592592592592594,-0.2814814814814815,1,0,0,5.625746600002458,colour4,0.38425925925925924,-0.11064814814814815,1,0,0,6.588424800000212,number3,True,True,True,5,5,2019_Nov_11_1103,MA_Theta_Exp,3.0.7,59.870559851085865,
video/Experiment/zh_sp01_Dr_Ge_3_NoThetaInAudio_NoVideo.avi,noTheta,noVideo,sp01,Dr,Ge,3,0,4,flow/blocks/NoThetaInAudio_NoVideo_A.csv,,,,,,,,,0,0,0,0,0,18,18,18,-0.38796296296296295,0.07546296296296297,1,0,0,5.016638499997498,call2,-0.010185185185185186,0.3143518518518518,1,0,0,5.615402299998095,colour1,0.3773148148148148,-0.1050925925925926,1,0,0,6.296422399995208,number3,True,True,True,5,5,2019_Nov_11_1103,MA_Theta_Exp,3.0.7,59.870559851085865,
video/Experiment/zh_sp07_Ad_Ge_1_NoThetaInAudio_NoVideo.avi,noTheta,noVideo,sp07,Ad,Ge,1,0,4,flow/blocks/NoThetaInAudio_NoVideo_A.csv,,,,,,,,,0,0,0,0,0,19,19,0,-0.36157407407407405,0.3074074074074074,1,0,0,4.2793235999997705,call1,0.013425925925925926,0.29907407407407405,1,0,0,4.764792699999816,colour1,0.43287037037037035,0.33935185185185185,1,0,0,5.296985100001621,number1,True,True,True,5,5,2019_Nov_11_1103,MA_Theta_Exp,3.0.7,59.870559851085865,
video/Experiment/zh_sp07_Dr_Ge_1_NoThetaInAudio_NoVideo.avi,noTheta,noVideo,sp07,Dr,Ge,1,0,4,flow/blocks/NoThetaInAudio_NoVideo_A.csv,,,,,,,,,0,0,0,0,0,20,20,16,-0.39490740740740743,-0.32731481481481484,1,0,0,4.472557100001723,call4,0.01898148148148148,0.3212962962962963,1,0,0,5.2396856999985175,colour1,0.4078703703703704,0.3212962962962963,1,0,0,6.591831400000956,number1,False,True,True,5,5,2019_Nov_11_1103,MA_Theta_Exp,3.0.7,59.870559851085865,
video/Experiment/zh_sp07_Ad_Gr_1_NoThetaInAudio_NoVideo.avi,noTheta,noVideo,sp07,Ad,Gr,1,0,4,flow/blocks/NoThetaInAudio_NoVideo_A.csv,,,,,,,,,0,0,0,0,0,21,21,4,-0.3365740740740741,0.300462962962963,1,0,0,4.426743299998634,call1,0.04259259259259259,0.09074074074074075,1,0,0,5.074752600005013,colour2,0.4050925925925926,0.32407407407407407,1,0,0,6.269616700003098,number1,True,True,True,5,5,2019_Nov_11_1103,MA_Theta_Exp,3.0.7,59.870559851085865,
video/Experiment/zh_sp01_Ad_Ro_3_NoThetaInAudio_NoVideo.avi,noTheta,noVideo,sp01,Ad,Ro,3,0,4,flow/blocks/NoThetaInAudio_NoVideo_A.csv,,,,,,,,,0,0,0,0,0,22,22,10,-0.3587962962962963,0.30324074074074076,1,0,0,5.206559599995671,call1,0.016203703703703703,-0.09814814814814815,1,0,0,5.910986300004879,colour3,0.38287037037037036,-0.10092592592592593,1,0,0,6.746271299998625,number3,True,True,True,5,5,2019_Nov_11_1103,MA_Theta_Exp,3.0.7,59.870559851085865,
video/Experiment/zh_sp01_Dr_Ro_2_NoThetaInAudio_NoVideo.avi,noTheta,noVideo,sp01,Dr,Ro,2,0,4,flow/blocks/NoThetaInAudio_NoVideo_A.csv,,,,,,,,,0,0,0,0,0,23,23,25,-0.36574074074074076,0.0699074074074074,1,0,0,5.310039700001653,call2,0.03287037037037037,-0.13148148148148148,1,0,0,5.781328299999586,colour3,0.387037037037037,0.12407407407407407,1,0,0,6.470850399993651,number2,True,True,True,5,5,2019_Nov_11_1103,MA_Theta_Exp,3.0.7,59.870559851085865,
video/Experiment/zh_sp07_Ad_Ge_4_NoThetaInAudio_NoVideo.avi,noTheta,noVideo,sp07,Ad,Ge,4,0,4,flow/blocks/NoThetaInAudio_NoVideo_A.csv,,,,,,,,,0,0,0,0,0,24,24,3,-0.35185185185185186,0.2865740740740741,1,0,0,4.501534100003482,call1,0.055092592592592596,0.31157407407407406,1,0,0,5.02753980000125,colour1,0.40370370370370373,-0.30787037037037035,1,0,0,5.820737300004112,number4,True,True,True,5,5,2019_Nov_11_1103,MA_Theta_Exp,3.0.7,59.870559851085865,
video/Experiment/zh_sp01_Dr_Ro_4_NoThetaInAudio_NoVideo.avi,noTheta,noVideo,sp01,Dr,Ro,4,0,4,flow/blocks/NoThetaInAudio_NoVideo_A.csv,,,,,,,,,0,0,0,0,0,25,25,27,-0.4046296296296296,0.11296296296296296,1,0,0,4.823963800001366,call2,-0.06435185185185185,-0.09537037037037037,1,0,0,5.293087199999718,colour3,0.43703703703703706,-0.30787037037037035,1,0,0,5.920984000003955,number4,True,True,True,5,5,2019_Nov_11_1103,MA_Theta_Exp,3.0.7,59.870559851085865,
video/Experiment/zh_sp07_Ad_Ge_2_NoThetaInAudio_NoVideo.avi,noTheta,noVideo,sp07,Ad,Ge,2,0,4,flow/blocks/NoThetaInAudio_NoVideo_A.csv,,,,,,,,,0,0,0,0,0,26,26,1,-0.4101851851851852,0.30324074074074076,1,0,0,4.279036499996437,call1,0.014814814814814815,0.2740740740740741,1,0,0,4.997113600002194,colour1,0.3939814814814815,0.1087962962962963,1,0,0,6.256115699994552,number2,True,True,True,5,5,2019_Nov_11_1103,MA_Theta_Exp,3.0.7,59.870559851085865,
video/Experiment/zh_sp07_Ad_Gr_4_NoThetaInAudio_NoVideo.avi,noTheta,noVideo,sp07,Ad,Gr,4,0,4,flow/blocks/NoThetaInAudio_NoVideo_A.csv,,,,,,,,,0,0,0,0,0,27,27,7,-0.37962962962962965,0.2824074074074074,1,0,0,4.206000099999073,call1,-0.0032407407407407406,0.10462962962962963,1,0,0,4.617215999998734,colour2,0.4078703703703704,-0.3162037037037037,1,0,0,5.2716073999981745,number4,True,True,True,5,5,2019_Nov_11_1103,MA_Theta_Exp,3.0.7,59.870559851085865,
video/Experiment/zh_sp07_Dr_Ro_1_NoThetaInAudio_NoVideo.avi,noTheta,noVideo,sp07,Dr,Ro,1,0,4,flow/blocks/NoThetaInAudio_NoVideo_A.csv,,,,,,,,,0,0,0,0,0,28,28,24,-0.37824074074074077,0.15601851851851853,1,0,0,4.383085499997833,call2,0.012037037037037037,-0.0787037037037037,1,0,0,5.052152399999613,colour3,0.39537037037037037,0.30324074074074076,1,0,0,6.914833900002122,number1,True,True,True,5,5,2019_Nov_11_1103,MA_Theta_Exp,3.0.7,59.870559851085865,
video/Experiment/zh_sp01_Dr_We_2_NoThetaInAudio_NoVideo.avi,noTheta,noVideo,sp01,Dr,We,2,0,4,flow/blocks/NoThetaInAudio_NoVideo_A.csv,,,,,,,,,0,0,0,0,0,29,29,29,-0.3990740740740741,-0.29259259259259257,1,0,0,5.57786070000293,call4,-0.012962962962962963,-0.30787037037037035,1,0,0,6.034400399999868,colour4,0.41203703703703703,0.10601851851851851,1,0,0,7.914860099997895,number2,False,True,True,5,5,2019_Nov_11_1103,MA_Theta_Exp,3.0.7,59.870559851085865,
video/Experiment/zh_sp07_Ad_Gr_2_NoThetaInAudio_NoVideo.avi,noTheta,noVideo,sp07,Ad,Gr,2,0,4,flow/blocks/NoThetaInAudio_NoVideo_A.csv,,,,,,,,,0,0,0,0,0,30,30,5,-0.3824074074074074,0.30462962962962964,1,0,0,4.408291100000497,call1,-0.05185185185185185,0.12129629629629629,1,0,0,4.82715879999887,colour2,0.39814814814814814,0.11157407407407408,1,0,0,6.070390200002294,number2,True,True,True,5,5,2019_Nov_11_1103,MA_Theta_Exp,3.0.7,59.870559851085865,
video/Experiment/zh_sp07_Dr_Ge_2_NoThetaInAudio_NoVideo.avi,noTheta,noVideo,sp07,Dr,Ge,2,0,4,flow/blocks/NoThetaInAudio_NoVideo_A.csv,,,,,,,,,0,0,0,0,0,31,31,17,-0.3851851851851852,0.07546296296296297,1,0,0,4.59492969999701,call2,0.003703703703703704,0.33796296296296297,1,0,0,5.18953540000075,colour1,0.4023148148148148,0.11851851851851852,1,0,0,6.58872529999644,number2,True,True,True,5,5,2019_Nov_11_1103,MA_Theta_Exp,3.0.7,59.870559851085865,
