videoFile,condition,video,speaker,callSign,colour,number,seq,id,block,exp.thisRepN,exp.thisTrialN,exp.thisN,exp.thisIndex,training.thisRepN,training.thisTrialN,training.thisN,training.thisIndex,firstHalf.thisRepN,firstHalf.thisTrialN,firstHalf.thisN,firstHalf.thisIndex,blocksA.thisRepN,blocksA.thisTrialN,blocksA.thisN,blocksA.thisIndex,mouseClickOnCall.x,mouseClickOnCall.y,mouseClickOnCall.leftButton,mouseClickOnCall.midButton,mouseClickOnCall.rightButton,mouseClickOnCall.time,mouseClickOnCall.clicked_name,mouseClickOnColour.x,mouseClickOnColour.y,mouseClickOnColour.leftButton,mouseClickOnColour.midButton,mouseClickOnColour.rightButton,mouseClickOnColour.time,mouseClickOnColour.clicked_name,mouseClickOnNumber.x,mouseClickOnNumber.y,mouseClickOnNumber.leftButton,mouseClickOnNumber.midButton,mouseClickOnNumber.rightButton,mouseClickOnNumber.time,mouseClickOnNumber.clicked_name,callSignCorrect,colourCorrect,numberCorrect,participant,order,date,expName,psychopyVersion,frameRate,
video/Training/zh_sp01_Ad_We_4_NVocInAudio_NoVideo.avi,vocoded,noVideo,sp01,Ad,We,4,,,,,,,,0,0,0,0,,,,,,,,,-0.37546296296296294,0.29583333333333334,1,0,0,7.012706199995591,call1,0.04398148148148148,-0.2902777777777778,1,0,0,7.9481603000022005,colour4,0.4388888888888889,-0.3194444444444444,1,0,0,8.812552999996115,number4,True,True,True,7,2,2019_Nov_12_0901,MA_Theta_Exp,3.0.7,59.910086943855795,
video/Training/zh_sp07_Ad_Ge_3_NVocInAudio_NoVideo.avi,vocoded,noVideo,sp07,Ad,Ge,3,,,,,,,,0,1,1,1,,,,,,,,,-0.41435185185185186,0.3388888888888889,1,0,0,5.650180300013744,call1,0.038425925925925926,0.28888888888888886,1,0,0,6.652059599990025,colour1,0.4166666666666667,-0.1111111111111111,1,0,0,7.485625600005733,number3,True,True,True,7,2,2019_Nov_12_0901,MA_Theta_Exp,3.0.7,59.910086943855795,
video/Training/zh_sp01_Dr_Ro_3_NVocInAudio_GlobalThetaInVideo.avi,vocoded,plusVideo,sp01,Dr,Ro,3,,,,,,,,0,2,2,2,,,,,,,,,-0.40879629629629627,0.11666666666666667,1,0,0,7.021713100009947,call2,-0.007407407407407408,-0.07777777777777778,1,0,0,8.155052000001888,colour3,0.41203703703703703,-0.125,1,0,0,9.604690399995889,number3,True,True,True,7,2,2019_Nov_12_0901,MA_Theta_Exp,3.0.7,59.910086943855795,
video/Training/zh_sp07_Dr_Gr_4_NVocInAudio_GlobalThetaInVideo.avi,vocoded,plusVideo,sp07,Dr,Gr,4,,,,,,,,0,3,3,3,,,,,,,,,-0.40324074074074073,0.09583333333333334,1,0,0,5.702132799997344,call2,-0.014351851851851852,0.125,1,0,0,6.816043400001945,colour2,0.37453703703703706,-0.30277777777777776,1,0,0,7.863150200006203,number4,True,True,True,7,2,2019_Nov_12_0901,MA_Theta_Exp,3.0.7,59.910086943855795,
video/Training/zh_sp01_Ti_Gr_2_NoThetaInAudio_NoVideo.avi,noTheta,noVideo,sp01,Ti,Gr,2,,,,,,,,0,4,4,4,,,,,,,,,-0.41712962962962963,0.30277777777777776,1,0,0,7.504316699996707,call1,-0.02546296296296296,0.1125,1,0,0,8.436756700000842,colour2,0.3523148148148148,0.07083333333333333,1,0,0,8.986684300005436,number2,False,True,True,7,2,2019_Nov_12_0901,MA_Theta_Exp,3.0.7,59.910086943855795,
video/Training/zh_sp07_Ti_Ro_1_NoThetaInAudio_NoVideo.avi,noTheta,noVideo,sp07,Ti,Ro,1,,,,,,,,0,5,5,5,,,,,,,,,-0.3907407407407407,-0.08333333333333333,1,0,0,7.332435000003898,call3,-0.03935185185185185,-0.07222222222222222,1,0,0,8.799022699997295,colour3,0.4148148148148148,0.33055555555555555,1,0,0,9.855079000000842,number1,True,True,True,7,2,2019_Nov_12_0901,MA_Theta_Exp,3.0.7,59.910086943855795,
video/Training/zh_sp01_Un_Ge_1_NoThetaInAudio_GlobalThetaInVideo.avi,noTheta,plusVideo,sp01,Un,Ge,1,,,,,,,,0,6,6,6,,,,,,,,,-0.3851851851851852,-0.30277777777777776,1,0,0,6.34093330000178,call4,-0.007407407407407408,0.3013888888888889,1,0,0,7.409956400006195,colour1,0.41759259259259257,0.3277777777777778,1,0,0,8.80735650000861,number1,True,True,True,7,2,2019_Nov_12_0901,MA_Theta_Exp,3.0.7,59.910086943855795,
video/Training/zh_sp07_Un_We_2_NoThetaInAudio_GlobalThetaInVideo.avi,noTheta,plusVideo,sp07,Un,We,2,,,,,,,,0,7,7,7,,,,,,,,,-0.4263888888888889,-0.31527777777777777,1,0,0,6.488978699999279,call4,0.022222222222222223,-0.29305555555555557,1,0,0,7.9522986999945715,colour4,0.387037037037037,0.32083333333333336,1,0,0,9.25244979999843,number1,True,True,False,7,2,2019_Nov_12_0901,MA_Theta_Exp,3.0.7,59.910086943855795,
video/Training/zh_sp01_Ad_Ge_1_GlobalTheta_NoVideo.avi,globalTheta,noVideo,sp01,Ad,Ge,1,,,,,,,,0,8,8,8,,,,,,,,,-0.36018518518518516,0.32222222222222224,1,0,0,7.54885479999939,call1,0.016203703703703703,0.3055555555555556,1,0,0,8.332673600001726,colour1,0.40925925925925927,0.28055555555555556,1,0,0,8.898943200008944,number1,True,True,True,7,2,2019_Nov_12_0901,MA_Theta_Exp,3.0.7,59.910086943855795,
video/Training/zh_sp07_Ad_Ro_3_GlobalTheta_NoVideo.avi,globalTheta,noVideo,sp07,Ad,Ro,3,,,,,,,,0,9,9,9,,,,,,,,,-0.3680555555555556,0.2652777777777778,1,0,0,5.268206499997177,call1,0.0023148148148148147,0.09861111111111111,1,0,0,6.052329300000565,colour2,0.42453703703703705,-0.11944444444444445,1,0,0,6.853108399998746,number3,True,False,True,7,2,2019_Nov_12_0901,MA_Theta_Exp,3.0.7,59.910086943855795,
video/Experiment/zh_sp01_Dr_We_4_NoThetaInAudio_GlobalThetaInVideo.avi,noTheta,plusVideo,sp01,Dr,We,4,0,3,flow/blocks/NoThetaInAudio_GlobalThetaInVideo_A.csv,,,,,,,,,0,0,0,0,0,0,0,31,-0.39444444444444443,0.12361111111111112,1,0,0,6.681956100001116,call2,0.016203703703703703,-0.29583333333333334,1,0,0,7.680912399999215,colour4,0.42453703703703705,-0.2986111111111111,1,0,0,8.681895200003055,number4,True,True,True,7,2,2019_Nov_12_0901,MA_Theta_Exp,3.0.7,59.910086943855795,
video/Experiment/zh_sp01_Dr_Ge_3_NoThetaInAudio_GlobalThetaInVideo.avi,noTheta,plusVideo,sp01,Dr,Ge,3,0,3,flow/blocks/NoThetaInAudio_GlobalThetaInVideo_A.csv,,,,,,,,,0,0,0,0,0,1,1,18,-0.40185185185185185,0.1111111111111111,1,0,0,6.262781900004484,call2,0.02638888888888889,0.30694444444444446,1,0,0,6.9626852000073995,colour1,0.38564814814814813,-0.08472222222222223,1,0,0,7.679359000001568,number3,True,True,True,7,2,2019_Nov_12_0901,MA_Theta_Exp,3.0.7,59.910086943855795,
video/Experiment/zh_sp01_Dr_Ge_4_NoThetaInAudio_GlobalThetaInVideo.avi,noTheta,plusVideo,sp01,Dr,Ge,4,0,3,flow/blocks/NoThetaInAudio_GlobalThetaInVideo_A.csv,,,,,,,,,0,0,0,0,0,2,2,19,-0.4083333333333333,0.10416666666666667,1,0,0,6.317187799999374,call2,0.012037037037037037,0.30833333333333335,1,0,0,7.08295189999626,colour1,0.38564814814814813,-0.35833333333333334,1,0,0,8.382818999991287,number4,True,True,True,7,2,2019_Nov_12_0901,MA_Theta_Exp,3.0.7,59.910086943855795,
video/Experiment/zh_sp01_Ad_Gr_2_NoThetaInAudio_GlobalThetaInVideo.avi,noTheta,plusVideo,sp01,Ad,Gr,2,0,3,flow/blocks/NoThetaInAudio_GlobalThetaInVideo_A.csv,,,,,,,,,0,0,0,0,0,3,3,5,-0.41944444444444445,0.3416666666666667,1,0,0,6.130169099997147,call1,0.038425925925925926,0.10416666666666667,1,0,0,6.980177600009483,colour2,0.41064814814814815,0.075,1,0,0,7.596708600001875,number2,True,True,True,7,2,2019_Nov_12_0901,MA_Theta_Exp,3.0.7,59.910086943855795,
video/Experiment/zh_sp07_Ad_We_4_NoThetaInAudio_GlobalThetaInVideo.avi,noTheta,plusVideo,sp07,Ad,We,4,0,3,flow/blocks/NoThetaInAudio_GlobalThetaInVideo_A.csv,,,,,,,,,0,0,0,0,0,4,4,15,-0.3907407407407407,0.32916666666666666,1,0,0,5.567788800006383,call1,0.018055555555555554,-0.3236111111111111,1,0,0,6.650676100005512,colour4,0.4111111111111111,-0.3125,1,0,0,8.683823699990171,number4,True,True,True,7,2,2019_Nov_12_0901,MA_Theta_Exp,3.0.7,59.910086943855795,
video/Experiment/zh_sp01_Ad_Ge_3_NoThetaInAudio_GlobalThetaInVideo.avi,noTheta,plusVideo,sp01,Ad,Ge,3,0,3,flow/blocks/NoThetaInAudio_GlobalThetaInVideo_A.csv,,,,,,,,,0,0,0,0,0,5,5,2,-0.38657407407407407,0.30972222222222223,1,0,0,6.627768499995,call1,-0.01712962962962963,0.2847222222222222,1,0,0,7.244726899996749,colour1,0.3787037037037037,-0.1,1,0,0,7.881320100001176,number3,True,True,True,7,2,2019_Nov_12_0901,MA_Theta_Exp,3.0.7,59.910086943855795,
video/Experiment/zh_sp07_Dr_Gr_1_NoThetaInAudio_GlobalThetaInVideo.avi,noTheta,plusVideo,sp07,Dr,Gr,1,0,3,flow/blocks/NoThetaInAudio_GlobalThetaInVideo_A.csv,,,,,,,,,0,0,0,0,0,6,6,20,-0.35555555555555557,-0.07916666666666666,1,0,0,9.17825910000829,call3,-0.0032407407407407406,0.08611111111111111,1,0,0,9.775962600004277,colour2,0.4412037037037037,0.29444444444444445,1,0,0,10.377693900009035,number1,False,True,True,7,2,2019_Nov_12_0901,MA_Theta_Exp,3.0.7,59.910086943855795,
video/Experiment/zh_sp01_Ad_Ro_2_NoThetaInAudio_GlobalThetaInVideo.avi,noTheta,plusVideo,sp01,Ad,Ro,2,0,3,flow/blocks/NoThetaInAudio_GlobalThetaInVideo_A.csv,,,,,,,,,0,0,0,0,0,7,7,9,-0.4,0.2902777777777778,1,0,0,6.359320499992464,call1,-0.04490740740740741,-0.14305555555555555,1,0,0,7.109086399999796,colour3,0.3800925925925926,0.3277777777777778,1,0,0,7.95957580000686,number1,True,True,False,7,2,2019_Nov_12_0901,MA_Theta_Exp,3.0.7,59.910086943855795,
video/Experiment/zh_sp01_Dr_Gr_2_NoThetaInAudio_GlobalThetaInVideo.avi,noTheta,plusVideo,sp01,Dr,Gr,2,0,3,flow/blocks/NoThetaInAudio_GlobalThetaInVideo_A.csv,,,,,,,,,0,0,0,0,0,8,8,21,-0.37222222222222223,0.10277777777777777,1,0,0,5.816525499991258,call2,-0.004629629629629629,0.10138888888888889,1,0,0,6.451764400000684,colour2,0.40925925925925927,0.06111111111111111,1,0,0,6.932939399994211,number2,True,True,True,7,2,2019_Nov_12_0901,MA_Theta_Exp,3.0.7,59.910086943855795,
video/Experiment/zh_sp01_Dr_Ro_2_NoThetaInAudio_GlobalThetaInVideo.avi,noTheta,plusVideo,sp01,Dr,Ro,2,0,3,flow/blocks/NoThetaInAudio_GlobalThetaInVideo_A.csv,,,,,,,,,0,0,0,0,0,9,9,25,-0.37777777777777777,0.11527777777777778,1,0,0,5.836376999999629,call2,-0.020833333333333332,-0.11666666666666667,1,0,0,6.452907300001243,colour3,0.4009259259259259,0.11666666666666667,1,0,0,7.219286100007594,number2,True,True,True,7,2,2019_Nov_12_0901,MA_Theta_Exp,3.0.7,59.910086943855795,
video/Experiment/zh_sp07_Dr_We_2_NoThetaInAudio_GlobalThetaInVideo.avi,noTheta,plusVideo,sp07,Dr,We,2,0,3,flow/blocks/NoThetaInAudio_GlobalThetaInVideo_A.csv,,,,,,,,,0,0,0,0,0,10,10,29,-0.37962962962962965,-0.2875,1,0,0,7.349941899999976,call4,0.003703703703703704,-0.325,1,0,0,7.83379619999323,colour4,0.4134259259259259,0.3277777777777778,1,0,0,8.537125400005607,number1,False,True,False,7,2,2019_Nov_12_0901,MA_Theta_Exp,3.0.7,59.910086943855795,
video/Experiment/zh_sp01_Dr_Ge_2_NoThetaInAudio_GlobalThetaInVideo.avi,noTheta,plusVideo,sp01,Dr,Ge,2,0,3,flow/blocks/NoThetaInAudio_GlobalThetaInVideo_A.csv,,,,,,,,,0,0,0,0,0,11,11,17,-0.3597222222222222,0.30694444444444446,1,0,0,5.904293799991137,call1,-0.0060185185185185185,0.2875,1,0,0,6.487078499994823,colour1,0.3939814814814815,0.06527777777777778,1,0,0,7.070155199995497,number2,False,True,True,7,2,2019_Nov_12_0901,MA_Theta_Exp,3.0.7,59.910086943855795,
video/Experiment/zh_sp07_Ad_Ge_2_NoThetaInAudio_GlobalThetaInVideo.avi,noTheta,plusVideo,sp07,Ad,Ge,2,0,3,flow/blocks/NoThetaInAudio_GlobalThetaInVideo_A.csv,,,,,,,,,0,0,0,0,0,12,12,1,-0.3819444444444444,0.30833333333333335,1,0,0,4.9719385000062175,call1,0.003703703703703704,0.25833333333333336,1,0,0,5.5339237000007415,colour1,0.46111111111111114,0.06111111111111111,1,0,0,6.966361900005722,number2,True,True,True,7,2,2019_Nov_12_0901,MA_Theta_Exp,3.0.7,59.910086943855795,
video/Experiment/zh_sp07_Dr_Ro_1_NoThetaInAudio_GlobalThetaInVideo.avi,noTheta,plusVideo,sp07,Dr,Ro,1,0,3,flow/blocks/NoThetaInAudio_GlobalThetaInVideo_A.csv,,,,,,,,,0,0,0,0,0,13,13,24,-0.3902777777777778,0.2875,1,0,0,4.940809299994726,call1,0.04953703703703704,-0.13472222222222222,1,0,0,5.605133799996111,colour3,0.4217592592592593,0.30694444444444446,1,0,0,6.238784000001033,number1,False,True,True,7,2,2019_Nov_12_0901,MA_Theta_Exp,3.0.7,59.910086943855795,
video/Experiment/zh_sp01_Ad_Gr_3_NoThetaInAudio_GlobalThetaInVideo.avi,noTheta,plusVideo,sp01,Ad,Gr,3,0,3,flow/blocks/NoThetaInAudio_GlobalThetaInVideo_A.csv,,,,,,,,,0,0,0,0,0,14,14,6,-0.40879629629629627,0.30277777777777776,1,0,0,5.765231800003676,call1,0.04861111111111111,0.05555555555555555,1,0,0,7.964948700013338,colour2,0.3425925925925926,-0.1388888888888889,1,0,0,8.565211900000577,number3,True,True,True,7,2,2019_Nov_12_0901,MA_Theta_Exp,3.0.7,59.910086943855795,
video/Experiment/zh_sp01_Ad_Ge_4_NoThetaInAudio_GlobalThetaInVideo.avi,noTheta,plusVideo,sp01,Ad,Ge,4,0,3,flow/blocks/NoThetaInAudio_GlobalThetaInVideo_A.csv,,,,,,,,,0,0,0,0,0,15,15,3,-0.34305555555555556,0.2763888888888889,1,0,0,5.7267843000008725,call1,0.016203703703703703,0.2638888888888889,1,0,0,6.393154100005631,colour1,0.44814814814814813,-0.3236111111111111,1,0,0,7.326930399998673,number4,True,True,True,7,2,2019_Nov_12_0901,MA_Theta_Exp,3.0.7,59.910086943855795,
video/Experiment/zh_sp07_Dr_We_1_NoThetaInAudio_GlobalThetaInVideo.avi,noTheta,plusVideo,sp07,Dr,We,1,0,3,flow/blocks/NoThetaInAudio_GlobalThetaInVideo_A.csv,,,,,,,,,0,0,0,0,0,16,16,28,-0.3263888888888889,0.2875,1,0,0,7.817980800013174,call1,0.06620370370370371,-0.33055555555555555,1,0,0,9.40050779999001,colour4,0.399537037037037,0.32916666666666666,1,0,0,10.123535599996103,number1,False,True,True,7,2,2019_Nov_12_0901,MA_Theta_Exp,3.0.7,59.910086943855795,
video/Experiment/zh_sp01_Dr_Gr_3_NoThetaInAudio_GlobalThetaInVideo.avi,noTheta,plusVideo,sp01,Dr,Gr,3,0,3,flow/blocks/NoThetaInAudio_GlobalThetaInVideo_A.csv,,,,,,,,,0,0,0,0,0,17,17,22,-0.3625,0.08888888888888889,1,0,0,5.595212900007027,call2,-0.010185185185185186,0.09444444444444444,1,0,0,6.156441300001461,colour2,0.37175925925925923,-0.1375,1,0,0,6.724212699991767,number3,True,True,True,7,2,2019_Nov_12_0901,MA_Theta_Exp,3.0.7,59.910086943855795,
video/Experiment/zh_sp07_Ad_We_3_NoThetaInAudio_GlobalThetaInVideo.avi,noTheta,plusVideo,sp07,Ad,We,3,0,3,flow/blocks/NoThetaInAudio_GlobalThetaInVideo_A.csv,,,,,,,,,0,0,0,0,0,18,18,14,-0.3875,0.32083333333333336,1,0,0,4.96051200000511,call1,0.016203703703703703,-0.33611111111111114,1,0,0,5.64294050000899,colour4,0.4388888888888889,-0.08194444444444444,1,0,0,6.276490000003832,number3,True,True,True,7,2,2019_Nov_12_0901,MA_Theta_Exp,3.0.7,59.910086943855795,
video/Experiment/zh_sp07_Ad_We_1_NoThetaInAudio_GlobalThetaInVideo.avi,noTheta,plusVideo,sp07,Ad,We,1,0,3,flow/blocks/NoThetaInAudio_GlobalThetaInVideo_A.csv,,,,,,,,,0,0,0,0,0,19,19,12,-0.3875,0.32916666666666666,1,0,0,4.585574900003849,call1,-0.0032407407407407406,-0.3375,1,0,0,5.202420200002962,colour4,0.41064814814814815,0.32083333333333336,1,0,0,5.901586000007228,number1,True,True,True,7,2,2019_Nov_12_0901,MA_Theta_Exp,3.0.7,59.910086943855795,
video/Experiment/zh_sp01_Ad_Ro_4_NoThetaInAudio_GlobalThetaInVideo.avi,noTheta,plusVideo,sp01,Ad,Ro,4,0,3,flow/blocks/NoThetaInAudio_GlobalThetaInVideo_A.csv,,,,,,,,,0,0,0,0,0,20,20,11,-0.38101851851851853,0.2763888888888889,1,0,0,7.145728700008476,call1,-0.006944444444444444,-0.10833333333333334,1,0,0,7.727164800002356,colour3,0.44814814814814813,-0.3625,1,0,0,8.72669369999494,number4,True,True,True,7,2,2019_Nov_12_0901,MA_Theta_Exp,3.0.7,59.910086943855795,
video/Experiment/zh_sp07_Ad_Ro_1_NoThetaInAudio_GlobalThetaInVideo.avi,noTheta,plusVideo,sp07,Ad,Ro,1,0,3,flow/blocks/NoThetaInAudio_GlobalThetaInVideo_A.csv,,,,,,,,,0,0,0,0,0,21,21,8,-0.36666666666666664,0.3333333333333333,1,0,0,4.4979567999980645,call1,0.025925925925925925,-0.17222222222222222,1,0,0,5.081494899990503,colour3,0.36203703703703705,0.325,1,0,0,5.665313999998034,number1,True,True,True,7,2,2019_Nov_12_0901,MA_Theta_Exp,3.0.7,59.910086943855795,
video/Experiment/zh_sp07_Dr_Ro_4_NoThetaInAudio_GlobalThetaInVideo.avi,noTheta,plusVideo,sp07,Dr,Ro,4,0,3,flow/blocks/NoThetaInAudio_GlobalThetaInVideo_A.csv,,,,,,,,,0,0,0,0,0,22,22,27,-0.3597222222222222,0.3055555555555556,1,0,0,6.263157000008505,call1,0.060648148148148145,0.2638888888888889,1,0,0,6.978688200004399,colour1,0.4078703703703704,-0.30277777777777776,1,0,0,7.545412300009048,number4,False,False,True,7,2,2019_Nov_12_0901,MA_Theta_Exp,3.0.7,59.910086943855795,
video/Experiment/zh_sp07_Ad_Ge_1_NoThetaInAudio_GlobalThetaInVideo.avi,noTheta,plusVideo,sp07,Ad,Ge,1,0,3,flow/blocks/NoThetaInAudio_GlobalThetaInVideo_A.csv,,,,,,,,,0,0,0,0,0,23,23,0,-0.41944444444444445,0.32222222222222224,1,0,0,4.741989400004968,call1,-0.014351851851851852,0.30277777777777776,1,0,0,5.2659494999970775,colour1,0.43148148148148147,0.26805555555555555,1,0,0,5.766093299986096,number1,True,True,True,7,2,2019_Nov_12_0901,MA_Theta_Exp,3.0.7,59.910086943855795,
video/Experiment/zh_sp07_Dr_Gr_4_NoThetaInAudio_GlobalThetaInVideo.avi,noTheta,plusVideo,sp07,Dr,Gr,4,0,3,flow/blocks/NoThetaInAudio_GlobalThetaInVideo_A.csv,,,,,,,,,0,0,0,0,0,24,24,23,-0.36574074074074076,0.28194444444444444,1,0,0,4.9040944000007585,call1,-0.031018518518518518,0.1111111111111111,1,0,0,5.489956899997196,colour2,0.4166666666666667,-0.10694444444444444,1,0,0,7.1683239999983925,number3,False,True,False,7,2,2019_Nov_12_0901,MA_Theta_Exp,3.0.7,59.910086943855795,
video/Experiment/zh_sp01_Ad_Gr_1_NoThetaInAudio_GlobalThetaInVideo.avi,noTheta,plusVideo,sp01,Ad,Gr,1,0,3,flow/blocks/NoThetaInAudio_GlobalThetaInVideo_A.csv,,,,,,,,,0,0,0,0,0,25,25,4,-0.375,0.2861111111111111,1,0,0,6.63125960000616,call1,0.017592592592592594,0.10555555555555556,1,0,0,7.331142299997737,colour2,0.38287037037037036,0.30694444444444446,1,0,0,8.00509150000289,number1,True,True,True,7,2,2019_Nov_12_0901,MA_Theta_Exp,3.0.7,59.910086943855795,
video/Experiment/zh_sp01_Ad_Ro_3_NoThetaInAudio_GlobalThetaInVideo.avi,noTheta,plusVideo,sp01,Ad,Ro,3,0,3,flow/blocks/NoThetaInAudio_GlobalThetaInVideo_A.csv,,,,,,,,,0,0,0,0,0,26,26,10,-0.3685185185185185,0.28055555555555556,1,0,0,6.0412462999956915,call1,0.0023148148148148147,0.10694444444444444,1,0,0,6.694329199992353,colour2,0.42453703703703705,-0.14305555555555555,1,0,0,7.264532900007907,number3,True,False,True,7,2,2019_Nov_12_0901,MA_Theta_Exp,3.0.7,59.910086943855795,
video/Experiment/zh_sp07_Dr_Ro_3_NoThetaInAudio_GlobalThetaInVideo.avi,noTheta,plusVideo,sp07,Dr,Ro,3,0,3,flow/blocks/NoThetaInAudio_GlobalThetaInVideo_A.csv,,,,,,,,,0,0,0,0,0,27,27,26,-0.35,0.26805555555555555,1,0,0,4.871312300005229,call1,-0.02546296296296296,-0.09166666666666666,1,0,0,5.5373082000005525,colour3,0.4203703703703704,-0.12083333333333333,1,0,0,6.122265500001959,number3,False,True,True,7,2,2019_Nov_12_0901,MA_Theta_Exp,3.0.7,59.910086943855795,
video/Experiment/zh_sp01_Dr_We_3_NoThetaInAudio_GlobalThetaInVideo.avi,noTheta,plusVideo,sp01,Dr,We,3,0,3,flow/blocks/NoThetaInAudio_GlobalThetaInVideo_A.csv,,,,,,,,,0,0,0,0,0,28,28,30,-0.3486111111111111,0.06666666666666667,1,0,0,5.473949300008826,call2,-0.04351851851851852,-0.3263888888888889,1,0,0,6.056331100000534,colour4,0.3384259259259259,-0.09722222222222222,1,0,0,6.673121800005902,number3,True,True,True,7,2,2019_Nov_12_0901,MA_Theta_Exp,3.0.7,59.910086943855795,
video/Experiment/zh_sp07_Ad_We_2_NoThetaInAudio_GlobalThetaInVideo.avi,noTheta,plusVideo,sp07,Ad,We,2,0,3,flow/blocks/NoThetaInAudio_GlobalThetaInVideo_A.csv,,,,,,,,,0,0,0,0,0,29,29,13,-0.37407407407407406,0.28055555555555556,1,0,0,5.618246600002749,call1,-0.008796296296296297,-0.32222222222222224,1,0,0,6.387697400001343,colour4,0.4134259259259259,0.12916666666666668,1,0,0,7.490206300004502,number2,True,True,True,7,2,2019_Nov_12_0901,MA_Theta_Exp,3.0.7,59.910086943855795,
video/Experiment/zh_sp07_Ad_Gr_4_NoThetaInAudio_GlobalThetaInVideo.avi,noTheta,plusVideo,sp07,Ad,Gr,4,0,3,flow/blocks/NoThetaInAudio_GlobalThetaInVideo_A.csv,,,,,,,,,0,0,0,0,0,30,30,7,-0.3685185185185185,0.2972222222222222,1,0,0,4.891845599995577,call1,-0.03657407407407407,0.11527777777777778,1,0,0,5.477112099993974,colour2,0.4263888888888889,-0.29444444444444445,1,0,0,6.127390599998762,number4,True,True,True,7,2,2019_Nov_12_0901,MA_Theta_Exp,3.0.7,59.910086943855795,
video/Experiment/zh_sp07_Dr_Ge_1_NoThetaInAudio_GlobalThetaInVideo.avi,noTheta,plusVideo,sp07,Dr,Ge,1,0,3,flow/blocks/NoThetaInAudio_GlobalThetaInVideo_A.csv,,,,,,,,,0,0,0,0,0,31,31,16,-0.34444444444444444,0.30833333333333335,1,0,0,4.965932799997972,call1,0.04953703703703704,0.28055555555555556,1,0,0,5.882581500001834,colour1,0.3925925925925926,0.3236111111111111,1,0,0,7.832643300003838,number1,False,True,True,7,2,2019_Nov_12_0901,MA_Theta_Exp,3.0.7,59.910086943855795,
video/Experiment/zh_sp01_Dr_Ro_3_GlobalTheta_NoVideo.avi,globalTheta,noVideo,sp01,Dr,Ro,3,1,5,flow/blocks/GlobalTheta_NoVideo_A.csv,,,,,,,,,0,1,1,1,0,0,0,26,-0.37962962962962965,0.10416666666666667,1,0,0,6.182325100002345,call2,-0.03935185185185185,0.26666666666666666,1,0,0,6.998558400009642,colour1,0.4023148148148148,-0.09722222222222222,1,0,0,8.237583399997675,number3,True,False,True,7,2,2019_Nov_12_0901,MA_Theta_Exp,3.0.7,59.910086943855795,
video/Experiment/zh_sp07_Ad_Ro_2_GlobalTheta_NoVideo.avi,globalTheta,noVideo,sp07,Ad,Ro,2,1,5,flow/blocks/GlobalTheta_NoVideo_A.csv,,,,,,,,,0,1,1,1,0,1,1,9,-0.3416666666666667,0.30277777777777776,1,0,0,4.898133399998187,call1,-0.01990740740740741,-0.10555555555555556,1,0,0,5.597956700003124,colour3,0.34120370370370373,0.07083333333333333,1,0,0,6.132254199997988,number2,True,True,True,7,2,2019_Nov_12_0901,MA_Theta_Exp,3.0.7,59.910086943855795,
video/Experiment/zh_sp07_Dr_Ro_4_GlobalTheta_NoVideo.avi,globalTheta,noVideo,sp07,Dr,Ro,4,1,5,flow/blocks/GlobalTheta_NoVideo_A.csv,,,,,,,,,0,1,1,1,0,2,2,27,-0.3449074074074074,0.2777777777777778,1,0,0,5.702444300011848,call1,0.020370370370370372,-0.125,1,0,0,6.625409499989473,colour3,0.4064814814814815,-0.31666666666666665,1,0,0,7.709228499996243,number4,False,True,True,7,2,2019_Nov_12_0901,MA_Theta_Exp,3.0.7,59.910086943855795,
video/Experiment/zh_sp01_Ad_Ge_2_GlobalTheta_NoVideo.avi,globalTheta,noVideo,sp01,Ad,Ge,2,1,5,flow/blocks/GlobalTheta_NoVideo_A.csv,,,,,,,,,0,1,1,1,0,3,3,1,-0.34305555555555556,0.3013888888888889,1,0,0,7.407952200010186,call1,-0.018518518518518517,0.26944444444444443,1,0,0,8.144909100010409,colour1,0.38842592592592595,0.07222222222222222,1,0,0,9.141708900002413,number2,True,True,True,7,2,2019_Nov_12_0901,MA_Theta_Exp,3.0.7,59.910086943855795,
video/Experiment/zh_sp07_Dr_We_4_GlobalTheta_NoVideo.avi,globalTheta,noVideo,sp07,Dr,We,4,1,5,flow/blocks/GlobalTheta_NoVideo_A.csv,,,,,,,,,0,1,1,1,0,4,4,31,-0.35,0.3125,1,0,0,5.428601199993864,call1,0.000925925925925926,-0.3458333333333333,1,0,0,6.161690900000394,colour4,0.43287037037037035,-0.3527777777777778,1,0,0,6.7282953999965684,number4,False,True,True,7,2,2019_Nov_12_0901,MA_Theta_Exp,3.0.7,59.910086943855795,
video/Experiment/zh_sp01_Ad_Ge_3_GlobalTheta_NoVideo.avi,globalTheta,noVideo,sp01,Ad,Ge,3,1,5,flow/blocks/GlobalTheta_NoVideo_A.csv,,,,,,,,,0,1,1,1,0,5,5,2,-0.37777777777777777,0.325,1,0,0,5.245503300000564,call1,0.006481481481481481,0.30416666666666664,1,0,0,6.245271199994022,colour1,0.3912037037037037,-0.08611111111111111,1,0,0,7.3778835000121035,number3,True,True,True,7,2,2019_Nov_12_0901,MA_Theta_Exp,3.0.7,59.910086943855795,
video/Experiment/zh_sp07_Dr_Gr_4_GlobalTheta_NoVideo.avi,globalTheta,noVideo,sp07,Dr,Gr,4,1,5,flow/blocks/GlobalTheta_NoVideo_A.csv,,,,,,,,,0,1,1,1,0,6,6,23,-0.35555555555555557,0.28055555555555556,1,0,0,7.750904700005776,call1,0.03611111111111111,0.1388888888888889,1,0,0,8.232935299995006,colour2,0.3736111111111111,-0.09583333333333334,1,0,0,8.765725400007796,number3,False,True,False,7,2,2019_Nov_12_0901,MA_Theta_Exp,3.0.7,59.910086943855795,
video/Experiment/zh_sp01_Dr_Ge_3_GlobalTheta_NoVideo.avi,globalTheta,noVideo,sp01,Dr,Ge,3,1,5,flow/blocks/GlobalTheta_NoVideo_A.csv,,,,,,,,,0,1,1,1,0,7,7,18,-0.41435185185185186,0.13194444444444445,1,0,0,5.87427430000389,call2,-0.033796296296296297,0.3236111111111111,1,0,0,6.574930799994036,colour1,0.39675925925925926,-0.12916666666666668,1,0,0,7.757394200001727,number3,True,True,True,7,2,2019_Nov_12_0901,MA_Theta_Exp,3.0.7,59.910086943855795,
video/Experiment/zh_sp01_Dr_Gr_2_GlobalTheta_NoVideo.avi,globalTheta,noVideo,sp01,Dr,Gr,2,1,5,flow/blocks/GlobalTheta_NoVideo_A.csv,,,,,,,,,0,1,1,1,0,8,8,21,-0.3902777777777778,0.09583333333333334,1,0,0,5.596884900005534,call2,-0.010185185185185186,0.11527777777777778,1,0,0,6.095709800007171,colour2,0.3912037037037037,0.10833333333333334,1,0,0,6.595253000006778,number2,True,True,True,7,2,2019_Nov_12_0901,MA_Theta_Exp,3.0.7,59.910086943855795,
video/Experiment/zh_sp07_Dr_Ge_1_GlobalTheta_NoVideo.avi,globalTheta,noVideo,sp07,Dr,Ge,1,1,5,flow/blocks/GlobalTheta_NoVideo_A.csv,,,,,,,,,0,1,1,1,0,9,9,16,-0.4083333333333333,0.3277777777777778,1,0,0,7.287368300007074,call1,-0.046296296296296294,0.3013888888888889,1,0,0,7.835906600012095,colour1,0.38425925925925924,0.2652777777777778,1,0,0,8.33532089999062,number1,False,True,True,7,2,2019_Nov_12_0901,MA_Theta_Exp,3.0.7,59.910086943855795,
video/Experiment/zh_sp01_Dr_Ro_1_GlobalTheta_NoVideo.avi,globalTheta,noVideo,sp01,Dr,Ro,1,1,5,flow/blocks/GlobalTheta_NoVideo_A.csv,,,,,,,,,0,1,1,1,0,10,10,24,-0.3875,0.10833333333333334,1,0,0,5.5292986999993445,call2,-0.004629629629629629,-0.15833333333333333,1,0,0,6.212632299997495,colour3,0.39814814814814814,0.3611111111111111,1,0,0,7.112340200008475,number1,True,True,True,7,2,2019_Nov_12_0901,MA_Theta_Exp,3.0.7,59.910086943855795,
video/Experiment/zh_sp07_Ad_Ro_1_GlobalTheta_NoVideo.avi,globalTheta,noVideo,sp07,Ad,Ro,1,1,5,flow/blocks/GlobalTheta_NoVideo_A.csv,,,,,,,,,0,1,1,1,0,11,11,8,-0.34629629629629627,0.04722222222222222,1,0,0,6.051944100006949,call2,-0.03796296296296296,-0.09166666666666666,1,0,0,6.618856200002483,colour3,0.3731481481481482,0.29444444444444445,1,0,0,7.168268399997032,number1,False,True,True,7,2,2019_Nov_12_0901,MA_Theta_Exp,3.0.7,59.910086943855795,
video/Experiment/zh_sp07_Ad_Gr_4_GlobalTheta_NoVideo.avi,globalTheta,noVideo,sp07,Ad,Gr,4,1,5,flow/blocks/GlobalTheta_NoVideo_A.csv,,,,,,,,,0,1,1,1,0,12,12,7,-0.3574074074074074,0.2972222222222222,1,0,0,6.00818230000732,call1,-0.06851851851851852,0.10694444444444444,1,0,0,6.773813699997845,colour2,0.4097222222222222,-0.30416666666666664,1,0,0,9.240335800001048,number4,True,True,True,7,2,2019_Nov_12_0901,MA_Theta_Exp,3.0.7,59.910086943855795,
video/Experiment/zh_sp07_Dr_Ge_4_GlobalTheta_NoVideo.avi,globalTheta,noVideo,sp07,Dr,Ge,4,1,5,flow/blocks/GlobalTheta_NoVideo_A.csv,,,,,,,,,0,1,1,1,0,13,13,19,-0.4060185185185185,0.30833333333333335,1,0,0,5.3281910000077914,call1,0.02175925925925926,0.3375,1,0,0,5.923921800000244,colour1,0.4148148148148148,-0.30833333333333335,1,0,0,7.094491700001527,number4,False,True,True,7,2,2019_Nov_12_0901,MA_Theta_Exp,3.0.7,59.910086943855795,
video/Experiment/zh_sp07_Ad_Ge_4_GlobalTheta_NoVideo.avi,globalTheta,noVideo,sp07,Ad,Ge,4,1,5,flow/blocks/GlobalTheta_NoVideo_A.csv,,,,,,,,,0,1,1,1,0,14,14,3,-0.33935185185185185,0.31666666666666665,1,0,0,7.014237000010326,call1,0.006481481481481481,0.25,1,0,0,7.596816000004765,colour1,0.45694444444444443,-0.33194444444444443,1,0,0,8.76314260000072,number4,True,True,True,7,2,2019_Nov_12_0901,MA_Theta_Exp,3.0.7,59.910086943855795,
video/Experiment/zh_sp07_Dr_Ge_2_GlobalTheta_NoVideo.avi,globalTheta,noVideo,sp07,Dr,Ge,2,1,5,flow/blocks/GlobalTheta_NoVideo_A.csv,,,,,,,,,0,1,1,1,0,15,15,17,-0.3402777777777778,0.2625,1,0,0,4.873461399998632,call1,-0.024074074074074074,0.2513888888888889,1,0,0,5.544124199994258,colour1,0.3787037037037037,0.08888888888888889,1,0,0,7.823380100002396,number2,False,True,True,7,2,2019_Nov_12_0901,MA_Theta_Exp,3.0.7,59.910086943855795,
video/Experiment/zh_sp07_Ad_Gr_3_GlobalTheta_NoVideo.avi,globalTheta,noVideo,sp07,Ad,Gr,3,1,5,flow/blocks/GlobalTheta_NoVideo_A.csv,,,,,,,,,0,1,1,1,0,16,16,6,-0.3458333333333333,0.28194444444444444,1,0,0,4.92810720000125,call1,0.023148148148148147,0.0875,1,0,0,5.528688999998849,colour2,0.36064814814814816,-0.14305555555555555,1,0,0,6.627702300000237,number3,True,True,True,7,2,2019_Nov_12_0901,MA_Theta_Exp,3.0.7,59.910086943855795,
video/Experiment/zh_sp01_Ad_We_2_GlobalTheta_NoVideo.avi,globalTheta,noVideo,sp01,Ad,We,2,1,5,flow/blocks/GlobalTheta_NoVideo_A.csv,,,,,,,,,0,1,1,1,0,17,17,13,-0.3680555555555556,0.2875,1,0,0,6.214357799995923,call1,0.016203703703703703,-0.32222222222222224,1,0,0,6.932575500002713,colour4,0.3939814814814815,0.08055555555555556,1,0,0,7.930410700006178,number2,True,True,True,7,2,2019_Nov_12_0901,MA_Theta_Exp,3.0.7,59.910086943855795,
video/Experiment/zh_sp01_Dr_We_2_GlobalTheta_NoVideo.avi,globalTheta,noVideo,sp01,Dr,We,2,1,5,flow/blocks/GlobalTheta_NoVideo_A.csv,,,,,,,,,0,1,1,1,0,18,18,29,-0.37407407407407406,-0.2791666666666667,1,0,0,9.513523399989936,call4,0.008333333333333333,-0.3111111111111111,1,0,0,10.01311679999344,colour4,0.3800925925925926,0.10694444444444444,1,0,0,10.596223500004271,number2,False,True,True,7,2,2019_Nov_12_0901,MA_Theta_Exp,3.0.7,59.910086943855795,
video/Experiment/zh_sp01_Ad_We_3_GlobalTheta_NoVideo.avi,globalTheta,noVideo,sp01,Ad,We,3,1,5,flow/blocks/GlobalTheta_NoVideo_A.csv,,,,,,,,,0,1,1,1,0,19,19,14,-0.375,0.28888888888888886,1,0,0,5.266206200001761,call1,0.016203703703703703,-0.31527777777777777,1,0,0,6.065107899994473,colour4,0.4203703703703704,-0.08472222222222223,1,0,0,6.6593693000031635,number3,True,True,True,7,2,2019_Nov_12_0901,MA_Theta_Exp,3.0.7,59.910086943855795,
video/Experiment/zh_sp01_Ad_Gr_1_GlobalTheta_NoVideo.avi,globalTheta,noVideo,sp01,Ad,Gr,1,1,5,flow/blocks/GlobalTheta_NoVideo_A.csv,,,,,,,,,0,1,1,1,0,20,20,4,-0.3611111111111111,0.30416666666666664,1,0,0,5.560258600002271,call1,-0.032407407407407406,0.09722222222222222,1,0,0,6.109059599999455,colour2,0.3939814814814815,0.34444444444444444,1,0,0,6.699286400005803,number1,True,True,True,7,2,2019_Nov_12_0901,MA_Theta_Exp,3.0.7,59.910086943855795,
video/Experiment/zh_sp01_Ad_Ro_4_GlobalTheta_NoVideo.avi,globalTheta,noVideo,sp01,Ad,Ro,4,1,5,flow/blocks/GlobalTheta_NoVideo_A.csv,,,,,,,,,0,1,1,1,0,21,21,11,-0.35555555555555557,0.29583333333333334,1,0,0,5.447781599999871,call1,0.04398148148148148,-0.12638888888888888,1,0,0,6.147573199996259,colour3,0.3578703703703704,-0.30277777777777776,1,0,0,6.830972700001439,number4,True,True,True,7,2,2019_Nov_12_0901,MA_Theta_Exp,3.0.7,59.910086943855795,
video/Experiment/zh_sp07_Ad_Gr_2_GlobalTheta_NoVideo.avi,globalTheta,noVideo,sp07,Ad,Gr,2,1,5,flow/blocks/GlobalTheta_NoVideo_A.csv,,,,,,,,,0,1,1,1,0,22,22,5,-0.3472222222222222,0.31527777777777777,1,0,0,5.004325899994001,call1,0.03009259259259259,0.10972222222222222,1,0,0,5.504119199991692,colour2,0.3800925925925926,0.075,1,0,0,6.020686500007287,number2,True,True,True,7,2,2019_Nov_12_0901,MA_Theta_Exp,3.0.7,59.910086943855795,
video/Experiment/zh_sp01_Dr_We_1_GlobalTheta_NoVideo.avi,globalTheta,noVideo,sp01,Dr,We,1,1,5,flow/blocks/GlobalTheta_NoVideo_A.csv,,,,,,,,,0,1,1,1,0,23,23,28,-0.4097222222222222,-0.2902777777777778,1,0,0,6.04754139999568,call4,-0.033796296296296297,-0.2763888888888889,1,0,0,6.578240599992569,colour4,0.3819444444444444,0.3458333333333333,1,0,0,7.277713400006178,number1,False,True,True,7,2,2019_Nov_12_0901,MA_Theta_Exp,3.0.7,59.910086943855795,
video/Experiment/zh_sp01_Dr_Gr_3_GlobalTheta_NoVideo.avi,globalTheta,noVideo,sp01,Dr,Gr,3,1,5,flow/blocks/GlobalTheta_NoVideo_A.csv,,,,,,,,,0,1,1,1,0,24,24,22,-0.3819444444444444,-0.28888888888888886,1,0,0,5.404417500001728,call4,-0.01990740740740741,0.11805555555555555,1,0,0,5.966832999998587,colour2,0.41898148148148145,-0.07777777777777778,1,0,0,6.683330499989097,number3,False,True,True,7,2,2019_Nov_12_0901,MA_Theta_Exp,3.0.7,59.910086943855795,
video/Experiment/zh_sp01_Dr_Gr_1_GlobalTheta_NoVideo.avi,globalTheta,noVideo,sp01,Dr,Gr,1,1,5,flow/blocks/GlobalTheta_NoVideo_A.csv,,,,,,,,,0,1,1,1,0,25,25,20,-0.3972222222222222,-0.09722222222222222,1,0,0,5.788727600011043,call3,0.0023148148148148147,0.08194444444444444,1,0,0,6.307647500012536,colour2,0.3925925925925926,0.30833333333333335,1,0,0,6.839859100000467,number1,False,True,True,7,2,2019_Nov_12_0901,MA_Theta_Exp,3.0.7,59.910086943855795,
video/Experiment/zh_sp07_Dr_We_3_GlobalTheta_NoVideo.avi,globalTheta,noVideo,sp07,Dr,We,3,1,5,flow/blocks/GlobalTheta_NoVideo_A.csv,,,,,,,,,0,1,1,1,0,26,26,30,-0.36574074074074076,-0.33055555555555555,1,0,0,5.357646399992518,call4,-0.046296296296296294,-0.3013888888888889,1,0,0,5.924755300002289,colour4,0.42453703703703705,-0.11805555555555555,1,0,0,6.861907600003178,number3,False,True,True,7,2,2019_Nov_12_0901,MA_Theta_Exp,3.0.7,59.910086943855795,
video/Experiment/zh_sp07_Ad_We_1_GlobalTheta_NoVideo.avi,globalTheta,noVideo,sp07,Ad,We,1,1,5,flow/blocks/GlobalTheta_NoVideo_A.csv,,,,,,,,,0,1,1,1,0,27,27,12,-0.43796296296296294,-0.30972222222222223,1,0,0,4.730691299992031,call4,-0.03657407407407407,-0.2777777777777778,1,0,0,5.275148999993689,colour4,0.37037037037037035,0.29305555555555557,1,0,0,6.0419255000015255,number1,False,True,True,7,2,2019_Nov_12_0901,MA_Theta_Exp,3.0.7,59.910086943855795,
video/Experiment/zh_sp01_Ad_Ge_1_GlobalTheta_NoVideo.avi,globalTheta,noVideo,sp01,Ad,Ge,1,1,5,flow/blocks/GlobalTheta_NoVideo_A.csv,,,,,,,,,0,1,1,1,0,28,28,0,-0.37083333333333335,0.3194444444444444,1,0,0,6.797428499994567,call1,-0.0060185185185185185,0.2722222222222222,1,0,0,8.080403299987665,colour1,0.40925925925925927,0.30277777777777776,1,0,0,8.78051100000448,number1,True,True,True,7,2,2019_Nov_12_0901,MA_Theta_Exp,3.0.7,59.910086943855795,
video/Experiment/zh_sp07_Ad_We_4_GlobalTheta_NoVideo.avi,globalTheta,noVideo,sp07,Ad,We,4,1,5,flow/blocks/GlobalTheta_NoVideo_A.csv,,,,,,,,,0,1,1,1,0,29,29,15,-0.3375,0.3125,1,0,0,4.739031499993871,call1,-0.001851851851851852,-0.3472222222222222,1,0,0,5.38831460000074,colour4,0.387037037037037,-0.33055555555555555,1,0,0,6.20461559999967,number4,True,True,True,7,2,2019_Nov_12_0901,MA_Theta_Exp,3.0.7,59.910086943855795,
video/Experiment/zh_sp01_Dr_Ro_2_GlobalTheta_NoVideo.avi,globalTheta,noVideo,sp01,Dr,Ro,2,1,5,flow/blocks/GlobalTheta_NoVideo_A.csv,,,,,,,,,0,1,1,1,0,30,30,25,-0.32407407407407407,0.2569444444444444,1,0,0,5.419285399999353,call1,-0.001851851851851852,-0.14583333333333334,1,0,0,5.936043100009556,colour3,0.38842592592592595,0.06805555555555555,1,0,0,6.471981399998185,number2,False,True,True,7,2,2019_Nov_12_0901,MA_Theta_Exp,3.0.7,59.910086943855795,
video/Experiment/zh_sp07_Ad_Ro_3_GlobalTheta_NoVideo.avi,globalTheta,noVideo,sp07,Ad,Ro,3,1,5,flow/blocks/GlobalTheta_NoVideo_A.csv,,,,,,,,,0,1,1,1,0,31,31,10,-0.3388888888888889,0.2777777777777778,1,0,0,5.097282999995514,call1,-0.018055555555555554,-0.31805555555555554,1,0,0,5.849788699997589,colour4,0.3888888888888889,-0.1361111111111111,1,0,0,6.436296899992158,number3,True,False,True,7,2,2019_Nov_12_0901,MA_Theta_Exp,3.0.7,59.910086943855795,
video/Experiment/zh_sp01_Ad_We_2_NVocInAudio_GlobalThetaInVideo.avi,vocoded,plusVideo,sp01,Ad,We,2,2,1,flow/blocks/NVocInAudio_GlobalThetaInVideo_A.csv,,,,,,,,,0,2,2,2,0,0,0,13,-0.3402777777777778,0.2361111111111111,1,0,0,5.68968440000026,call1,0.037037037037037035,-0.3347222222222222,1,0,0,6.429499899997609,colour4,0.36944444444444446,0.11388888888888889,1,0,0,7.061366399997496,number2,True,True,True,7,2,2019_Nov_12_0901,MA_Theta_Exp,3.0.7,59.910086943855795,
video/Experiment/zh_sp01_Ad_Ge_4_NVocInAudio_GlobalThetaInVideo.avi,vocoded,plusVideo,sp01,Ad,Ge,4,2,1,flow/blocks/NVocInAudio_GlobalThetaInVideo_A.csv,,,,,,,,,0,2,2,2,0,1,1,3,-0.38055555555555554,0.3013888888888889,1,0,0,5.233085600004415,call1,0.017592592592592594,0.2972222222222222,1,0,0,5.799549100003787,colour1,0.39675925925925926,-0.33611111111111114,1,0,0,6.366337100000237,number4,True,True,True,7,2,2019_Nov_12_0901,MA_Theta_Exp,3.0.7,59.910086943855795,
video/Experiment/zh_sp07_Ad_Ge_3_NVocInAudio_GlobalThetaInVideo.avi,vocoded,plusVideo,sp07,Ad,Ge,3,2,1,flow/blocks/NVocInAudio_GlobalThetaInVideo_A.csv,,,,,,,,,0,2,2,2,0,2,2,2,-0.40555555555555556,0.325,1,0,0,5.32027989999915,call1,0.00787037037037037,0.275,1,0,0,5.881911199991009,colour1,0.38425925925925924,-0.12222222222222222,1,0,0,6.448809399997117,number3,True,True,True,7,2,2019_Nov_12_0901,MA_Theta_Exp,3.0.7,59.910086943855795,
video/Experiment/zh_sp01_Dr_Ge_2_NVocInAudio_GlobalThetaInVideo.avi,vocoded,plusVideo,sp01,Dr,Ge,2,2,1,flow/blocks/NVocInAudio_GlobalThetaInVideo_A.csv,,,,,,,,,0,2,2,2,0,3,3,17,-0.3837962962962963,0.10416666666666667,1,0,0,5.619451799997478,call2,0.022222222222222223,0.3236111111111111,1,0,0,6.9360615000041435,colour1,0.45231481481481484,0.08611111111111111,1,0,0,7.769144100006088,number2,True,True,True,7,2,2019_Nov_12_0901,MA_Theta_Exp,3.0.7,59.910086943855795,
video/Experiment/zh_sp01_Dr_We_4_NVocInAudio_GlobalThetaInVideo.avi,vocoded,plusVideo,sp01,Dr,We,4,2,1,flow/blocks/NVocInAudio_GlobalThetaInVideo_A.csv,,,,,,,,,0,2,2,2,0,4,4,31,-0.37777777777777777,0.12361111111111112,1,0,0,5.508884000009857,call2,-0.01990740740740741,-0.2847222222222222,1,0,0,6.108973099995637,colour4,0.36203703703703705,-0.34305555555555556,1,0,0,6.625501200003782,number4,True,True,True,7,2,2019_Nov_12_0901,MA_Theta_Exp,3.0.7,59.910086943855795,
video/Experiment/zh_sp07_Dr_Ro_4_NVocInAudio_GlobalThetaInVideo.avi,vocoded,plusVideo,sp07,Dr,Ro,4,2,1,flow/blocks/NVocInAudio_GlobalThetaInVideo_A.csv,,,,,,,,,0,2,2,2,0,5,5,27,-0.3458333333333333,0.07222222222222222,1,0,0,4.871451300001354,call2,-0.026851851851851852,-0.08194444444444444,1,0,0,6.488476700003957,colour3,0.4162037037037037,-0.3375,1,0,0,7.155039899997064,number4,True,True,True,7,2,2019_Nov_12_0901,MA_Theta_Exp,3.0.7,59.910086943855795,
video/Experiment/zh_sp07_Dr_Ge_3_NVocInAudio_GlobalThetaInVideo.avi,vocoded,plusVideo,sp07,Dr,Ge,3,2,1,flow/blocks/NVocInAudio_GlobalThetaInVideo_A.csv,,,,,,,,,0,2,2,2,0,6,6,18,-0.37962962962962965,0.12222222222222222,1,0,0,4.975688799997442,call2,-0.004629629629629629,0.275,1,0,0,5.526851100003114,colour1,0.4148148148148148,-0.12083333333333333,1,0,0,6.154335600003833,number3,True,True,True,7,2,2019_Nov_12_0901,MA_Theta_Exp,3.0.7,59.910086943855795,
video/Experiment/zh_sp07_Dr_Ge_4_NVocInAudio_GlobalThetaInVideo.avi,vocoded,plusVideo,sp07,Dr,Ge,4,2,1,flow/blocks/NVocInAudio_GlobalThetaInVideo_A.csv,,,,,,,,,0,2,2,2,0,7,7,19,-0.38935185185185184,0.10555555555555556,1,0,0,5.350237199992989,call2,-0.004629629629629629,0.31527777777777777,1,0,0,6.285602100004326,colour1,0.43425925925925923,-0.3472222222222222,1,0,0,7.0211121999891475,number4,True,True,True,7,2,2019_Nov_12_0901,MA_Theta_Exp,3.0.7,59.910086943855795,
video/Experiment/zh_sp07_Dr_We_1_NVocInAudio_GlobalThetaInVideo.avi,vocoded,plusVideo,sp07,Dr,We,1,2,1,flow/blocks/NVocInAudio_GlobalThetaInVideo_A.csv,,,,,,,,,0,2,2,2,0,8,8,28,-0.3449074074074074,0.10972222222222222,1,0,0,5.992851100003463,call2,0.02175925925925926,-0.32222222222222224,1,0,0,7.276032599998871,colour4,0.41944444444444445,0.325,1,0,0,8.475781199987978,number1,True,True,True,7,2,2019_Nov_12_0901,MA_Theta_Exp,3.0.7,59.910086943855795,
video/Experiment/zh_sp01_Dr_Gr_4_NVocInAudio_GlobalThetaInVideo.avi,vocoded,plusVideo,sp01,Dr,Gr,4,2,1,flow/blocks/NVocInAudio_GlobalThetaInVideo_A.csv,,,,,,,,,0,2,2,2,0,9,9,23,-0.36666666666666664,0.10416666666666667,1,0,0,5.738941999996314,call2,-0.02546296296296296,0.08611111111111111,1,0,0,6.288881999993464,colour2,0.43425925925925923,-0.30833333333333335,1,0,0,7.038976700001513,number4,True,True,True,7,2,2019_Nov_12_0901,MA_Theta_Exp,3.0.7,59.910086943855795,
video/Experiment/zh_sp07_Ad_Ro_1_NVocInAudio_GlobalThetaInVideo.avi,vocoded,plusVideo,sp07,Ad,Ro,1,2,1,flow/blocks/NVocInAudio_GlobalThetaInVideo_A.csv,,,,,,,,,0,2,2,2,0,10,10,8,-0.4041666666666667,0.3402777777777778,1,0,0,4.548817299990333,call1,-0.01574074074074074,-0.10833333333333334,1,0,0,5.332174199997098,colour3,0.4041666666666667,0.2902777777777778,1,0,0,6.332203300000401,number1,True,True,True,7,2,2019_Nov_12_0901,MA_Theta_Exp,3.0.7,59.910086943855795,
video/Experiment/zh_sp01_Dr_Ro_2_NVocInAudio_GlobalThetaInVideo.avi,vocoded,plusVideo,sp01,Dr,Ro,2,2,1,flow/blocks/NVocInAudio_GlobalThetaInVideo_A.csv,,,,,,,,,0,2,2,2,0,11,11,25,-0.40185185185185185,0.13055555555555556,1,0,0,5.265442000003532,call2,-0.032407407407407406,-0.10277777777777777,1,0,0,5.698870299995178,colour3,0.4148148148148148,0.09861111111111111,1,0,0,6.152976699988358,number2,True,True,True,7,2,2019_Nov_12_0901,MA_Theta_Exp,3.0.7,59.910086943855795,
video/Experiment/zh_sp01_Ad_Gr_4_NVocInAudio_GlobalThetaInVideo.avi,vocoded,plusVideo,sp01,Ad,Gr,4,2,1,flow/blocks/NVocInAudio_GlobalThetaInVideo_A.csv,,,,,,,,,0,2,2,2,0,12,12,7,-0.41805555555555557,0.32083333333333336,1,0,0,5.448745700006839,call1,-0.04490740740740741,0.15416666666666667,1,0,0,5.864619200001471,colour2,0.3453703703703704,-0.3013888888888889,1,0,0,6.5037394999963,number4,True,True,True,7,2,2019_Nov_12_0901,MA_Theta_Exp,3.0.7,59.910086943855795,
video/Experiment/zh_sp01_Dr_Gr_1_NVocInAudio_GlobalThetaInVideo.avi,vocoded,plusVideo,sp01,Dr,Gr,1,2,1,flow/blocks/NVocInAudio_GlobalThetaInVideo_A.csv,,,,,,,,,0,2,2,2,0,13,13,20,-0.37083333333333335,0.3013888888888889,1,0,0,5.860083999999915,call1,0.04953703703703704,0.08611111111111111,1,0,0,6.342759499995736,colour2,0.4078703703703704,0.30833333333333335,1,0,0,6.859052400002838,number1,False,True,True,7,2,2019_Nov_12_0901,MA_Theta_Exp,3.0.7,59.910086943855795,
video/Experiment/zh_sp01_Ad_Ge_2_NVocInAudio_GlobalThetaInVideo.avi,vocoded,plusVideo,sp01,Ad,Ge,2,2,1,flow/blocks/NVocInAudio_GlobalThetaInVideo_A.csv,,,,,,,,,0,2,2,2,0,14,14,1,-0.34444444444444444,0.3111111111111111,1,0,0,5.394045900000492,call1,0.038425925925925926,0.28055555555555556,1,0,0,6.378046900004847,colour1,0.4023148148148148,0.07222222222222222,1,0,0,6.904196399991633,number2,True,True,True,7,2,2019_Nov_12_0901,MA_Theta_Exp,3.0.7,59.910086943855795,
video/Experiment/zh_sp07_Ad_Ge_1_NVocInAudio_GlobalThetaInVideo.avi,vocoded,plusVideo,sp07,Ad,Ge,1,2,1,flow/blocks/NVocInAudio_GlobalThetaInVideo_A.csv,,,,,,,,,0,2,2,2,0,15,15,0,-0.39305555555555555,0.3055555555555556,1,0,0,4.740222199994605,call1,0.006481481481481481,0.2902777777777778,1,0,0,5.335246500006178,colour1,0.38981481481481484,0.2611111111111111,1,0,0,6.08489319999353,number1,True,True,True,7,2,2019_Nov_12_0901,MA_Theta_Exp,3.0.7,59.910086943855795,
video/Experiment/zh_sp01_Dr_Gr_2_NVocInAudio_GlobalThetaInVideo.avi,vocoded,plusVideo,sp01,Dr,Gr,2,2,1,flow/blocks/NVocInAudio_GlobalThetaInVideo_A.csv,,,,,,,,,0,2,2,2,0,16,16,21,-0.3611111111111111,0.1361111111111111,1,0,0,5.51298769999994,call2,0.028703703703703703,0.12083333333333333,1,0,0,5.979582299987669,colour2,0.40370370370370373,0.06805555555555555,1,0,0,6.413456299997051,number2,True,True,True,7,2,2019_Nov_12_0901,MA_Theta_Exp,3.0.7,59.910086943855795,
video/Experiment/zh_sp01_Dr_Ge_1_NVocInAudio_GlobalThetaInVideo.avi,vocoded,plusVideo,sp01,Dr,Ge,1,2,1,flow/blocks/NVocInAudio_GlobalThetaInVideo_A.csv,,,,,,,,,0,2,2,2,0,17,17,16,-0.3726851851851852,0.09027777777777778,1,0,0,6.7745395000092685,call2,-0.01574074074074074,0.24722222222222223,1,0,0,7.460488900003838,colour1,0.41805555555555557,0.2916666666666667,1,0,0,8.189816199999768,number1,True,True,True,7,2,2019_Nov_12_0901,MA_Theta_Exp,3.0.7,59.910086943855795,
video/Experiment/zh_sp07_Ad_Gr_1_NVocInAudio_GlobalThetaInVideo.avi,vocoded,plusVideo,sp07,Ad,Gr,1,2,1,flow/blocks/NVocInAudio_GlobalThetaInVideo_A.csv,,,,,,,,,0,2,2,2,0,18,18,4,-0.33611111111111114,0.30833333333333335,1,0,0,4.823212400006014,call1,0.003703703703703704,0.06388888888888888,1,0,0,5.5896580000116955,colour2,0.34814814814814815,0.2722222222222222,1,0,0,6.389693699995405,number1,True,True,True,7,2,2019_Nov_12_0901,MA_Theta_Exp,3.0.7,59.910086943855795,
video/Experiment/zh_sp01_Ad_We_3_NVocInAudio_GlobalThetaInVideo.avi,vocoded,plusVideo,sp01,Ad,We,3,2,1,flow/blocks/NVocInAudio_GlobalThetaInVideo_A.csv,,,,,,,,,0,2,2,2,0,19,19,14,-0.39351851851851855,0.29305555555555557,1,0,0,5.710942199992132,call1,0.006481481481481481,-0.3402777777777778,1,0,0,6.355111899989424,colour4,0.4273148148148148,-0.09166666666666666,1,0,0,6.8552951000019675,number3,True,True,True,7,2,2019_Nov_12_0901,MA_Theta_Exp,3.0.7,59.910086943855795,
video/Experiment/zh_sp07_Dr_Ro_1_NVocInAudio_GlobalThetaInVideo.avi,vocoded,plusVideo,sp07,Dr,Ro,1,2,1,flow/blocks/NVocInAudio_GlobalThetaInVideo_A.csv,,,,,,,,,0,2,2,2,0,20,20,24,-0.35694444444444445,0.08611111111111111,1,0,0,4.847145399995497,call2,-0.010185185185185186,-0.13055555555555556,1,0,0,5.36424409999745,colour3,0.3731481481481482,0.30972222222222223,1,0,0,6.046753500006162,number1,True,True,True,7,2,2019_Nov_12_0901,MA_Theta_Exp,3.0.7,59.910086943855795,
video/Experiment/zh_sp07_Ad_Ro_3_NVocInAudio_GlobalThetaInVideo.avi,vocoded,plusVideo,sp07,Ad,Ro,3,2,1,flow/blocks/NVocInAudio_GlobalThetaInVideo_A.csv,,,,,,,,,0,2,2,2,0,21,21,10,-0.38333333333333336,0.07777777777777778,1,0,0,6.1020297999930335,call2,-0.010185185185185186,-0.12916666666666668,1,0,0,6.56884490000084,colour3,0.399537037037037,-0.12222222222222222,1,0,0,7.019197900008294,number3,False,True,True,7,2,2019_Nov_12_0901,MA_Theta_Exp,3.0.7,59.910086943855795,
video/Experiment/zh_sp01_Dr_Ro_3_NVocInAudio_GlobalThetaInVideo.avi,vocoded,plusVideo,sp01,Dr,Ro,3,2,1,flow/blocks/NVocInAudio_GlobalThetaInVideo_A.csv,,,,,,,,,0,2,2,2,0,22,22,26,-0.37777777777777777,0.11805555555555555,1,0,0,5.276443499999004,call2,0.017592592592592594,-0.12222222222222222,1,0,0,5.947100500008673,colour3,0.4097222222222222,-0.0763888888888889,1,0,0,6.829427000004216,number3,True,True,True,7,2,2019_Nov_12_0901,MA_Theta_Exp,3.0.7,59.910086943855795,
video/Experiment/zh_sp01_Ad_We_4_NVocInAudio_GlobalThetaInVideo.avi,vocoded,plusVideo,sp01,Ad,We,4,2,1,flow/blocks/NVocInAudio_GlobalThetaInVideo_A.csv,,,,,,,,,0,2,2,2,0,23,23,15,-0.3958333333333333,0.31666666666666665,1,0,0,5.219616200003657,call1,-0.013888888888888888,0.13055555555555556,1,0,0,5.769381799997063,colour2,0.0375,-0.30694444444444446,1,0,0,7.4922080999967875,number4,True,False,True,7,2,2019_Nov_12_0901,MA_Theta_Exp,3.0.7,59.910086943855795,
video/Experiment/zh_sp07_Ad_We_1_NVocInAudio_GlobalThetaInVideo.avi,vocoded,plusVideo,sp07,Ad,We,1,2,1,flow/blocks/NVocInAudio_GlobalThetaInVideo_A.csv,,,,,,,,,0,2,2,2,0,24,24,12,-0.3486111111111111,0.31527777777777777,1,0,0,6.016717799997423,call1,0.038425925925925926,-0.3111111111111111,1,0,0,6.767163499986054,colour4,0.34120370370370373,0.31666666666666665,1,0,0,7.500646999993478,number1,True,True,True,7,2,2019_Nov_12_0901,MA_Theta_Exp,3.0.7,59.910086943855795,
video/Experiment/zh_sp07_Dr_We_3_NVocInAudio_GlobalThetaInVideo.avi,vocoded,plusVideo,sp07,Dr,We,3,2,1,flow/blocks/NVocInAudio_GlobalThetaInVideo_A.csv,,,,,,,,,0,2,2,2,0,25,25,30,-0.4083333333333333,0.11805555555555555,1,0,0,4.436131500013289,call2,0.04398148148148148,-0.3402777777777778,1,0,0,5.069795600007637,colour4,0.3939814814814815,-0.0875,1,0,0,5.652400899998611,number3,True,True,True,7,2,2019_Nov_12_0901,MA_Theta_Exp,3.0.7,59.910086943855795,
video/Experiment/zh_sp07_Ad_Ro_4_NVocInAudio_GlobalThetaInVideo.avi,vocoded,plusVideo,sp07,Ad,Ro,4,2,1,flow/blocks/NVocInAudio_GlobalThetaInVideo_A.csv,,,,,,,,,0,2,2,2,0,26,26,11,-0.38472222222222224,0.33055555555555555,1,0,0,5.161375099996803,call1,0.06342592592592593,-0.12361111111111112,1,0,0,5.851857500005281,colour3,0.3578703703703704,-0.3263888888888889,1,0,0,6.54912750000949,number4,True,True,True,7,2,2019_Nov_12_0901,MA_Theta_Exp,3.0.7,59.910086943855795,
video/Experiment/zh_sp07_Ad_Gr_3_NVocInAudio_GlobalThetaInVideo.avi,vocoded,plusVideo,sp07,Ad,Gr,3,2,1,flow/blocks/NVocInAudio_GlobalThetaInVideo_A.csv,,,,,,,,,0,2,2,2,0,27,27,6,-0.3416666666666667,0.3013888888888889,1,0,0,5.424034700001357,call1,0.03148148148148148,0.06527777777777778,1,0,0,6.938033300000825,colour2,0.46620370370370373,-0.12638888888888888,1,0,0,7.954325400001835,number3,True,True,True,7,2,2019_Nov_12_0901,MA_Theta_Exp,3.0.7,59.910086943855795,
video/Experiment/zh_sp07_Dr_Gr_3_NVocInAudio_GlobalThetaInVideo.avi,vocoded,plusVideo,sp07,Dr,Gr,3,2,1,flow/blocks/NVocInAudio_GlobalThetaInVideo_A.csv,,,,,,,,,0,2,2,2,0,28,28,22,-0.35555555555555557,0.06805555555555555,1,0,0,4.921068900002865,call2,0.03287037037037037,0.059722222222222225,1,0,0,5.632264800005942,colour2,0.3925925925925926,-0.11388888888888889,1,0,0,6.515631999995094,number3,True,True,True,7,2,2019_Nov_12_0901,MA_Theta_Exp,3.0.7,59.910086943855795,
video/Experiment/zh_sp01_Dr_We_2_NVocInAudio_GlobalThetaInVideo.avi,vocoded,plusVideo,sp01,Dr,We,2,2,1,flow/blocks/NVocInAudio_GlobalThetaInVideo_A.csv,,,,,,,,,0,2,2,2,0,29,29,29,-0.3712962962962963,0.09305555555555556,1,0,0,7.024416400003247,call2,-0.0060185185185185185,-0.3111111111111111,1,0,0,8.081632000001264,colour4,0.42592592592592593,0.08055555555555556,1,0,0,9.246188300006907,number2,True,True,True,7,2,2019_Nov_12_0901,MA_Theta_Exp,3.0.7,59.910086943855795,
video/Experiment/zh_sp01_Ad_Gr_2_NVocInAudio_GlobalThetaInVideo.avi,vocoded,plusVideo,sp01,Ad,Gr,2,2,1,flow/blocks/NVocInAudio_GlobalThetaInVideo_A.csv,,,,,,,,,0,2,2,2,0,30,30,5,-0.37083333333333335,0.30416666666666664,1,0,0,5.927758000005269,call1,0.0023148148148148147,0.11805555555555555,1,0,0,6.458984600001713,colour2,0.4287037037037037,0.1,1,0,0,7.125078099998063,number2,True,True,True,7,2,2019_Nov_12_0901,MA_Theta_Exp,3.0.7,59.910086943855795,
video/Experiment/zh_sp07_Ad_Ro_2_NVocInAudio_GlobalThetaInVideo.avi,vocoded,plusVideo,sp07,Ad,Ro,2,2,1,flow/blocks/NVocInAudio_GlobalThetaInVideo_A.csv,,,,,,,,,0,2,2,2,0,31,31,9,-0.3763888888888889,0.3,1,0,0,4.837115199989057,call1,-0.05185185185185185,-0.1,1,0,0,5.470285299990792,colour3,0.36944444444444446,0.09583333333333334,1,0,0,6.02024430000165,number2,True,True,True,7,2,2019_Nov_12_0901,MA_Theta_Exp,3.0.7,59.910086943855795,
video/Experiment/zh_sp01_Ad_We_4_NoThetaInAudio_NoVideo.avi,noTheta,noVideo,sp01,Ad,We,4,3,4,flow/blocks/NoThetaInAudio_NoVideo_A.csv,,,,,,,,,0,3,3,3,0,0,0,15,-0.4041666666666667,0.3236111111111111,1,0,0,5.4534387000021525,call1,-0.0060185185185185185,-0.30277777777777776,1,0,0,6.220344999994268,colour4,0.42314814814814816,-0.33055555555555555,1,0,0,7.74154859999544,number4,True,True,True,7,2,2019_Nov_12_0901,MA_Theta_Exp,3.0.7,59.910086943855795,
video/Experiment/zh_sp07_Dr_Ro_1_NoThetaInAudio_NoVideo.avi,noTheta,noVideo,sp07,Dr,Ro,1,3,4,flow/blocks/NoThetaInAudio_NoVideo_A.csv,,,,,,,,,0,3,3,3,0,1,1,24,-0.3611111111111111,0.31805555555555554,1,0,0,4.984081599992351,call1,-0.0060185185185185185,-0.075,1,0,0,6.167252999992343,colour3,0.4111111111111111,0.2861111111111111,1,0,0,6.984058100002585,number1,False,True,True,7,2,2019_Nov_12_0901,MA_Theta_Exp,3.0.7,59.910086943855795,
video/Experiment/zh_sp07_Ad_Gr_1_NoThetaInAudio_NoVideo.avi,noTheta,noVideo,sp07,Ad,Gr,1,3,4,flow/blocks/NoThetaInAudio_NoVideo_A.csv,,,,,,,,,0,3,3,3,0,2,2,4,-0.3888888888888889,0.32916666666666666,1,0,0,4.995188699991559,call1,0.017592592592592594,0.07361111111111111,1,0,0,5.728906400006963,colour2,0.4064814814814815,0.325,1,0,0,6.79511310000089,number1,True,True,True,7,2,2019_Nov_12_0901,MA_Theta_Exp,3.0.7,59.910086943855795,
video/Experiment/zh_sp01_Dr_We_2_NoThetaInAudio_NoVideo.avi,noTheta,noVideo,sp01,Dr,We,2,3,4,flow/blocks/NoThetaInAudio_NoVideo_A.csv,,,,,,,,,0,3,3,3,0,3,3,29,-0.4101851851851852,0.31527777777777777,1,0,0,5.792478899995331,call1,-0.0060185185185185185,-0.3458333333333333,1,0,0,6.558055499990587,colour4,0.4027777777777778,0.14722222222222223,1,0,0,7.741070000003674,number2,False,True,True,7,2,2019_Nov_12_0901,MA_Theta_Exp,3.0.7,59.910086943855795,
video/Experiment/zh_sp07_Ad_Gr_4_NoThetaInAudio_NoVideo.avi,noTheta,noVideo,sp07,Ad,Gr,4,3,4,flow/blocks/NoThetaInAudio_NoVideo_A.csv,,,,,,,,,0,3,3,3,0,4,4,7,-0.37777777777777777,0.3111111111111111,1,0,0,5.064735300009488,call1,0.025925925925925925,0.11805555555555555,1,0,0,5.84832180000376,colour2,0.4273148148148148,-0.29444444444444445,1,0,0,6.636726600001566,number4,True,True,True,7,2,2019_Nov_12_0901,MA_Theta_Exp,3.0.7,59.910086943855795,
video/Experiment/zh_sp07_Dr_Ge_2_NoThetaInAudio_NoVideo.avi,noTheta,noVideo,sp07,Dr,Ge,2,3,4,flow/blocks/NoThetaInAudio_NoVideo_A.csv,,,,,,,,,0,3,3,3,0,5,5,17,-0.39861111111111114,0.32222222222222224,1,0,0,5.846463299996685,call1,0.05138888888888889,0.30833333333333335,1,0,0,6.7129959000012605,colour1,0.39537037037037037,0.125,1,0,0,7.856065100000706,number2,False,True,True,7,2,2019_Nov_12_0901,MA_Theta_Exp,3.0.7,59.910086943855795,
video/Experiment/zh_sp07_Ad_Ge_1_NoThetaInAudio_NoVideo.avi,noTheta,noVideo,sp07,Ad,Ge,1,3,4,flow/blocks/NoThetaInAudio_NoVideo_A.csv,,,,,,,,,0,3,3,3,0,6,6,0,-0.37083333333333335,0.3138888888888889,1,0,0,4.777219700001297,call1,0.053703703703703705,0.30416666666666664,1,0,0,5.5741943000030005,colour1,0.41898148148148145,0.28194444444444444,1,0,0,6.307458099996438,number1,True,True,True,7,2,2019_Nov_12_0901,MA_Theta_Exp,3.0.7,59.910086943855795,
video/Experiment/zh_sp01_Dr_Ge_3_NoThetaInAudio_NoVideo.avi,noTheta,noVideo,sp01,Dr,Ge,3,3,4,flow/blocks/NoThetaInAudio_NoVideo_A.csv,,,,,,,,,0,3,3,3,0,7,7,18,-0.3486111111111111,0.3111111111111111,1,0,0,5.567305699994904,call1,0.01898148148148148,0.28888888888888886,1,0,0,6.100394599998253,colour1,0.43425925925925923,-0.15694444444444444,1,0,0,6.800644200004172,number3,False,True,True,7,2,2019_Nov_12_0901,MA_Theta_Exp,3.0.7,59.910086943855795,
video/Experiment/zh_sp07_Dr_We_4_NoThetaInAudio_NoVideo.avi,noTheta,noVideo,sp07,Dr,We,4,3,4,flow/blocks/NoThetaInAudio_NoVideo_A.csv,,,,,,,,,0,3,3,3,0,8,8,31,-0.4046296296296296,0.3111111111111111,1,0,0,5.218423700003768,call1,-0.001851851851851852,-0.3375,1,0,0,6.199037099999259,colour4,0.4111111111111111,-0.2986111111111111,1,0,0,6.71558350000123,number4,False,True,True,7,2,2019_Nov_12_0901,MA_Theta_Exp,3.0.7,59.910086943855795,
video/Experiment/zh_sp07_Ad_Ro_2_NoThetaInAudio_NoVideo.avi,noTheta,noVideo,sp07,Ad,Ro,2,3,4,flow/blocks/NoThetaInAudio_NoVideo_A.csv,,,,,,,,,0,3,3,3,0,9,9,9,-0.38333333333333336,0.325,1,0,0,4.841793100000359,call1,0.010648148148148148,-0.09861111111111111,1,0,0,5.521479200004251,colour3,0.40555555555555556,0.10694444444444444,1,0,0,7.186599799999385,number2,True,True,True,7,2,2019_Nov_12_0901,MA_Theta_Exp,3.0.7,59.910086943855795,
video/Experiment/zh_sp01_Ad_Ro_4_NoThetaInAudio_NoVideo.avi,noTheta,noVideo,sp01,Ad,Ro,4,3,4,flow/blocks/NoThetaInAudio_NoVideo_A.csv,,,,,,,,,0,3,3,3,0,10,10,11,-0.39490740740740743,0.2861111111111111,1,0,0,6.390787899988936,call1,0.0023148148148148147,-0.08472222222222223,1,0,0,7.124170800001593,colour3,0.4064814814814815,-0.3111111111111111,1,0,0,7.8916276000090875,number4,True,True,True,7,2,2019_Nov_12_0901,MA_Theta_Exp,3.0.7,59.910086943855795,
video/Experiment/zh_sp01_Dr_Gr_4_NoThetaInAudio_NoVideo.avi,noTheta,noVideo,sp01,Dr,Gr,4,3,4,flow/blocks/NoThetaInAudio_NoVideo_A.csv,,,,,,,,,0,3,3,3,0,11,11,23,-0.3486111111111111,0.10416666666666667,1,0,0,5.611875000002328,call2,0.009259259259259259,0.08055555555555556,1,0,0,6.368927099989378,colour2,0.4023148148148148,-0.30833333333333335,1,0,0,7.180139200005215,number4,True,True,True,7,2,2019_Nov_12_0901,MA_Theta_Exp,3.0.7,59.910086943855795,
video/Experiment/zh_sp01_Ad_We_1_NoThetaInAudio_NoVideo.avi,noTheta,noVideo,sp01,Ad,We,1,3,4,flow/blocks/NoThetaInAudio_NoVideo_A.csv,,,,,,,,,0,3,3,3,0,12,12,12,-0.39351851851851855,0.33194444444444443,1,0,0,6.281700100007583,call1,0.020370370370370372,-0.30416666666666664,1,0,0,6.947726800004602,colour4,0.4023148148148148,0.3458333333333333,1,0,0,7.747876499997801,number1,True,True,True,7,2,2019_Nov_12_0901,MA_Theta_Exp,3.0.7,59.910086943855795,
video/Experiment/zh_sp01_Dr_Ro_3_NoThetaInAudio_NoVideo.avi,noTheta,noVideo,sp01,Dr,Ro,3,3,4,flow/blocks/NoThetaInAudio_NoVideo_A.csv,,,,,,,,,0,3,3,3,0,13,13,26,-0.39351851851851855,0.07361111111111111,1,0,0,6.033584000004339,call2,0.052314814814814814,-0.09722222222222222,1,0,0,6.95732990000397,colour3,0.44675925925925924,-0.1375,1,0,0,7.62290529999882,number3,True,True,True,7,2,2019_Nov_12_0901,MA_Theta_Exp,3.0.7,59.910086943855795,
video/Experiment/zh_sp07_Ad_Ge_4_NoThetaInAudio_NoVideo.avi,noTheta,noVideo,sp07,Ad,Ge,4,3,4,flow/blocks/NoThetaInAudio_NoVideo_A.csv,,,,,,,,,0,3,3,3,0,14,14,3,-0.42916666666666664,0.34305555555555556,1,0,0,4.972568299999693,call1,0.02175925925925926,0.3,1,0,0,5.588945800001966,colour1,0.39444444444444443,-0.30277777777777776,1,0,0,6.605176800003392,number4,True,True,True,7,2,2019_Nov_12_0901,MA_Theta_Exp,3.0.7,59.910086943855795,
video/Experiment/zh_sp07_Ad_Ro_1_NoThetaInAudio_NoVideo.avi,noTheta,noVideo,sp07,Ad,Ro,1,3,4,flow/blocks/NoThetaInAudio_NoVideo_A.csv,,,,,,,,,0,3,3,3,0,15,15,8,-0.36666666666666664,0.28888888888888886,1,0,0,4.779439599995385,call1,-0.012962962962962963,-0.10972222222222222,1,0,0,5.362874400001601,colour3,0.387037037037037,0.32083333333333336,1,0,0,6.2968120000005,number1,True,True,True,7,2,2019_Nov_12_0901,MA_Theta_Exp,3.0.7,59.910086943855795,
video/Experiment/zh_sp01_Dr_Ro_2_NoThetaInAudio_NoVideo.avi,noTheta,noVideo,sp01,Dr,Ro,2,3,4,flow/blocks/NoThetaInAudio_NoVideo_A.csv,,,,,,,,,0,3,3,3,0,16,16,25,-0.40694444444444444,0.09027777777777778,1,0,0,5.821113099998911,call2,0.017592592592592594,0.30277777777777776,1,0,0,6.504157300005318,colour1,0.38564814814814813,0.0875,1,0,0,7.325089999998454,number2,True,False,True,7,2,2019_Nov_12_0901,MA_Theta_Exp,3.0.7,59.910086943855795,
video/Experiment/zh_sp01_Dr_We_1_NoThetaInAudio_NoVideo.avi,noTheta,noVideo,sp01,Dr,We,1,3,4,flow/blocks/NoThetaInAudio_NoVideo_A.csv,,,,,,,,,0,3,3,3,0,17,17,28,-0.4097222222222222,0.09166666666666666,1,0,0,6.310702699993271,call2,0.09953703703703703,-0.3402777777777778,1,0,0,7.741336200007936,colour4,0.38564814814814813,0.325,1,0,0,8.957872999992105,number1,True,True,True,7,2,2019_Nov_12_0901,MA_Theta_Exp,3.0.7,59.910086943855795,
video/Experiment/zh_sp07_Dr_Gr_1_NoThetaInAudio_NoVideo.avi,noTheta,noVideo,sp07,Dr,Gr,1,3,4,flow/blocks/NoThetaInAudio_NoVideo_A.csv,,,,,,,,,0,3,3,3,0,18,18,20,-0.4,0.06944444444444445,1,0,0,5.1852447999990545,call2,-0.011574074074074073,0.14444444444444443,1,0,0,5.7293530000024475,colour2,0.37453703703703706,0.33194444444444443,1,0,0,6.333016600008705,number1,True,True,True,7,2,2019_Nov_12_0901,MA_Theta_Exp,3.0.7,59.910086943855795,
video/Experiment/zh_sp07_Dr_Ge_1_NoThetaInAudio_NoVideo.avi,noTheta,noVideo,sp07,Dr,Ge,1,3,4,flow/blocks/NoThetaInAudio_NoVideo_A.csv,,,,,,,,,0,3,3,3,0,19,19,16,-0.3921296296296296,0.11666666666666667,1,0,0,4.824755699999514,call2,0.006481481481481481,0.2875,1,0,0,5.624736500001745,colour1,0.4222222222222222,0.32916666666666666,1,0,0,6.623942099991837,number1,True,True,True,7,2,2019_Nov_12_0901,MA_Theta_Exp,3.0.7,59.910086943855795,
video/Experiment/zh_sp01_Ad_Ro_3_NoThetaInAudio_NoVideo.avi,noTheta,noVideo,sp01,Ad,Ro,3,3,4,flow/blocks/NoThetaInAudio_NoVideo_A.csv,,,,,,,,,0,3,3,3,0,20,20,10,-0.38472222222222224,0.2972222222222222,1,0,0,5.606656000003568,call1,-0.011574074074074073,-0.12777777777777777,1,0,0,6.270953500003088,colour3,0.4527777777777778,-0.08333333333333333,1,0,0,6.874233800001093,number3,True,True,True,7,2,2019_Nov_12_0901,MA_Theta_Exp,3.0.7,59.910086943855795,
video/Experiment/zh_sp01_Dr_Ro_4_NoThetaInAudio_NoVideo.avi,noTheta,noVideo,sp01,Dr,Ro,4,3,4,flow/blocks/NoThetaInAudio_NoVideo_A.csv,,,,,,,,,0,3,3,3,0,21,21,27,-0.4111111111111111,0.125,1,0,0,5.647266700005275,call2,-0.02962962962962963,-0.1125,1,0,0,6.146876099999645,colour3,0.39305555555555555,-0.3055555555555556,1,0,0,7.064351900000474,number4,True,True,True,7,2,2019_Nov_12_0901,MA_Theta_Exp,3.0.7,59.910086943855795,
video/Experiment/zh_sp01_Ad_We_2_NoThetaInAudio_NoVideo.avi,noTheta,noVideo,sp01,Ad,We,2,3,4,flow/blocks/NoThetaInAudio_NoVideo_A.csv,,,,,,,,,0,3,3,3,0,22,22,13,-0.375,0.28888888888888886,1,0,0,6.072930199996335,call1,-0.022685185185185187,-0.3138888888888889,1,0,0,6.689700599992648,colour4,0.38287037037037036,0.11527777777777778,1,0,0,7.705796099995496,number2,True,True,True,7,2,2019_Nov_12_0901,MA_Theta_Exp,3.0.7,59.910086943855795,
video/Experiment/zh_sp01_Ad_We_3_NoThetaInAudio_NoVideo.avi,noTheta,noVideo,sp01,Ad,We,3,3,4,flow/blocks/NoThetaInAudio_NoVideo_A.csv,,,,,,,,,0,3,3,3,0,23,23,14,-0.37083333333333335,0.31666666666666665,1,0,0,5.78219509999326,call1,0.027314814814814816,-0.32083333333333336,1,0,0,6.432095299998764,colour4,0.41944444444444445,-0.09027777777777778,1,0,0,7.322096700008842,number3,True,True,True,7,2,2019_Nov_12_0901,MA_Theta_Exp,3.0.7,59.910086943855795,
video/Experiment/zh_sp01_Ad_Gr_3_NoThetaInAudio_NoVideo.avi,noTheta,noVideo,sp01,Ad,Gr,3,3,4,flow/blocks/NoThetaInAudio_NoVideo_A.csv,,,,,,,,,0,3,3,3,0,24,24,6,-0.3527777777777778,0.2986111111111111,1,0,0,5.463332600003923,call1,0.027314814814814816,0.06944444444444445,1,0,0,6.11582510000153,colour2,0.425,-0.10277777777777777,1,0,0,7.0195230999961495,number3,True,True,True,7,2,2019_Nov_12_0901,MA_Theta_Exp,3.0.7,59.910086943855795,
video/Experiment/zh_sp07_Dr_Gr_2_NoThetaInAudio_NoVideo.avi,noTheta,noVideo,sp07,Dr,Gr,2,3,4,flow/blocks/NoThetaInAudio_NoVideo_A.csv,,,,,,,,,0,3,3,3,0,25,25,21,-0.36712962962962964,0.10416666666666667,1,0,0,4.901608100000885,call2,-0.010185185185185186,0.13055555555555556,1,0,0,5.7788627999980235,colour2,0.4009259259259259,0.08888888888888889,1,0,0,6.732060099995579,number2,True,True,True,7,2,2019_Nov_12_0901,MA_Theta_Exp,3.0.7,59.910086943855795,
video/Experiment/zh_sp07_Ad_Ge_2_NoThetaInAudio_NoVideo.avi,noTheta,noVideo,sp07,Ad,Ge,2,3,4,flow/blocks/NoThetaInAudio_NoVideo_A.csv,,,,,,,,,0,3,3,3,0,26,26,1,-0.3972222222222222,0.29583333333333334,1,0,0,4.743817099995795,call1,0.028703703703703703,0.32083333333333336,1,0,0,5.4419346999929985,colour1,0.42314814814814816,0.13333333333333333,1,0,0,6.056798999998136,number2,True,True,True,7,2,2019_Nov_12_0901,MA_Theta_Exp,3.0.7,59.910086943855795,
video/Experiment/zh_sp01_Ad_Ge_3_NoThetaInAudio_NoVideo.avi,noTheta,noVideo,sp01,Ad,Ge,3,3,4,flow/blocks/NoThetaInAudio_NoVideo_A.csv,,,,,,,,,0,3,3,3,0,27,27,2,-0.3638888888888889,0.31527777777777777,1,0,0,5.182206099998439,call1,0.005092592592592593,0.31666666666666665,1,0,0,6.994321599995601,colour1,0.4300925925925926,-0.1125,1,0,0,7.727761200003442,number3,True,True,True,7,2,2019_Nov_12_0901,MA_Theta_Exp,3.0.7,59.910086943855795,
video/Experiment/zh_sp07_Ad_Gr_2_NoThetaInAudio_NoVideo.avi,noTheta,noVideo,sp07,Ad,Gr,2,3,4,flow/blocks/NoThetaInAudio_NoVideo_A.csv,,,,,,,,,0,3,3,3,0,28,28,5,-0.3416666666666667,0.275,1,0,0,5.360837899992475,call1,0.013888888888888888,0.1,1,0,0,5.961048099998152,colour2,0.4064814814814815,0.06805555555555555,1,0,0,6.8168717000080505,number2,True,True,True,7,2,2019_Nov_12_0901,MA_Theta_Exp,3.0.7,59.910086943855795,
video/Experiment/zh_sp07_Dr_Ge_4_NoThetaInAudio_NoVideo.avi,noTheta,noVideo,sp07,Dr,Ge,4,3,4,flow/blocks/NoThetaInAudio_NoVideo_A.csv,,,,,,,,,0,3,3,3,0,29,29,19,-0.3888888888888889,-0.31527777777777777,1,0,0,5.037494999996852,call4,-0.008796296296296297,0.29305555555555557,1,0,0,6.403281699997024,colour1,0.3680555555555556,-0.2902777777777778,1,0,0,7.1043811999988975,number4,False,True,True,7,2,2019_Nov_12_0901,MA_Theta_Exp,3.0.7,59.910086943855795,
video/Experiment/zh_sp01_Dr_We_3_NoThetaInAudio_NoVideo.avi,noTheta,noVideo,sp01,Dr,We,3,3,4,flow/blocks/NoThetaInAudio_NoVideo_A.csv,,,,,,,,,0,3,3,3,0,30,30,30,-0.375,0.10694444444444444,1,0,0,7.131538199988427,call2,0.015277777777777777,-0.33611111111111114,1,0,0,8.36421449999034,colour4,0.4203703703703704,-0.12222222222222222,1,0,0,9.597513500004425,number3,True,True,True,7,2,2019_Nov_12_0901,MA_Theta_Exp,3.0.7,59.910086943855795,
video/Experiment/zh_sp07_Dr_Gr_3_NoThetaInAudio_NoVideo.avi,noTheta,noVideo,sp07,Dr,Gr,3,3,4,flow/blocks/NoThetaInAudio_NoVideo_A.csv,,,,,,,,,0,3,3,3,0,31,31,22,-0.3087962962962963,0.11944444444444445,1,0,0,4.852264899993315,call2,0.010648148148148148,0.09305555555555556,1,0,0,6.151683599993703,colour2,0.3912037037037037,-0.1,1,0,0,6.835301499988418,number3,True,True,True,7,2,2019_Nov_12_0901,MA_Theta_Exp,3.0.7,59.910086943855795,
video/Experiment/zh_sp01_Ad_Ro_3_NVocInAudio_NoVideo.avi,vocoded,noVideo,sp01,Ad,Ro,3,4,2,flow/blocks/NVocInAudio_NoVideo_A.csv,,,,,,,,,0,4,4,4,0,0,0,10,-0.35694444444444445,0.3138888888888889,1,0,0,5.3983121999917785,call1,0.003703703703703704,-0.059722222222222225,1,0,0,6.215387800009921,colour3,0.3925925925925926,-0.09027777777777778,1,0,0,6.781234499998391,number3,True,True,True,7,2,2019_Nov_12_0901,MA_Theta_Exp,3.0.7,59.910086943855795,
video/Experiment/zh_sp07_Dr_Gr_3_NVocInAudio_NoVideo.avi,vocoded,noVideo,sp07,Dr,Gr,3,4,2,flow/blocks/NVocInAudio_NoVideo_A.csv,,,,,,,,,0,4,4,4,0,1,1,22,-0.37407407407407406,0.1111111111111111,1,0,0,5.634876999989501,call2,0.03148148148148148,0.10277777777777777,1,0,0,6.8519931999908295,colour2,0.3662037037037037,-0.11805555555555555,1,0,0,7.740397000001394,number3,True,True,True,7,2,2019_Nov_12_0901,MA_Theta_Exp,3.0.7,59.910086943855795,
video/Experiment/zh_sp07_Dr_Gr_1_NVocInAudio_NoVideo.avi,vocoded,noVideo,sp07,Dr,Gr,1,4,2,flow/blocks/NVocInAudio_NoVideo_A.csv,,,,,,,,,0,4,4,4,0,2,2,20,-0.3611111111111111,0.08055555555555556,1,0,0,4.889236200004234,call2,-0.01574074074074074,0.10694444444444444,1,0,0,5.589142400000128,colour2,0.3861111111111111,0.3138888888888889,1,0,0,6.555834799990407,number1,True,True,True,7,2,2019_Nov_12_0901,MA_Theta_Exp,3.0.7,59.910086943855795,
video/Experiment/zh_sp07_Ad_Ro_1_NVocInAudio_NoVideo.avi,vocoded,noVideo,sp07,Ad,Ro,1,4,2,flow/blocks/NVocInAudio_NoVideo_A.csv,,,,,,,,,0,4,4,4,0,3,3,8,-0.4111111111111111,0.34305555555555556,1,0,0,4.556479300008505,call1,0.00787037037037037,-0.1361111111111111,1,0,0,5.419003899995005,colour3,0.39861111111111114,0.30277777777777776,1,0,0,6.285473299998557,number1,True,True,True,7,2,2019_Nov_12_0901,MA_Theta_Exp,3.0.7,59.910086943855795,
video/Experiment/zh_sp01_Dr_Ro_3_NVocInAudio_NoVideo.avi,vocoded,noVideo,sp01,Dr,Ro,3,4,2,flow/blocks/NVocInAudio_NoVideo_A.csv,,,,,,,,,0,4,4,4,0,4,4,26,-0.37824074074074077,0.08888888888888889,1,0,0,5.627234900006442,call2,-0.040740740740740744,-0.12916666666666668,1,0,0,6.360232999999425,colour3,0.40925925925925927,-0.10138888888888889,1,0,0,6.950307100007194,number3,True,True,True,7,2,2019_Nov_12_0901,MA_Theta_Exp,3.0.7,59.910086943855795,
video/Experiment/zh_sp01_Dr_Ro_1_NVocInAudio_NoVideo.avi,vocoded,noVideo,sp01,Dr,Ro,1,4,2,flow/blocks/NVocInAudio_NoVideo_A.csv,,,,,,,,,0,4,4,4,0,5,5,24,-0.3902777777777778,0.1125,1,0,0,5.547927199993865,call2,-0.011574074074074073,-0.11944444444444445,1,0,0,6.243911800003843,colour3,0.41064814814814815,0.325,1,0,0,6.993854400003329,number1,True,True,True,7,2,2019_Nov_12_0901,MA_Theta_Exp,3.0.7,59.910086943855795,
video/Experiment/zh_sp01_Ad_Gr_2_NVocInAudio_NoVideo.avi,vocoded,noVideo,sp01,Ad,Gr,2,4,2,flow/blocks/NVocInAudio_NoVideo_A.csv,,,,,,,,,0,4,4,4,0,6,6,5,-0.3763888888888889,0.32083333333333336,1,0,0,6.11155059999146,call1,0.01898148148148148,0.09861111111111111,1,0,0,6.628293100002338,colour2,0.4300925925925926,0.10277777777777777,1,0,0,7.028334499991615,number2,True,True,True,7,2,2019_Nov_12_0901,MA_Theta_Exp,3.0.7,59.910086943855795,
video/Experiment/zh_sp01_Ad_We_3_NVocInAudio_NoVideo.avi,vocoded,noVideo,sp01,Ad,We,3,4,2,flow/blocks/NVocInAudio_NoVideo_A.csv,,,,,,,,,0,4,4,4,0,7,7,14,-0.3541666666666667,0.33611111111111114,1,0,0,5.714182800002163,call1,0.03564814814814815,-0.2972222222222222,1,0,0,6.558383600000525,colour4,0.3787037037037037,-0.09861111111111111,1,0,0,7.449882599990815,number3,True,True,True,7,2,2019_Nov_12_0901,MA_Theta_Exp,3.0.7,59.910086943855795,
video/Experiment/zh_sp07_Dr_We_2_NVocInAudio_NoVideo.avi,vocoded,noVideo,sp07,Dr,We,2,4,2,flow/blocks/NVocInAudio_NoVideo_A.csv,,,,,,,,,0,4,4,4,0,8,8,29,-0.3875,0.11666666666666667,1,0,0,4.8048562000039965,call2,-0.01712962962962963,-0.3125,1,0,0,5.422210899996571,colour4,0.38287037037037036,0.07361111111111111,1,0,0,6.090174500001012,number2,True,True,True,7,2,2019_Nov_12_0901,MA_Theta_Exp,3.0.7,59.910086943855795,
video/Experiment/zh_sp01_Dr_Ge_1_NVocInAudio_NoVideo.avi,vocoded,noVideo,sp01,Dr,Ge,1,4,2,flow/blocks/NVocInAudio_NoVideo_A.csv,,,,,,,,,0,4,4,4,0,9,9,16,-0.42268518518518516,0.1375,1,0,0,5.4189569000009215,call2,0.009259259259259259,0.30694444444444446,1,0,0,6.118964799999958,colour1,0.39675925925925926,0.3,1,0,0,6.935625099999015,number1,True,True,True,7,2,2019_Nov_12_0901,MA_Theta_Exp,3.0.7,59.910086943855795,
video/Experiment/zh_sp07_Ad_Ge_4_NVocInAudio_NoVideo.avi,vocoded,noVideo,sp07,Ad,Ge,4,4,2,flow/blocks/NVocInAudio_NoVideo_A.csv,,,,,,,,,0,4,4,4,0,10,10,3,-0.3763888888888889,0.3416666666666667,1,0,0,4.789943399999174,call1,0.028703703703703703,0.325,1,0,0,5.337962799996603,colour1,0.39814814814814814,-0.32083333333333336,1,0,0,6.102335999996285,number4,True,True,True,7,2,2019_Nov_12_0901,MA_Theta_Exp,3.0.7,59.910086943855795,
video/Experiment/zh_sp01_Ad_We_2_NVocInAudio_NoVideo.avi,vocoded,noVideo,sp01,Ad,We,2,4,2,flow/blocks/NVocInAudio_NoVideo_A.csv,,,,,,,,,0,4,4,4,0,11,11,13,-0.3851851851851852,0.325,1,0,0,5.778214000005391,call1,0.005555555555555556,-0.3111111111111111,1,0,0,6.527992200004519,colour4,0.37592592592592594,0.09444444444444444,1,0,0,7.244754700004705,number2,True,True,True,7,2,2019_Nov_12_0901,MA_Theta_Exp,3.0.7,59.910086943855795,
video/Experiment/zh_sp01_Ad_Ge_3_NVocInAudio_NoVideo.avi,vocoded,noVideo,sp01,Ad,Ge,3,4,2,flow/blocks/NVocInAudio_NoVideo_A.csv,,,,,,,,,0,4,4,4,0,12,12,2,-0.4185185185185185,0.32222222222222224,1,0,0,5.095639899998787,call1,0.034722222222222224,0.2902777777777778,1,0,0,5.845720099998289,colour1,0.4064814814814815,-0.07361111111111111,1,0,0,6.46197740000207,number3,True,True,True,7,2,2019_Nov_12_0901,MA_Theta_Exp,3.0.7,59.910086943855795,
video/Experiment/zh_sp07_Dr_Ge_4_NVocInAudio_NoVideo.avi,vocoded,noVideo,sp07,Dr,Ge,4,4,2,flow/blocks/NVocInAudio_NoVideo_A.csv,,,,,,,,,0,4,4,4,0,13,13,19,-0.38657407407407407,0.1,1,0,0,4.854530700002215,call2,0.04861111111111111,0.30833333333333335,1,0,0,5.454528699992807,colour1,0.39537037037037037,-0.3055555555555556,1,0,0,6.039575899994816,number4,True,True,True,7,2,2019_Nov_12_0901,MA_Theta_Exp,3.0.7,59.910086943855795,
video/Experiment/zh_sp07_Dr_Ro_2_NVocInAudio_NoVideo.avi,vocoded,noVideo,sp07,Dr,Ro,2,4,2,flow/blocks/NVocInAudio_NoVideo_A.csv,,,,,,,,,0,4,4,4,0,14,14,25,-0.3625,0.06527777777777778,1,0,0,4.739594500002568,call2,-0.014351851851851852,-0.10833333333333334,1,0,0,5.240106700002798,colour3,0.3731481481481482,0.0875,1,0,0,5.762896800006274,number2,True,True,True,7,2,2019_Nov_12_0901,MA_Theta_Exp,3.0.7,59.910086943855795,
video/Experiment/zh_sp01_Ad_Gr_3_NVocInAudio_NoVideo.avi,vocoded,noVideo,sp01,Ad,Gr,3,4,2,flow/blocks/NVocInAudio_NoVideo_A.csv,,,,,,,,,0,4,4,4,0,15,15,6,-0.3625,0.3,1,0,0,5.704618300005677,call1,0.0412037037037037,0.09583333333333334,1,0,0,6.35461939999368,colour2,0.36342592592592593,-0.10555555555555556,1,0,0,7.0379841000103625,number3,True,True,True,7,2,2019_Nov_12_0901,MA_Theta_Exp,3.0.7,59.910086943855795,
video/Experiment/zh_sp07_Ad_Ro_4_NVocInAudio_NoVideo.avi,vocoded,noVideo,sp07,Ad,Ro,4,4,2,flow/blocks/NVocInAudio_NoVideo_A.csv,,,,,,,,,0,4,4,4,0,16,16,11,-0.3680555555555556,0.3,1,0,0,5.466919399987091,call1,-0.011574074074074073,-0.1125,1,0,0,6.154386099995463,colour3,0.39675925925925926,-0.3277777777777778,1,0,0,6.831557999990764,number4,True,True,True,7,2,2019_Nov_12_0901,MA_Theta_Exp,3.0.7,59.910086943855795,
video/Experiment/zh_sp07_Ad_We_1_NVocInAudio_NoVideo.avi,vocoded,noVideo,sp07,Ad,We,1,4,2,flow/blocks/NVocInAudio_NoVideo_A.csv,,,,,,,,,0,4,4,4,0,17,17,12,-0.39351851851851855,0.3,1,0,0,4.688866500000586,call1,0.043055555555555555,-0.33194444444444443,1,0,0,5.448453499993775,colour4,0.4009259259259259,0.32916666666666666,1,0,0,6.814701299997978,number1,True,True,True,7,2,2019_Nov_12_0901,MA_Theta_Exp,3.0.7,59.910086943855795,
video/Experiment/zh_sp07_Dr_Ge_3_NVocInAudio_NoVideo.avi,vocoded,noVideo,sp07,Dr,Ge,3,4,2,flow/blocks/NVocInAudio_NoVideo_A.csv,,,,,,,,,0,4,4,4,0,18,18,18,-0.3902777777777778,0.12638888888888888,1,0,0,4.564387599995825,call2,0.024537037037037038,0.34305555555555556,1,0,0,5.563958999991883,colour1,0.4050925925925926,-0.11944444444444445,1,0,0,6.281225400001858,number3,True,True,True,7,2,2019_Nov_12_0901,MA_Theta_Exp,3.0.7,59.910086943855795,
video/Experiment/zh_sp01_Dr_Gr_4_NVocInAudio_NoVideo.avi,vocoded,noVideo,sp01,Dr,Gr,4,4,2,flow/blocks/NVocInAudio_NoVideo_A.csv,,,,,,,,,0,4,4,4,0,19,19,23,-0.3472222222222222,0.11666666666666667,1,0,0,5.391150099996594,call2,-0.01574074074074074,0.10555555555555556,1,0,0,6.174578499994823,colour2,0.4203703703703704,-0.35,1,0,0,6.857468100002734,number4,True,True,True,7,2,2019_Nov_12_0901,MA_Theta_Exp,3.0.7,59.910086943855795,
video/Experiment/zh_sp01_Dr_We_4_NVocInAudio_NoVideo.avi,vocoded,noVideo,sp01,Dr,We,4,4,2,flow/blocks/NVocInAudio_NoVideo_A.csv,,,,,,,,,0,4,4,4,0,20,20,31,-0.39490740740740743,0.16111111111111112,1,0,0,5.292894999991404,call2,-0.04722222222222222,-0.2625,1,0,0,5.974267199999304,colour4,0.42777777777777776,-0.3138888888888889,1,0,0,7.858455599998706,number4,True,True,True,7,2,2019_Nov_12_0901,MA_Theta_Exp,3.0.7,59.910086943855795,
video/Experiment/zh_sp01_Ad_We_4_NVocInAudio_NoVideo.avi,vocoded,noVideo,sp01,Ad,We,4,4,2,flow/blocks/NVocInAudio_NoVideo_A.csv,,,,,,,,,0,4,4,4,0,21,21,15,-0.36157407407407405,0.2902777777777778,1,0,0,5.560497400001623,call1,0.03564814814814815,-0.325,1,0,0,6.293086499994388,colour4,0.449537037037037,-0.3138888888888889,1,0,0,6.859642300012638,number4,True,True,True,7,2,2019_Nov_12_0901,MA_Theta_Exp,3.0.7,59.910086943855795,
video/Experiment/zh_sp07_Dr_We_1_NVocInAudio_NoVideo.avi,vocoded,noVideo,sp07,Dr,We,1,4,2,flow/blocks/NVocInAudio_NoVideo_A.csv,,,,,,,,,0,4,4,4,0,22,22,28,-0.4041666666666667,0.09722222222222222,1,0,0,5.087217399996007,call2,0.010648148148148148,-0.3013888888888889,1,0,0,5.686361300002318,colour4,0.37592592592592594,0.29583333333333334,1,0,0,6.286324200002127,number1,True,True,True,7,2,2019_Nov_12_0901,MA_Theta_Exp,3.0.7,59.910086943855795,
video/Experiment/zh_sp01_Ad_Gr_4_NVocInAudio_NoVideo.avi,vocoded,noVideo,sp01,Ad,Gr,4,4,2,flow/blocks/NVocInAudio_NoVideo_A.csv,,,,,,,,,0,4,4,4,0,23,23,7,-0.38055555555555554,0.3111111111111111,1,0,0,5.315285499993479,call1,-0.024074074074074074,0.075,1,0,0,5.883575400002883,colour2,0.41898148148148145,-0.2875,1,0,0,6.814974799999618,number4,True,True,True,7,2,2019_Nov_12_0901,MA_Theta_Exp,3.0.7,59.910086943855795,
video/Experiment/zh_sp07_Dr_Ge_2_NVocInAudio_NoVideo.avi,vocoded,noVideo,sp07,Dr,Ge,2,4,2,flow/blocks/NVocInAudio_NoVideo_A.csv,,,,,,,,,0,4,4,4,0,24,24,17,-0.3625,0.12916666666666668,1,0,0,4.864910899996175,call2,0.019444444444444445,0.3055555555555556,1,0,0,5.614423299994087,colour1,0.38425925925925924,0.07361111111111111,1,0,0,6.147889200001373,number2,True,True,True,7,2,2019_Nov_12_0901,MA_Theta_Exp,3.0.7,59.910086943855795,
video/Experiment/zh_sp01_Dr_We_3_NVocInAudio_NoVideo.avi,vocoded,noVideo,sp01,Dr,We,3,4,2,flow/blocks/NVocInAudio_NoVideo_A.csv,,,,,,,,,0,4,4,4,0,25,25,30,-0.4236111111111111,0.10555555555555556,1,0,0,5.206229799994617,call2,-0.022222222222222223,-0.32083333333333336,1,0,0,5.834432300005574,colour4,0.43425925925925923,-0.04861111111111111,1,0,0,6.417470999993384,number3,True,True,True,7,2,2019_Nov_12_0901,MA_Theta_Exp,3.0.7,59.910086943855795,
video/Experiment/zh_sp07_Ad_Ge_1_NVocInAudio_NoVideo.avi,vocoded,noVideo,sp07,Ad,Ge,1,4,2,flow/blocks/NVocInAudio_NoVideo_A.csv,,,,,,,,,0,4,4,4,0,26,26,0,-0.4263888888888889,0.29444444444444445,1,0,0,4.7833776000043144,call1,-0.024074074074074074,0.32083333333333336,1,0,0,5.333248499999172,colour1,0.39675925925925926,0.2833333333333333,1,0,0,5.867177599997376,number1,True,True,True,7,2,2019_Nov_12_0901,MA_Theta_Exp,3.0.7,59.910086943855795,
video/Experiment/zh_sp01_Dr_Ro_4_NVocInAudio_NoVideo.avi,vocoded,noVideo,sp01,Dr,Ro,4,4,2,flow/blocks/NVocInAudio_NoVideo_A.csv,,,,,,,,,0,4,4,4,0,27,27,27,-0.3819444444444444,0.1388888888888889,1,0,0,5.37246289999166,call2,-0.0060185185185185185,-0.12777777777777777,1,0,0,5.888909999994212,colour3,0.3814814814814815,-0.29583333333333334,1,0,0,6.38892460000352,number4,True,True,True,7,2,2019_Nov_12_0901,MA_Theta_Exp,3.0.7,59.910086943855795,
video/Experiment/zh_sp07_Ad_Gr_1_NVocInAudio_NoVideo.avi,vocoded,noVideo,sp07,Ad,Gr,1,4,2,flow/blocks/NVocInAudio_NoVideo_A.csv,,,,,,,,,0,4,4,4,0,28,28,4,-0.36435185185185187,0.29305555555555557,1,0,0,5.167823700001463,call1,0.03981481481481482,0.05555555555555555,1,0,0,5.78456400000141,colour2,0.3763888888888889,0.2833333333333333,1,0,0,6.4006797000038205,number1,True,True,True,7,2,2019_Nov_12_0901,MA_Theta_Exp,3.0.7,59.910086943855795,
video/Experiment/zh_sp07_Ad_Ro_2_NVocInAudio_NoVideo.avi,vocoded,noVideo,sp07,Ad,Ro,2,4,2,flow/blocks/NVocInAudio_NoVideo_A.csv,,,,,,,,,0,4,4,4,0,29,29,9,-0.39444444444444443,0.3138888888888889,1,0,0,4.729345799991279,call1,-0.01990740740740741,-0.06388888888888888,1,0,0,5.362651900009951,colour3,0.41898148148148145,0.09166666666666666,1,0,0,5.863537299999734,number2,True,True,True,7,2,2019_Nov_12_0901,MA_Theta_Exp,3.0.7,59.910086943855795,
video/Experiment/zh_sp01_Ad_Ge_2_NVocInAudio_NoVideo.avi,vocoded,noVideo,sp01,Ad,Ge,2,4,2,flow/blocks/NVocInAudio_NoVideo_A.csv,,,,,,,,,0,4,4,4,0,30,30,1,-0.412962962962963,0.31805555555555554,1,0,0,5.596186499999021,call1,0.027314814814814816,0.26666666666666666,1,0,0,6.117947099992307,colour1,0.38564814814814813,0.10277777777777777,1,0,0,6.662337800007663,number2,True,True,True,7,2,2019_Nov_12_0901,MA_Theta_Exp,3.0.7,59.910086943855795,
video/Experiment/zh_sp07_Dr_Gr_2_NVocInAudio_NoVideo.avi,vocoded,noVideo,sp07,Dr,Gr,2,4,2,flow/blocks/NVocInAudio_NoVideo_A.csv,,,,,,,,,0,4,4,4,0,31,31,21,-0.3763888888888889,0.13472222222222222,1,0,0,5.04422959999647,call2,-0.033796296296296297,0.07777777777777778,1,0,0,5.571363499999279,colour2,0.39814814814814814,0.07916666666666666,1,0,0,6.123454700005823,number2,True,True,True,7,2,2019_Nov_12_0901,MA_Theta_Exp,3.0.7,59.910086943855795,
