videoFile,condition,video,speaker,callSign,colour,number,seq,id,block,exp.thisRepN,exp.thisTrialN,exp.thisN,exp.thisIndex,training.thisRepN,training.thisTrialN,training.thisN,training.thisIndex,firstHalf.thisRepN,firstHalf.thisTrialN,firstHalf.thisN,firstHalf.thisIndex,blocksA.thisRepN,blocksA.thisTrialN,blocksA.thisN,blocksA.thisIndex,secondHalf.thisRepN,secondHalf.thisTrialN,secondHalf.thisN,secondHalf.thisIndex,blocksB.thisRepN,blocksB.thisTrialN,blocksB.thisN,blocksB.thisIndex,mouseClickOnCall.x,mouseClickOnCall.y,mouseClickOnCall.leftButton,mouseClickOnCall.midButton,mouseClickOnCall.rightButton,mouseClickOnCall.time,mouseClickOnCall.clicked_name,mouseClickOnColour.x,mouseClickOnColour.y,mouseClickOnColour.leftButton,mouseClickOnColour.midButton,mouseClickOnColour.rightButton,mouseClickOnColour.time,mouseClickOnColour.clicked_name,mouseClickOnNumber.x,mouseClickOnNumber.y,mouseClickOnNumber.leftButton,mouseClickOnNumber.midButton,mouseClickOnNumber.rightButton,mouseClickOnNumber.time,mouseClickOnNumber.clicked_name,callSignCorrect,colourCorrect,numberCorrect,participant,order,date,expName,psychopyVersion,frameRate,
video/Training/zh_sp01_Ad_We_4_NVocInAudio_NoVideo.avi,vocoded,noVideo,sp01,Ad,We,4,,,,,,,,0,0,0,0,,,,,,,,,,,,,,,,,-0.3888888888888889,0.30833333333333335,1,0,0,6.611048999999184,call1,0.009259259259259259,-0.2722222222222222,1,0,0,7.70515969999542,colour4,0.38981481481481484,-0.28194444444444444,1,0,0,10.132899300006102,number4,True,True,True,8,3,2019_Nov_12_1001,MA_Theta_Exp,3.0.7,60.162535104532004,
video/Training/zh_sp07_Ad_Ge_3_NVocInAudio_NoVideo.avi,vocoded,noVideo,sp07,Ad,Ge,3,,,,,,,,0,1,1,1,,,,,,,,,,,,,,,,,-0.4074074074074074,0.32916666666666666,1,0,0,4.551687799990759,call1,0.05787037037037037,0.3375,1,0,0,5.916704099989147,colour1,0.39675925925925926,-0.12083333333333333,1,0,0,6.700553100003162,number3,True,True,True,8,3,2019_Nov_12_1001,MA_Theta_Exp,3.0.7,60.162535104532004,
video/Training/zh_sp01_Dr_Ro_3_NVocInAudio_GlobalThetaInVideo.avi,vocoded,plusVideo,sp01,Dr,Ro,3,,,,,,,,0,2,2,2,,,,,,,,,,,,,,,,,-0.3875,0.09027777777777778,1,0,0,5.224557699999423,call2,0.04027777777777778,-0.10694444444444444,1,0,0,5.989050400006818,colour3,0.4166666666666667,-0.11805555555555555,1,0,0,6.821122199995443,number3,True,True,True,8,3,2019_Nov_12_1001,MA_Theta_Exp,3.0.7,60.162535104532004,
video/Training/zh_sp07_Dr_Gr_4_NVocInAudio_GlobalThetaInVideo.avi,vocoded,plusVideo,sp07,Dr,Gr,4,,,,,,,,0,3,3,3,,,,,,,,,,,,,,,,,-0.3685185185185185,0.1111111111111111,1,0,0,5.0334100000036415,call2,0.002777777777777778,0.1111111111111111,1,0,0,5.719467899994925,colour2,0.4083333333333333,-0.33194444444444443,1,0,0,6.44134240000858,number4,True,True,True,8,3,2019_Nov_12_1001,MA_Theta_Exp,3.0.7,60.162535104532004,
video/Training/zh_sp01_Ti_Gr_2_NoThetaInAudio_NoVideo.avi,noTheta,noVideo,sp01,Ti,Gr,2,,,,,,,,0,4,4,4,,,,,,,,,,,,,,,,,-0.4060185185185185,0.3055555555555556,1,0,0,9.288526000003912,call1,0.009259259259259259,-0.09027777777777778,1,0,0,9.85366750000685,colour3,0.4273148148148148,0.1486111111111111,1,0,0,10.354924200000823,number2,False,False,True,8,3,2019_Nov_12_1001,MA_Theta_Exp,3.0.7,60.162535104532004,
video/Training/zh_sp07_Ti_Ro_1_NoThetaInAudio_NoVideo.avi,noTheta,noVideo,sp07,Ti,Ro,1,,,,,,,,0,5,5,5,,,,,,,,,,,,,,,,,-0.4111111111111111,0.32083333333333336,1,0,0,5.970419099990977,call1,0.000925925925925926,-0.10138888888888889,1,0,0,6.508969200003776,colour3,0.387037037037037,0.28194444444444444,1,0,0,7.056280999997398,number1,False,True,True,8,3,2019_Nov_12_1001,MA_Theta_Exp,3.0.7,60.162535104532004,
video/Training/zh_sp01_Un_Ge_1_NoThetaInAudio_GlobalThetaInVideo.avi,noTheta,plusVideo,sp01,Un,Ge,1,,,,,,,,0,6,6,6,,,,,,,,,,,,,,,,,-0.38101851851851853,0.14305555555555555,1,0,0,7.3928401000011945,call2,-0.026851851851851852,0.2833333333333333,1,0,0,8.042968900001142,colour1,0.44814814814814813,0.2875,1,0,0,8.675367700008792,number1,False,True,True,8,3,2019_Nov_12_1001,MA_Theta_Exp,3.0.7,60.162535104532004,
video/Training/zh_sp07_Un_We_2_NoThetaInAudio_GlobalThetaInVideo.avi,noTheta,plusVideo,sp07,Un,We,2,,,,,,,,0,7,7,7,,,,,,,,,,,,,,,,,0.45925925925925926,0.3527777777777778,1,0,0,10.79483229998732,,,,,,,,,,,,,,,,NO_ANSW,NO_ANSW,NO_ANSW,8,3,2019_Nov_12_1001,MA_Theta_Exp,3.0.7,60.162535104532004,
video/Training/zh_sp01_Ad_Ge_1_GlobalTheta_NoVideo.avi,globalTheta,noVideo,sp01,Ad,Ge,1,,,,,,,,0,8,8,8,,,,,,,,,,,,,,,,,0.3912037037037037,0.3111111111111111,1,0,0,8.765713500004495,,,,,,,,,,,,,,,,NO_ANSW,NO_ANSW,NO_ANSW,8,3,2019_Nov_12_1001,MA_Theta_Exp,3.0.7,60.162535104532004,
video/Training/zh_sp07_Ad_Ro_3_GlobalTheta_NoVideo.avi,globalTheta,noVideo,sp07,Ad,Ro,3,,,,,,,,0,9,9,9,,,,,,,,,,,,,,,,,-0.38657407407407407,0.3333333333333333,1,0,0,4.37624009999854,call1,0.42453703703703705,-0.11944444444444445,1,0,0,5.3957033999904525,colour3,,,,,,,,True,True,NO_ANSW,8,3,2019_Nov_12_1001,MA_Theta_Exp,3.0.7,60.162535104532004,
video/Experiment/zh_sp01_Ad_We_2_GlobalTheta_NoVideo.avi,globalTheta,noVideo,sp01,Ad,We,2,0,5,flow/blocks/GlobalTheta_NoVideo_A.csv,,,,,,,,,0,0,0,0,0,0,0,13,,,,,,,,,-0.4152777777777778,0.3125,1,0,0,5.336009500009823,call1,0.020370370370370372,0.3375,1,0,0,5.931826900006854,colour1,0.38425925925925924,0.12638888888888888,1,0,0,6.682159300005878,number2,True,False,True,8,3,2019_Nov_12_1001,MA_Theta_Exp,3.0.7,60.162535104532004,
video/Experiment/zh_sp01_Ad_Gr_1_GlobalTheta_NoVideo.avi,globalTheta,noVideo,sp01,Ad,Gr,1,0,5,flow/blocks/GlobalTheta_NoVideo_A.csv,,,,,,,,,0,0,0,0,0,1,1,4,,,,,,,,,-0.4199074074074074,0.3333333333333333,1,0,0,5.381259999994654,call1,-0.018518518518518517,0.10972222222222222,1,0,0,6.842847799998708,colour2,0.3736111111111111,0.33055555555555555,1,0,0,7.819317099987529,number1,True,True,True,8,3,2019_Nov_12_1001,MA_Theta_Exp,3.0.7,60.162535104532004,
video/Experiment/zh_sp07_Dr_Ge_4_GlobalTheta_NoVideo.avi,globalTheta,noVideo,sp07,Dr,Ge,4,0,5,flow/blocks/GlobalTheta_NoVideo_A.csv,,,,,,,,,0,0,0,0,0,2,2,19,,,,,,,,,-0.3990740740740741,0.11388888888888889,1,0,0,4.604026000000886,call2,0.05925925925925926,0.325,1,0,0,6.494633900001645,colour1,0.399537037037037,-0.32222222222222224,1,0,0,7.213482099992689,number4,True,True,True,8,3,2019_Nov_12_1001,MA_Theta_Exp,3.0.7,60.162535104532004,
video/Experiment/zh_sp01_Ad_Ge_1_GlobalTheta_NoVideo.avi,globalTheta,noVideo,sp01,Ad,Ge,1,0,5,flow/blocks/GlobalTheta_NoVideo_A.csv,,,,,,,,,0,0,0,0,0,3,3,0,,,,,,,,,-0.4074074074074074,0.3013888888888889,1,0,0,6.664459899999201,call1,0.015277777777777777,0.275,1,0,0,9.74368470000627,colour1,0.375,0.3013888888888889,1,0,0,10.381953799995244,number1,True,True,True,8,3,2019_Nov_12_1001,MA_Theta_Exp,3.0.7,60.162535104532004,
video/Experiment/zh_sp07_Ad_We_4_GlobalTheta_NoVideo.avi,globalTheta,noVideo,sp07,Ad,We,4,0,5,flow/blocks/GlobalTheta_NoVideo_A.csv,,,,,,,,,0,0,0,0,0,4,4,15,,,,,,,,,-0.4046296296296296,0.3236111111111111,1,0,0,5.227642300000298,call1,-0.020833333333333332,-0.06666666666666667,1,0,0,6.017792400001781,colour3,0.4828703703703704,0.16111111111111112,1,0,0,6.545317199997953,number2,True,False,False,8,3,2019_Nov_12_1001,MA_Theta_Exp,3.0.7,60.162535104532004,
video/Experiment/zh_sp07_Dr_Ge_2_GlobalTheta_NoVideo.avi,globalTheta,noVideo,sp07,Dr,Ge,2,0,5,flow/blocks/GlobalTheta_NoVideo_A.csv,,,,,,,,,0,0,0,0,0,5,5,17,,,,,,,,,-0.3837962962962963,0.3,1,0,0,4.8029590000078315,call1,-0.0060185185185185185,0.3138888888888889,1,0,0,5.286451500011026,colour1,0.4537037037037037,0.2875,1,0,0,5.80521079999744,number1,False,True,False,8,3,2019_Nov_12_1001,MA_Theta_Exp,3.0.7,60.162535104532004,
video/Experiment/zh_sp01_Dr_We_1_GlobalTheta_NoVideo.avi,globalTheta,noVideo,sp01,Dr,We,1,0,5,flow/blocks/GlobalTheta_NoVideo_A.csv,,,,,,,,,0,0,0,0,0,6,6,28,,,,,,,,,-0.015277777777777777,0.30694444444444446,1,0,0,6.296790399996098,call1,,,,,,,,,,,,,,,False,NO_ANSW,NO_ANSW,8,3,2019_Nov_12_1001,MA_Theta_Exp,3.0.7,60.162535104532004,
video/Experiment/zh_sp07_Ad_Ge_4_GlobalTheta_NoVideo.avi,globalTheta,noVideo,sp07,Ad,Ge,4,0,5,flow/blocks/GlobalTheta_NoVideo_A.csv,,,,,,,,,0,0,0,0,0,7,7,3,,,,,,,,,-0.4305555555555556,0.28888888888888886,1,0,0,4.607168400005321,call1,0.02175925925925926,-0.1111111111111111,1,0,0,5.4637884000112535,colour3,0.39305555555555555,0.11388888888888889,1,0,0,6.132426900003338,number2,True,False,False,8,3,2019_Nov_12_1001,MA_Theta_Exp,3.0.7,60.162535104532004,
video/Experiment/zh_sp01_Ad_Ro_4_GlobalTheta_NoVideo.avi,globalTheta,noVideo,sp01,Ad,Ro,4,0,5,flow/blocks/GlobalTheta_NoVideo_A.csv,,,,,,,,,0,0,0,0,0,8,8,11,,,,,,,,,-0.41388888888888886,0.31666666666666665,1,0,0,5.106663899990963,call1,0.02361111111111111,0.2986111111111111,1,0,0,6.403622999991057,colour1,0.4041666666666667,-0.2972222222222222,1,0,0,7.156193500006339,number4,True,False,True,8,3,2019_Nov_12_1001,MA_Theta_Exp,3.0.7,60.162535104532004,
video/Experiment/zh_sp01_Dr_Gr_2_GlobalTheta_NoVideo.avi,globalTheta,noVideo,sp01,Dr,Gr,2,0,5,flow/blocks/GlobalTheta_NoVideo_A.csv,,,,,,,,,0,0,0,0,0,9,9,21,,,,,,,,,-0.3680555555555556,0.26944444444444443,1,0,0,9.11253700000816,call1,0.041666666666666664,0.29444444444444445,1,0,0,12.801419299998088,colour1,0.38564814814814813,0.14722222222222223,1,0,0,13.297869100002572,number2,False,False,True,8,3,2019_Nov_12_1001,MA_Theta_Exp,3.0.7,60.162535104532004,
video/Experiment/zh_sp01_Dr_Ro_2_GlobalTheta_NoVideo.avi,globalTheta,noVideo,sp01,Dr,Ro,2,0,5,flow/blocks/GlobalTheta_NoVideo_A.csv,,,,,,,,,0,0,0,0,0,10,10,25,,,,,,,,,-0.4097222222222222,0.2847222222222222,1,0,0,8.809967599998345,call1,0.008333333333333333,0.2708333333333333,1,0,0,11.68610949999129,colour1,0.34814814814814815,0.10416666666666667,1,0,0,12.274907900005928,number2,False,False,True,8,3,2019_Nov_12_1001,MA_Theta_Exp,3.0.7,60.162535104532004,
video/Experiment/zh_sp07_Ad_Ro_2_GlobalTheta_NoVideo.avi,globalTheta,noVideo,sp07,Ad,Ro,2,0,5,flow/blocks/GlobalTheta_NoVideo_A.csv,,,,,,,,,0,0,0,0,0,11,11,9,,,,,,,,,-0.4351851851851852,0.3,1,0,0,10.871885600005044,call1,0.43148148148148147,0.11666666666666667,1,0,0,11.935921500000404,,,,,,,,,True,NO_ANSW,NO_ANSW,8,3,2019_Nov_12_1001,MA_Theta_Exp,3.0.7,60.162535104532004,
video/Experiment/zh_sp01_Ad_Ge_3_GlobalTheta_NoVideo.avi,globalTheta,noVideo,sp01,Ad,Ge,3,0,5,flow/blocks/GlobalTheta_NoVideo_A.csv,,,,,,,,,0,0,0,0,0,12,12,2,,,,,,,,,-0.3824074074074074,0.31805555555555554,1,0,0,6.0898973000003025,call1,0.006944444444444444,0.3263888888888889,1,0,0,6.98685960000148,colour1,0.34120370370370373,-0.016666666666666666,1,0,0,7.6082425999920815,number3,True,True,True,8,3,2019_Nov_12_1001,MA_Theta_Exp,3.0.7,60.162535104532004,
video/Experiment/zh_sp07_Dr_Ge_1_GlobalTheta_NoVideo.avi,globalTheta,noVideo,sp07,Dr,Ge,1,0,5,flow/blocks/GlobalTheta_NoVideo_A.csv,,,,,,,,,0,0,0,0,0,13,13,16,,,,,,,,,-0.41944444444444445,0.24861111111111112,1,0,0,8.30135729999165,call1,0.4148148148148148,0.30694444444444446,1,0,0,9.12402979999024,colour1,,,,,,,,False,True,NO_ANSW,8,3,2019_Nov_12_1001,MA_Theta_Exp,3.0.7,60.162535104532004,
video/Experiment/zh_sp01_Dr_Ro_3_GlobalTheta_NoVideo.avi,globalTheta,noVideo,sp01,Dr,Ro,3,0,5,flow/blocks/GlobalTheta_NoVideo_A.csv,,,,,,,,,0,0,0,0,0,14,14,26,,,,,,,,,-0.4115740740740741,0.29444444444444445,1,0,0,5.284962499994435,call1,-0.021296296296296296,-0.10555555555555556,1,0,0,6.045813400007319,colour3,0.4356481481481482,-0.08055555555555556,1,0,0,6.607443999993848,number3,False,True,True,8,3,2019_Nov_12_1001,MA_Theta_Exp,3.0.7,60.162535104532004,
video/Experiment/zh_sp01_Ad_Ge_2_GlobalTheta_NoVideo.avi,globalTheta,noVideo,sp01,Ad,Ge,2,0,5,flow/blocks/GlobalTheta_NoVideo_A.csv,,,,,,,,,0,0,0,0,0,15,15,1,,,,,,,,,-0.41712962962962963,0.30694444444444446,1,0,0,5.381159900003695,call1,0.016203703703703703,0.29583333333333334,1,0,0,6.157886899993173,colour1,0.387037037037037,0.09722222222222222,1,0,0,6.778733200000715,number2,True,True,True,8,3,2019_Nov_12_1001,MA_Theta_Exp,3.0.7,60.162535104532004,
video/Experiment/zh_sp07_Dr_We_4_GlobalTheta_NoVideo.avi,globalTheta,noVideo,sp07,Dr,We,4,0,5,flow/blocks/GlobalTheta_NoVideo_A.csv,,,,,,,,,0,0,0,0,0,16,16,31,,,,,,,,,-0.4060185185185185,0.30833333333333335,1,0,0,7.262077099992894,call1,0.018055555555555554,0.2638888888888889,1,0,0,10.505377299996326,colour1,0.4013888888888889,-0.0763888888888889,1,0,0,11.333316799995373,number3,False,False,False,8,3,2019_Nov_12_1001,MA_Theta_Exp,3.0.7,60.162535104532004,
video/Experiment/zh_sp01_Dr_Ro_1_GlobalTheta_NoVideo.avi,globalTheta,noVideo,sp01,Dr,Ro,1,0,5,flow/blocks/GlobalTheta_NoVideo_A.csv,,,,,,,,,0,0,0,0,0,17,17,24,,,,,,,,,-0.4125,0.30277777777777776,1,0,0,6.674964799996815,call1,0.008333333333333333,0.3055555555555556,1,0,0,10.173349199991208,colour1,0.4375,0.2861111111111111,1,0,0,11.125205899996217,number1,False,False,True,8,3,2019_Nov_12_1001,MA_Theta_Exp,3.0.7,60.162535104532004,
video/Experiment/zh_sp07_Dr_Gr_4_GlobalTheta_NoVideo.avi,globalTheta,noVideo,sp07,Dr,Gr,4,0,5,flow/blocks/GlobalTheta_NoVideo_A.csv,,,,,,,,,0,0,0,0,0,18,18,23,,,,,,,,,-0.40879629629629627,0.31666666666666665,1,0,0,6.267059899997548,call1,-0.012962962962962963,0.10555555555555556,1,0,0,6.878371600003447,colour2,0.4689814814814815,-0.12222222222222222,1,0,0,7.445012600001064,number3,False,True,False,8,3,2019_Nov_12_1001,MA_Theta_Exp,3.0.7,60.162535104532004,
video/Experiment/zh_sp01_Dr_We_2_GlobalTheta_NoVideo.avi,globalTheta,noVideo,sp01,Dr,We,2,0,5,flow/blocks/GlobalTheta_NoVideo_A.csv,,,,,,,,,0,0,0,0,0,19,19,29,,,,,,,,,-0.024074074074074074,0.3277777777777778,1,0,0,5.788614300006884,,,,,,,,,,,,,,,,NO_ANSW,NO_ANSW,NO_ANSW,8,3,2019_Nov_12_1001,MA_Theta_Exp,3.0.7,60.162535104532004,
video/Experiment/zh_sp07_Ad_Gr_4_GlobalTheta_NoVideo.avi,globalTheta,noVideo,sp07,Ad,Gr,4,0,5,flow/blocks/GlobalTheta_NoVideo_A.csv,,,,,,,,,0,0,0,0,0,20,20,7,,,,,,,,,-0.38472222222222224,-0.10925925925925926,1,0,0,5.403567700006533,call3,0.4134259259259259,-0.2967592592592593,1,0,0,6.400347499991767,,,,,,,,,False,NO_ANSW,NO_ANSW,8,3,2019_Nov_12_1001,MA_Theta_Exp,3.0.7,60.162535104532004,
video/Experiment/zh_sp07_Ad_Gr_2_GlobalTheta_NoVideo.avi,globalTheta,noVideo,sp07,Ad,Gr,2,0,5,flow/blocks/GlobalTheta_NoVideo_A.csv,,,,,,,,,0,0,0,0,0,21,21,5,,,,,,,,,-0.4013888888888889,0.2962962962962963,1,0,0,5.480225999999675,call1,0.029166666666666667,0.12546296296296297,1,0,0,7.774738000007346,colour2,0.38981481481481484,-0.11342592592592593,1,0,0,10.247764700005064,number3,True,True,False,8,3,2019_Nov_12_1001,MA_Theta_Exp,3.0.7,60.162535104532004,
video/Experiment/zh_sp07_Ad_Ro_3_GlobalTheta_NoVideo.avi,globalTheta,noVideo,sp07,Ad,Ro,3,0,5,flow/blocks/GlobalTheta_NoVideo_A.csv,,,,,,,,,0,0,0,0,0,22,22,10,,,,,,,,,-0.40046296296296297,0.2851851851851852,1,0,0,11.694155000004685,call1,,,,,,,,,,,,,,,True,NO_ANSW,NO_ANSW,8,3,2019_Nov_12_1001,MA_Theta_Exp,3.0.7,60.162535104532004,
video/Experiment/zh_sp01_Dr_Gr_3_GlobalTheta_NoVideo.avi,globalTheta,noVideo,sp01,Dr,Gr,3,0,5,flow/blocks/GlobalTheta_NoVideo_A.csv,,,,,,,,,0,0,0,0,0,23,23,22,,,,,,,,,0.4152777777777778,-0.09814814814814815,1,0,0,7.349119099992095,call1,,,,,,,,,,,,,,,False,NO_ANSW,NO_ANSW,8,3,2019_Nov_12_1001,MA_Theta_Exp,3.0.7,60.162535104532004,
video/Experiment/zh_sp07_Dr_Ro_4_GlobalTheta_NoVideo.avi,globalTheta,noVideo,sp07,Dr,Ro,4,0,5,flow/blocks/GlobalTheta_NoVideo_A.csv,,,,,,,,,0,0,0,0,0,24,24,27,,,,,,,,,-0.4236111111111111,0.10185185185185185,1,0,0,5.47530619999452,call2,0.4083333333333333,-0.32592592592592595,1,0,0,6.570523999995203,,,,,,,,,True,NO_ANSW,NO_ANSW,8,3,2019_Nov_12_1001,MA_Theta_Exp,3.0.7,60.162535104532004,
video/Experiment/zh_sp01_Ad_We_3_GlobalTheta_NoVideo.avi,globalTheta,noVideo,sp01,Ad,We,3,0,5,flow/blocks/GlobalTheta_NoVideo_A.csv,,,,,,,,,0,0,0,0,0,25,25,14,,,,,,,,,-0.4111111111111111,0.287962962962963,1,0,0,5.168013000002247,call1,-0.032407407407407406,0.10324074074074074,1,0,0,6.196553700006916,colour2,0.3680555555555556,-0.11064814814814815,1,0,0,6.915870700002415,number3,True,False,True,8,3,2019_Nov_12_1001,MA_Theta_Exp,3.0.7,60.162535104532004,
video/Experiment/zh_sp07_Ad_We_1_GlobalTheta_NoVideo.avi,globalTheta,noVideo,sp07,Ad,We,1,0,5,flow/blocks/GlobalTheta_NoVideo_A.csv,,,,,,,,,0,0,0,0,0,26,26,12,,,,,,,,,-0.4,0.31574074074074077,1,0,0,4.9853516000002855,call1,0.38842592592592595,0.12268518518518519,1,0,0,5.835815500002354,colour1,,,,,,,,True,False,NO_ANSW,8,3,2019_Nov_12_1001,MA_Theta_Exp,3.0.7,60.162535104532004,
video/Experiment/zh_sp07_Dr_We_3_GlobalTheta_NoVideo.avi,globalTheta,noVideo,sp07,Dr,We,3,0,5,flow/blocks/GlobalTheta_NoVideo_A.csv,,,,,,,,,0,0,0,0,0,27,27,30,,,,,,,,,0.38981481481481484,-0.09675925925925925,1,0,0,5.930332699994324,call1,,,,,,,,,,,,,,,False,NO_ANSW,NO_ANSW,8,3,2019_Nov_12_1001,MA_Theta_Exp,3.0.7,60.162535104532004,
video/Experiment/zh_sp07_Ad_Gr_3_GlobalTheta_NoVideo.avi,globalTheta,noVideo,sp07,Ad,Gr,3,0,5,flow/blocks/GlobalTheta_NoVideo_A.csv,,,,,,,,,0,0,0,0,0,28,28,6,,,,,,,,,0.425,-0.05648148148148148,1,0,0,4.96368000000075,call1,0.03888888888888889,0.1476851851851852,1,0,0,12.362991300004069,colour2,,,,,,,,True,True,NO_ANSW,8,3,2019_Nov_12_1001,MA_Theta_Exp,3.0.7,60.162535104532004,
video/Experiment/zh_sp01_Dr_Ge_3_GlobalTheta_NoVideo.avi,globalTheta,noVideo,sp01,Dr,Ge,3,0,5,flow/blocks/GlobalTheta_NoVideo_A.csv,,,,,,,,,0,0,0,0,0,29,29,18,,,,,,,,,0.02175925925925926,-0.09675925925925925,1,0,0,5.565360699998564,call1,,,,,,,,,,,,,,,False,NO_ANSW,NO_ANSW,8,3,2019_Nov_12_1001,MA_Theta_Exp,3.0.7,60.162535104532004,
video/Experiment/zh_sp01_Dr_Gr_1_GlobalTheta_NoVideo.avi,globalTheta,noVideo,sp01,Dr,Gr,1,0,5,flow/blocks/GlobalTheta_NoVideo_A.csv,,,,,,,,,0,0,0,0,0,30,30,20,,,,,,,,,-0.3819444444444444,0.0962962962962963,1,0,0,6.275908499999787,call2,-0.004629629629629629,0.10046296296296296,1,0,0,8.268066099990392,colour2,0.42592592592592593,0.32546296296296295,1,0,0,8.922901500001899,number1,True,True,True,8,3,2019_Nov_12_1001,MA_Theta_Exp,3.0.7,60.162535104532004,
video/Experiment/zh_sp07_Ad_Ro_1_GlobalTheta_NoVideo.avi,globalTheta,noVideo,sp07,Ad,Ro,1,0,5,flow/blocks/GlobalTheta_NoVideo_A.csv,,,,,,,,,0,0,0,0,0,31,31,8,,,,,,,,,-0.39490740740740743,0.30185185185185187,1,0,0,4.707413399999496,call1,0.020833333333333332,0.29212962962962963,1,0,0,6.50496099999873,colour1,0.39444444444444443,0.2851851851851852,1,0,0,7.2388021999940975,number1,True,False,True,8,3,2019_Nov_12_1001,MA_Theta_Exp,3.0.7,60.162535104532004,
video/Experiment/zh_sp07_Ad_Ro_2_NVocInAudio_GlobalThetaInVideo.avi,vocoded,plusVideo,sp07,Ad,Ro,2,1,1,flow/blocks/NVocInAudio_GlobalThetaInVideo_A.csv,,,,,,,,,0,1,1,1,0,0,0,9,,,,,,,,,-0.412962962962963,0.300462962962963,1,0,0,6.819222400008584,call1,0.4083333333333333,0.09768518518518518,1,0,0,8.125591199990595,colour3,,,,,,,,True,True,NO_ANSW,8,3,2019_Nov_12_1001,MA_Theta_Exp,3.0.7,60.162535104532004,
video/Experiment/zh_sp07_Ad_Ge_3_NVocInAudio_GlobalThetaInVideo.avi,vocoded,plusVideo,sp07,Ad,Ge,3,1,1,flow/blocks/NVocInAudio_GlobalThetaInVideo_A.csv,,,,,,,,,0,1,1,1,0,1,1,2,,,,,,,,,-0.39490740740740743,0.300462962962963,1,0,0,7.113586000006762,call1,0.023148148148148147,-0.09814814814814815,1,0,0,7.781145600005402,colour3,0.41898148148148145,-0.09953703703703703,1,0,0,8.74694240000099,number3,True,False,True,8,3,2019_Nov_12_1001,MA_Theta_Exp,3.0.7,60.162535104532004,
video/Experiment/zh_sp01_Dr_We_2_NVocInAudio_GlobalThetaInVideo.avi,vocoded,plusVideo,sp01,Dr,We,2,1,1,flow/blocks/NVocInAudio_GlobalThetaInVideo_A.csv,,,,,,,,,0,1,1,1,0,2,2,29,,,,,,,,,-0.4601851851851852,0.09212962962962963,1,0,0,5.062252800009446,call2,0.0412037037037037,-0.31342592592592594,1,0,0,5.693619900004705,colour4,0.42453703703703705,0.09351851851851851,1,0,0,6.27409139998781,number2,True,True,True,8,3,2019_Nov_12_1001,MA_Theta_Exp,3.0.7,60.162535104532004,
video/Experiment/zh_sp07_Dr_We_3_NVocInAudio_GlobalThetaInVideo.avi,vocoded,plusVideo,sp07,Dr,We,3,1,1,flow/blocks/NVocInAudio_GlobalThetaInVideo_A.csv,,,,,,,,,0,1,1,1,0,3,3,30,,,,,,,,,-0.39490740740740743,0.11990740740740741,1,0,0,4.653834900003858,call2,0.016203703703703703,-0.2912037037037037,1,0,0,5.40573260000383,colour4,0.39537037037037037,-0.08703703703703704,1,0,0,6.05483500000264,number3,True,True,True,8,3,2019_Nov_12_1001,MA_Theta_Exp,3.0.7,60.162535104532004,
video/Experiment/zh_sp01_Dr_Gr_4_NVocInAudio_GlobalThetaInVideo.avi,vocoded,plusVideo,sp01,Dr,Gr,4,1,1,flow/blocks/NVocInAudio_GlobalThetaInVideo_A.csv,,,,,,,,,0,1,1,1,0,4,4,23,,,,,,,,,-0.4115740740740741,0.11851851851851852,1,0,0,5.463629199992283,call2,0.4300925925925926,-0.30925925925925923,1,0,0,7.5326670999929775,colour1,,,,,,,,True,False,NO_ANSW,8,3,2019_Nov_12_1001,MA_Theta_Exp,3.0.7,60.162535104532004,
video/Experiment/zh_sp07_Ad_Ro_3_NVocInAudio_GlobalThetaInVideo.avi,vocoded,plusVideo,sp07,Ad,Ro,3,1,1,flow/blocks/NVocInAudio_GlobalThetaInVideo_A.csv,,,,,,,,,0,1,1,1,0,5,5,10,,,,,,,,,-0.42962962962962964,0.31851851851851853,1,0,0,5.209131900002831,call1,-0.03518518518518519,-0.08009259259259259,1,0,0,5.852223099995172,colour3,0.4125,-0.09953703703703703,1,0,0,6.620574799992028,number3,True,True,True,8,3,2019_Nov_12_1001,MA_Theta_Exp,3.0.7,60.162535104532004,
video/Experiment/zh_sp07_Dr_Gr_3_NVocInAudio_GlobalThetaInVideo.avi,vocoded,plusVideo,sp07,Dr,Gr,3,1,1,flow/blocks/NVocInAudio_GlobalThetaInVideo_A.csv,,,,,,,,,0,1,1,1,0,6,6,22,,,,,,,,,-0.40555555555555556,0.0962962962962963,1,0,0,5.387547900012578,call2,0.0125,-0.09537037037037037,1,0,0,7.317971600001329,colour3,0.4166666666666667,-0.11203703703703703,1,0,0,7.902342799992766,number3,True,False,True,8,3,2019_Nov_12_1001,MA_Theta_Exp,3.0.7,60.162535104532004,
video/Experiment/zh_sp01_Dr_Ro_2_NVocInAudio_GlobalThetaInVideo.avi,vocoded,plusVideo,sp01,Dr,Ro,2,1,1,flow/blocks/NVocInAudio_GlobalThetaInVideo_A.csv,,,,,,,,,0,1,1,1,0,7,7,25,,,,,,,,,-0.06574074074074074,-0.09398148148148149,1,0,0,5.174405800004024,call2,0.001388888888888889,-0.13703703703703704,1,0,0,9.164879999996629,colour3,0.3912037037037037,0.09351851851851851,1,0,0,9.732912699997541,number2,True,True,True,8,3,2019_Nov_12_1001,MA_Theta_Exp,3.0.7,60.162535104532004,
video/Experiment/zh_sp01_Dr_Ge_2_NVocInAudio_GlobalThetaInVideo.avi,vocoded,plusVideo,sp01,Dr,Ge,2,1,1,flow/blocks/NVocInAudio_GlobalThetaInVideo_A.csv,,,,,,,,,0,1,1,1,0,8,8,17,,,,,,,,,-0.3976851851851852,0.1087962962962963,1,0,0,5.530828899994958,call2,0.02175925925925926,0.32407407407407407,1,0,0,6.215747700000065,colour1,0.39675925925925926,0.0824074074074074,1,0,0,6.824674999996205,number2,True,True,True,8,3,2019_Nov_12_1001,MA_Theta_Exp,3.0.7,60.162535104532004,
video/Experiment/zh_sp07_Ad_Gr_3_NVocInAudio_GlobalThetaInVideo.avi,vocoded,plusVideo,sp07,Ad,Gr,3,1,1,flow/blocks/NVocInAudio_GlobalThetaInVideo_A.csv,,,,,,,,,0,1,1,1,0,9,9,6,,,,,,,,,-0.4115740740740741,0.300462962962963,1,0,0,4.689532800010056,call1,0.012037037037037037,-0.10648148148148148,1,0,0,8.459074400001555,colour3,0.41898148148148145,-0.10648148148148148,1,0,0,9.28235899998981,number3,True,False,True,8,3,2019_Nov_12_1001,MA_Theta_Exp,3.0.7,60.162535104532004,
video/Experiment/zh_sp01_Ad_We_3_NVocInAudio_GlobalThetaInVideo.avi,vocoded,plusVideo,sp01,Ad,We,3,1,1,flow/blocks/NVocInAudio_GlobalThetaInVideo_A.csv,,,,,,,,,0,1,1,1,0,10,10,14,,,,,,,,,-0.41435185185185186,0.29907407407407405,1,0,0,5.128476700003375,call1,0.005092592592592593,-0.29814814814814816,1,0,0,5.906087600000319,colour4,0.4111111111111111,-0.09675925925925925,1,0,0,6.725522299995646,number3,True,True,True,8,3,2019_Nov_12_1001,MA_Theta_Exp,3.0.7,60.162535104532004,
video/Experiment/zh_sp01_Ad_Ge_4_NVocInAudio_GlobalThetaInVideo.avi,vocoded,plusVideo,sp01,Ad,Ge,4,1,1,flow/blocks/NVocInAudio_GlobalThetaInVideo_A.csv,,,,,,,,,0,1,1,1,0,11,11,3,,,,,,,,,-0.4337962962962963,0.31157407407407406,1,0,0,6.9485464000026695,call1,0.005555555555555556,-0.3023148148148148,1,0,0,9.017568000010215,colour4,0.4023148148148148,-0.31342592592592594,1,0,0,10.434278500004439,number4,True,False,True,8,3,2019_Nov_12_1001,MA_Theta_Exp,3.0.7,60.162535104532004,
video/Experiment/zh_sp01_Dr_Ro_3_NVocInAudio_GlobalThetaInVideo.avi,vocoded,plusVideo,sp01,Dr,Ro,3,1,1,flow/blocks/NVocInAudio_GlobalThetaInVideo_A.csv,,,,,,,,,0,1,1,1,0,12,12,26,,,,,,,,,-0.42916666666666664,0.10462962962962963,1,0,0,5.436117000004742,call2,-0.010185185185185186,-0.06620370370370371,1,0,0,6.014847900005407,colour3,0.4013888888888889,-0.09814814814814815,1,0,0,6.815590500002145,number3,True,True,True,8,3,2019_Nov_12_1001,MA_Theta_Exp,3.0.7,60.162535104532004,
video/Experiment/zh_sp07_Dr_We_1_NVocInAudio_GlobalThetaInVideo.avi,vocoded,plusVideo,sp07,Dr,We,1,1,1,flow/blocks/NVocInAudio_GlobalThetaInVideo_A.csv,,,,,,,,,0,1,1,1,0,13,13,28,,,,,,,,,-0.39444444444444443,0.0962962962962963,1,0,0,4.554193900010432,call2,0.00787037037037037,-0.3050925925925926,1,0,0,5.056575099995825,colour4,0.37916666666666665,0.2671296296296296,1,0,0,5.71735059999628,number1,True,True,True,8,3,2019_Nov_12_1001,MA_Theta_Exp,3.0.7,60.162535104532004,
video/Experiment/zh_sp07_Ad_Ro_1_NVocInAudio_GlobalThetaInVideo.avi,vocoded,plusVideo,sp07,Ad,Ro,1,1,1,flow/blocks/NVocInAudio_GlobalThetaInVideo_A.csv,,,,,,,,,0,1,1,1,0,14,14,8,,,,,,,,,-0.41805555555555557,0.32546296296296295,1,0,0,4.580693299998529,call1,0.006481481481481481,-0.10925925925925926,1,0,0,5.245522199998959,colour3,0.39444444444444443,0.32407407407407407,1,0,0,5.8164208000089275,number1,True,True,True,8,3,2019_Nov_12_1001,MA_Theta_Exp,3.0.7,60.162535104532004,
video/Experiment/zh_sp07_Dr_Ge_3_NVocInAudio_GlobalThetaInVideo.avi,vocoded,plusVideo,sp07,Dr,Ge,3,1,1,flow/blocks/NVocInAudio_GlobalThetaInVideo_A.csv,,,,,,,,,0,1,1,1,0,15,15,18,,,,,,,,,0.4050925925925926,-0.11342592592592593,1,0,0,6.328277099994011,call2,0.006944444444444444,0.32685185185185184,1,0,0,9.525633600002038,colour1,0.3875,-0.07037037037037037,1,0,0,12.78542450000532,number3,True,True,True,8,3,2019_Nov_12_1001,MA_Theta_Exp,3.0.7,60.162535104532004,
video/Experiment/zh_sp07_Ad_Gr_1_NVocInAudio_GlobalThetaInVideo.avi,vocoded,plusVideo,sp07,Ad,Gr,1,1,1,flow/blocks/NVocInAudio_GlobalThetaInVideo_A.csv,,,,,,,,,0,1,1,1,0,16,16,4,,,,,,,,,-0.36666666666666664,0.31574074074074077,1,0,0,5.504781900002854,call1,0.030555555555555555,-0.08703703703703704,1,0,0,7.9194781000114745,colour3,0.4009259259259259,0.3101851851851852,1,0,0,8.699177099988447,number1,True,False,True,8,3,2019_Nov_12_1001,MA_Theta_Exp,3.0.7,60.162535104532004,
video/Experiment/zh_sp01_Dr_We_4_NVocInAudio_GlobalThetaInVideo.avi,vocoded,plusVideo,sp01,Dr,We,4,1,1,flow/blocks/NVocInAudio_GlobalThetaInVideo_A.csv,,,,,,,,,0,1,1,1,0,17,17,31,,,,,,,,,-0.012962962962962963,-0.29398148148148145,1,0,0,5.5656409000075655,call1,0.053703703703703705,-0.3675925925925926,1,0,0,8.24584540000069,colour4,0.43148148148148147,-0.3384259259259259,1,0,0,8.796840099996189,number4,False,True,True,8,3,2019_Nov_12_1001,MA_Theta_Exp,3.0.7,60.162535104532004,
video/Experiment/zh_sp07_Ad_Ge_1_NVocInAudio_GlobalThetaInVideo.avi,vocoded,plusVideo,sp07,Ad,Ge,1,1,1,flow/blocks/NVocInAudio_GlobalThetaInVideo_A.csv,,,,,,,,,0,1,1,1,0,18,18,0,,,,,,,,,-0.42083333333333334,0.2810185185185185,1,0,0,7.017994900001213,call1,-0.015277777777777777,-0.28564814814814815,1,0,0,11.687541699997382,colour4,0.3861111111111111,0.287962962962963,1,0,0,12.257773500008625,number1,True,False,True,8,3,2019_Nov_12_1001,MA_Theta_Exp,3.0.7,60.162535104532004,
video/Experiment/zh_sp07_Dr_Ge_4_NVocInAudio_GlobalThetaInVideo.avi,vocoded,plusVideo,sp07,Dr,Ge,4,1,1,flow/blocks/NVocInAudio_GlobalThetaInVideo_A.csv,,,,,,,,,0,1,1,1,0,19,19,19,,,,,,,,,-0.3861111111111111,0.13240740740740742,1,0,0,5.005194900004426,call2,-0.03935185185185185,0.30324074074074076,1,0,0,5.571422900000471,colour1,0.4537037037037037,-0.3537037037037037,1,0,0,6.254324900000938,number4,True,True,True,8,3,2019_Nov_12_1001,MA_Theta_Exp,3.0.7,60.162535104532004,
video/Experiment/zh_sp07_Dr_Ro_4_NVocInAudio_GlobalThetaInVideo.avi,vocoded,plusVideo,sp07,Dr,Ro,4,1,1,flow/blocks/NVocInAudio_GlobalThetaInVideo_A.csv,,,,,,,,,0,1,1,1,0,20,20,27,,,,,,,,,0.40694444444444444,-0.30092592592592593,1,0,0,5.489222299991525,call2,0.037037037037037035,0.2671296296296296,1,0,0,7.920361900003627,colour1,0.399537037037037,-0.262037037037037,1,0,0,8.543288800006849,number4,True,False,True,8,3,2019_Nov_12_1001,MA_Theta_Exp,3.0.7,60.162535104532004,
video/Experiment/zh_sp01_Ad_We_2_NVocInAudio_GlobalThetaInVideo.avi,vocoded,plusVideo,sp01,Ad,We,2,1,1,flow/blocks/NVocInAudio_GlobalThetaInVideo_A.csv,,,,,,,,,0,1,1,1,0,21,21,13,,,,,,,,,-0.3907407407407407,0.3060185185185185,1,0,0,4.929212200004258,call1,0.028703703703703703,-0.32592592592592595,1,0,0,5.664623599994229,colour4,0.3800925925925926,0.15046296296296297,1,0,0,6.246350100002019,number2,True,True,True,8,3,2019_Nov_12_1001,MA_Theta_Exp,3.0.7,60.162535104532004,
video/Experiment/zh_sp01_Dr_Ge_1_NVocInAudio_GlobalThetaInVideo.avi,vocoded,plusVideo,sp01,Dr,Ge,1,1,1,flow/blocks/NVocInAudio_GlobalThetaInVideo_A.csv,,,,,,,,,0,1,1,1,0,22,22,16,,,,,,,,,-0.42824074074074076,0.1087962962962963,1,0,0,5.049344800005201,call2,0.0125,0.32546296296296295,1,0,0,5.867971800005762,colour1,0.40925925925925927,0.31296296296296294,1,0,0,6.477787899988471,number1,True,True,True,8,3,2019_Nov_12_1001,MA_Theta_Exp,3.0.7,60.162535104532004,
video/Experiment/zh_sp07_Ad_We_1_NVocInAudio_GlobalThetaInVideo.avi,vocoded,plusVideo,sp07,Ad,We,1,1,1,flow/blocks/NVocInAudio_GlobalThetaInVideo_A.csv,,,,,,,,,0,1,1,1,0,23,23,12,,,,,,,,,-0.39305555555555555,0.2949074074074074,1,0,0,4.48173329999554,call1,-0.04722222222222222,-0.262037037037037,1,0,0,5.046635399994557,colour4,0.3902777777777778,0.3490740740740741,1,0,0,5.6833974000037415,number1,True,True,True,8,3,2019_Nov_12_1001,MA_Theta_Exp,3.0.7,60.162535104532004,
video/Experiment/zh_sp01_Dr_Gr_2_NVocInAudio_GlobalThetaInVideo.avi,vocoded,plusVideo,sp01,Dr,Gr,2,1,1,flow/blocks/NVocInAudio_GlobalThetaInVideo_A.csv,,,,,,,,,0,1,1,1,0,24,24,21,,,,,,,,,-0.3958333333333333,0.11574074074074074,1,0,0,6.233403400008683,call2,0.003703703703703704,0.10324074074074074,1,0,0,6.941530199997942,colour2,0.42453703703703705,0.11712962962962963,1,0,0,7.447878999999375,number2,True,True,True,8,3,2019_Nov_12_1001,MA_Theta_Exp,3.0.7,60.162535104532004,
video/Experiment/zh_sp01_Ad_Gr_2_NVocInAudio_GlobalThetaInVideo.avi,vocoded,plusVideo,sp01,Ad,Gr,2,1,1,flow/blocks/NVocInAudio_GlobalThetaInVideo_A.csv,,,,,,,,,0,1,1,1,0,25,25,5,,,,,,,,,-0.38472222222222224,0.26296296296296295,1,0,0,6.402868199991644,call1,0.028703703703703703,0.0712962962962963,1,0,0,8.361457200007862,colour2,0.3800925925925926,0.11157407407407408,1,0,0,8.940263899989077,number2,True,True,True,8,3,2019_Nov_12_1001,MA_Theta_Exp,3.0.7,60.162535104532004,
video/Experiment/zh_sp01_Ad_Gr_4_NVocInAudio_GlobalThetaInVideo.avi,vocoded,plusVideo,sp01,Ad,Gr,4,1,1,flow/blocks/NVocInAudio_GlobalThetaInVideo_A.csv,,,,,,,,,0,1,1,1,0,26,26,7,,,,,,,,,-0.4222222222222222,0.31712962962962965,1,0,0,5.063176199997542,call1,0.03287037037037037,0.07268518518518519,1,0,0,5.577259199999389,colour2,0.45925925925925926,-0.36203703703703705,1,0,0,6.129029699994135,number4,True,True,True,8,3,2019_Nov_12_1001,MA_Theta_Exp,3.0.7,60.162535104532004,
video/Experiment/zh_sp07_Ad_Ro_4_NVocInAudio_GlobalThetaInVideo.avi,vocoded,plusVideo,sp07,Ad,Ro,4,1,1,flow/blocks/NVocInAudio_GlobalThetaInVideo_A.csv,,,,,,,,,0,1,1,1,0,27,27,11,,,,,,,,,-0.412962962962963,0.31574074074074077,1,0,0,5.1945349000015995,call1,0.025,-0.12037037037037036,1,0,0,5.825420199995278,colour3,0.45,-0.33425925925925926,1,0,0,6.389239600001019,number4,True,True,True,8,3,2019_Nov_12_1001,MA_Theta_Exp,3.0.7,60.162535104532004,
video/Experiment/zh_sp01_Ad_Ge_2_NVocInAudio_GlobalThetaInVideo.avi,vocoded,plusVideo,sp01,Ad,Ge,2,1,1,flow/blocks/NVocInAudio_GlobalThetaInVideo_A.csv,,,,,,,,,0,1,1,1,0,28,28,1,,,,,,,,,-0.4236111111111111,0.31157407407407406,1,0,0,4.952280899990001,call1,0.014814814814814815,0.29907407407407405,1,0,0,5.68495090000215,colour1,0.40555555555555556,0.10324074074074074,1,0,0,6.4180276000115555,number2,True,True,True,8,3,2019_Nov_12_1001,MA_Theta_Exp,3.0.7,60.162535104532004,
video/Experiment/zh_sp07_Dr_Ro_1_NVocInAudio_GlobalThetaInVideo.avi,vocoded,plusVideo,sp07,Dr,Ro,1,1,1,flow/blocks/NVocInAudio_GlobalThetaInVideo_A.csv,,,,,,,,,0,1,1,1,0,29,29,24,,,,,,,,,-0.40324074074074073,0.10740740740740741,1,0,0,5.842297299997881,call2,-0.01712962962962963,0.300462962962963,1,0,0,6.494626999992761,colour1,0.45092592592592595,0.3101851851851852,1,0,0,7.059569700009888,number1,True,False,True,8,3,2019_Nov_12_1001,MA_Theta_Exp,3.0.7,60.162535104532004,
video/Experiment/zh_sp01_Ad_We_4_NVocInAudio_GlobalThetaInVideo.avi,vocoded,plusVideo,sp01,Ad,We,4,1,1,flow/blocks/NVocInAudio_GlobalThetaInVideo_A.csv,,,,,,,,,0,1,1,1,0,30,30,15,,,,,,,,,-0.4097222222222222,0.30185185185185187,1,0,0,4.898609299998498,call1,0.00787037037037037,-0.337037037037037,1,0,0,5.517939199999091,colour4,0.4222222222222222,-0.30648148148148147,1,0,0,6.266710600000806,number4,True,True,True,8,3,2019_Nov_12_1001,MA_Theta_Exp,3.0.7,60.162535104532004,
video/Experiment/zh_sp01_Dr_Gr_1_NVocInAudio_GlobalThetaInVideo.avi,vocoded,plusVideo,sp01,Dr,Gr,1,1,1,flow/blocks/NVocInAudio_GlobalThetaInVideo_A.csv,,,,,,,,,0,1,1,1,0,31,31,20,,,,,,,,,-0.4199074074074074,0.12129629629629629,1,0,0,5.1444690999924205,call2,-0.014351851851851852,0.12546296296296297,1,0,0,6.580143700004555,colour2,0.3902777777777778,0.30462962962962964,1,0,0,7.168529200003832,number1,True,True,True,8,3,2019_Nov_12_1001,MA_Theta_Exp,3.0.7,60.162535104532004,
video/Experiment/zh_sp07_Dr_Gr_3_NoThetaInAudio_NoVideo.avi,noTheta,noVideo,sp07,Dr,Gr,3,2,4,flow/blocks/NoThetaInAudio_NoVideo_A.csv,,,,,,,,,0,2,2,2,0,0,0,22,,,,,,,,,-0.3638888888888889,0.12685185185185185,1,0,0,4.778364799989504,call2,-0.06018518518518518,0.11435185185185186,1,0,0,5.414021100004902,colour2,0.4023148148148148,-0.13287037037037036,1,0,0,5.9936368000053335,number3,True,True,True,8,3,2019_Nov_12_1001,MA_Theta_Exp,3.0.7,60.162535104532004,
video/Experiment/zh_sp01_Ad_Gr_3_NoThetaInAudio_NoVideo.avi,noTheta,noVideo,sp01,Ad,Gr,3,2,4,flow/blocks/NoThetaInAudio_NoVideo_A.csv,,,,,,,,,0,2,2,2,0,1,1,6,,,,,,,,,-0.38333333333333336,0.3087962962962963,1,0,0,4.997335999985808,call1,-0.011574074074074073,0.12407407407407407,1,0,0,5.516746200009948,colour2,0.38842592592592595,-0.10787037037037037,1,0,0,6.076802700001281,number3,True,True,True,8,3,2019_Nov_12_1001,MA_Theta_Exp,3.0.7,60.162535104532004,
video/Experiment/zh_sp01_Ad_Ro_3_NoThetaInAudio_NoVideo.avi,noTheta,noVideo,sp01,Ad,Ro,3,2,4,flow/blocks/NoThetaInAudio_NoVideo_A.csv,,,,,,,,,0,2,2,2,0,2,2,10,,,,,,,,,-0.39166666666666666,0.2796296296296296,1,0,0,5.509101299991016,call1,0.037037037037037035,-0.07175925925925926,1,0,0,6.117732500002603,colour3,0.41064814814814815,-0.3037037037037037,1,0,0,6.678343799998402,number4,True,True,False,8,3,2019_Nov_12_1001,MA_Theta_Exp,3.0.7,60.162535104532004,
video/Experiment/zh_sp01_Ad_We_2_NoThetaInAudio_NoVideo.avi,noTheta,noVideo,sp01,Ad,We,2,2,4,flow/blocks/NoThetaInAudio_NoVideo_A.csv,,,,,,,,,0,2,2,2,0,3,3,13,,,,,,,,,-0.39166666666666666,0.300462962962963,1,0,0,4.913340800005244,call1,-0.007407407407407408,-0.3106481481481482,1,0,0,5.538719499993022,colour4,0.3912037037037037,0.10601851851851851,1,0,0,6.127340499995626,number2,True,True,True,8,3,2019_Nov_12_1001,MA_Theta_Exp,3.0.7,60.162535104532004,
video/Experiment/zh_sp07_Dr_Ge_4_NoThetaInAudio_NoVideo.avi,noTheta,noVideo,sp07,Dr,Ge,4,2,4,flow/blocks/NoThetaInAudio_NoVideo_A.csv,,,,,,,,,0,2,2,2,0,4,4,19,,,,,,,,,-0.3819444444444444,0.0824074074074074,1,0,0,5.315199999997276,call2,0.010648148148148148,-0.0912037037037037,1,0,0,6.2119129000057,colour3,0.44814814814814813,-0.36203703703703705,1,0,0,6.663101199999801,number4,True,False,True,8,3,2019_Nov_12_1001,MA_Theta_Exp,3.0.7,60.162535104532004,
video/Experiment/zh_sp01_Ad_We_1_NoThetaInAudio_NoVideo.avi,noTheta,noVideo,sp01,Ad,We,1,2,4,flow/blocks/NoThetaInAudio_NoVideo_A.csv,,,,,,,,,0,2,2,2,0,5,5,12,,,,,,,,,-0.4166666666666667,0.2861111111111111,1,0,0,5.053271299999324,call1,-0.04490740740740741,-0.30833333333333335,1,0,0,5.674871900002472,colour4,0.3787037037037037,0.3375,1,0,0,6.4058561000128975,number1,True,True,True,8,3,2019_Nov_12_1001,MA_Theta_Exp,3.0.7,60.162535104532004,
video/Experiment/zh_sp07_Ad_Ro_2_NoThetaInAudio_NoVideo.avi,noTheta,noVideo,sp07,Ad,Ro,2,2,4,flow/blocks/NoThetaInAudio_NoVideo_A.csv,,,,,,,,,0,2,2,2,0,6,6,9,,,,,,,,,-0.47129629629629627,0.3236111111111111,1,0,0,4.448151200005668,call1,-0.049074074074074076,-0.09722222222222222,1,0,0,5.093722000005073,colour3,0.36342592592592593,0.08055555555555556,1,0,0,5.767536500003189,number2,True,True,True,8,3,2019_Nov_12_1001,MA_Theta_Exp,3.0.7,60.162535104532004,
video/Experiment/zh_sp01_Dr_Ro_2_NoThetaInAudio_NoVideo.avi,noTheta,noVideo,sp01,Dr,Ro,2,2,4,flow/blocks/NoThetaInAudio_NoVideo_A.csv,,,,,,,,,0,2,2,2,0,7,7,25,,,,,,,,,-0.39351851851851855,0.2777777777777778,1,0,0,6.778503100009402,call1,-0.05185185185185185,-0.07083333333333333,1,0,0,7.266947899988736,colour3,0.4203703703703704,0.11527777777777778,1,0,0,7.814161400005105,number2,False,True,True,8,3,2019_Nov_12_1001,MA_Theta_Exp,3.0.7,60.162535104532004,
video/Experiment/zh_sp01_Dr_We_1_NoThetaInAudio_NoVideo.avi,noTheta,noVideo,sp01,Dr,We,1,2,4,flow/blocks/NoThetaInAudio_NoVideo_A.csv,,,,,,,,,0,2,2,2,0,8,8,28,,,,,,,,,-0.4046296296296296,0.2791666666666667,1,0,0,5.1577145000046585,call1,0.037037037037037035,-0.3416666666666667,1,0,0,5.75820830000157,colour4,0.4148148148148148,0.29444444444444445,1,0,0,6.469111699989298,number1,False,True,True,8,3,2019_Nov_12_1001,MA_Theta_Exp,3.0.7,60.162535104532004,
video/Experiment/zh_sp07_Ad_Gr_2_NoThetaInAudio_NoVideo.avi,noTheta,noVideo,sp07,Ad,Gr,2,2,4,flow/blocks/NoThetaInAudio_NoVideo_A.csv,,,,,,,,,0,2,2,2,0,9,9,5,,,,,,,,,-0.3699074074074074,0.2708333333333333,1,0,0,4.40178850000666,call1,-0.007407407407407408,0.05,1,0,0,4.979350200010231,colour2,0.44305555555555554,0.09722222222222222,1,0,0,5.564630399996531,number2,True,True,True,8,3,2019_Nov_12_1001,MA_Theta_Exp,3.0.7,60.162535104532004,
video/Experiment/zh_sp01_Ad_We_4_NoThetaInAudio_NoVideo.avi,noTheta,noVideo,sp01,Ad,We,4,2,4,flow/blocks/NoThetaInAudio_NoVideo_A.csv,,,,,,,,,0,2,2,2,0,10,10,15,,,,,,,,,-0.3958333333333333,0.3013888888888889,1,0,0,5.10438289999729,call1,0.04259259259259259,-0.2763888888888889,1,0,0,5.768946199998027,colour4,0.4398148148148148,-0.30972222222222223,1,0,0,6.3241121000028215,number4,True,True,True,8,3,2019_Nov_12_1001,MA_Theta_Exp,3.0.7,60.162535104532004,
video/Experiment/zh_sp01_Dr_Gr_4_NoThetaInAudio_NoVideo.avi,noTheta,noVideo,sp01,Dr,Gr,4,2,4,flow/blocks/NoThetaInAudio_NoVideo_A.csv,,,,,,,,,0,2,2,2,0,11,11,23,,,,,,,,,-0.3875,0.10833333333333334,1,0,0,5.002203100011684,call2,-0.01712962962962963,0.09583333333333334,1,0,0,5.513914199997089,colour2,0.45787037037037037,-0.3055555555555556,1,0,0,6.122111100004986,number4,True,True,True,8,3,2019_Nov_12_1001,MA_Theta_Exp,3.0.7,60.162535104532004,
video/Experiment/zh_sp01_Dr_Ro_4_NoThetaInAudio_NoVideo.avi,noTheta,noVideo,sp01,Dr,Ro,4,2,4,flow/blocks/NoThetaInAudio_NoVideo_A.csv,,,,,,,,,0,2,2,2,0,12,12,27,,,,,,,,,-0.40879629629629627,0.11527777777777778,1,0,0,5.077054000008502,call2,0.027314814814814816,-0.09444444444444444,1,0,0,5.5242302999977255,colour3,0.4412037037037037,-0.2972222222222222,1,0,0,6.060149700002512,number4,True,True,True,8,3,2019_Nov_12_1001,MA_Theta_Exp,3.0.7,60.162535104532004,
video/Experiment/zh_sp01_Dr_We_2_NoThetaInAudio_NoVideo.avi,noTheta,noVideo,sp01,Dr,We,2,2,4,flow/blocks/NoThetaInAudio_NoVideo_A.csv,,,,,,,,,0,2,2,2,0,13,13,29,,,,,,,,,-0.44907407407407407,0.10555555555555556,1,0,0,5.08200829999987,call2,0.03981481481481482,-0.31666666666666665,1,0,0,5.702779300001566,colour4,0.39814814814814814,0.10277777777777777,1,0,0,6.350035800001933,number2,True,True,True,8,3,2019_Nov_12_1001,MA_Theta_Exp,3.0.7,60.162535104532004,
video/Experiment/zh_sp07_Dr_Ro_1_NoThetaInAudio_NoVideo.avi,noTheta,noVideo,sp07,Dr,Ro,1,2,4,flow/blocks/NoThetaInAudio_NoVideo_A.csv,,,,,,,,,0,2,2,2,0,14,14,24,,,,,,,,,-0.4476851851851852,0.1486111111111111,1,0,0,4.316780299996026,call2,-0.031018518518518518,-0.11388888888888889,1,0,0,4.867401999988942,colour3,0.42916666666666664,0.33611111111111114,1,0,0,5.519347800000105,number1,True,True,True,8,3,2019_Nov_12_1001,MA_Theta_Exp,3.0.7,60.162535104532004,
video/Experiment/zh_sp07_Dr_Ge_1_NoThetaInAudio_NoVideo.avi,noTheta,noVideo,sp07,Dr,Ge,1,2,4,flow/blocks/NoThetaInAudio_NoVideo_A.csv,,,,,,,,,0,2,2,2,0,15,15,16,,,,,,,,,-0.4152777777777778,0.11944444444444445,1,0,0,4.702089900005376,call2,-0.056018518518518516,0.11527777777777778,1,0,0,5.292516700006672,colour2,0.36898148148148147,0.31527777777777777,1,0,0,5.868629099990358,number1,True,False,True,8,3,2019_Nov_12_1001,MA_Theta_Exp,3.0.7,60.162535104532004,
video/Experiment/zh_sp07_Dr_We_4_NoThetaInAudio_NoVideo.avi,noTheta,noVideo,sp07,Dr,We,4,2,4,flow/blocks/NoThetaInAudio_NoVideo_A.csv,,,,,,,,,0,2,2,2,0,16,16,31,,,,,,,,,-0.41574074074074074,0.12361111111111112,1,0,0,4.383312699996168,call2,0.0023148148148148147,-0.2916666666666667,1,0,0,4.985356999997748,colour4,0.39675925925925926,-0.3347222222222222,1,0,0,5.486089199999697,number4,True,True,True,8,3,2019_Nov_12_1001,MA_Theta_Exp,3.0.7,60.162535104532004,
video/Experiment/zh_sp07_Ad_Gr_1_NoThetaInAudio_NoVideo.avi,noTheta,noVideo,sp07,Ad,Gr,1,2,4,flow/blocks/NoThetaInAudio_NoVideo_A.csv,,,,,,,,,0,2,2,2,0,17,17,4,,,,,,,,,-0.4083333333333333,0.09027777777777778,1,0,0,4.553799099987373,call2,-0.06296296296296296,0.0875,1,0,0,5.065185300001758,colour2,0.3648148148148148,0.3138888888888889,1,0,0,5.620386499998858,number1,False,True,True,8,3,2019_Nov_12_1001,MA_Theta_Exp,3.0.7,60.162535104532004,
video/Experiment/zh_sp07_Ad_Ge_2_NoThetaInAudio_NoVideo.avi,noTheta,noVideo,sp07,Ad,Ge,2,2,4,flow/blocks/NoThetaInAudio_NoVideo_A.csv,,,,,,,,,0,2,2,2,0,18,18,1,,,,,,,,,-0.4041666666666667,0.08472222222222223,1,0,0,4.572298500002944,call2,-0.0060185185185185185,0.08888888888888889,1,0,0,6.254304800007958,colour2,0.36898148148148147,0.09583333333333334,1,0,0,6.655302099999972,number2,False,False,True,8,3,2019_Nov_12_1001,MA_Theta_Exp,3.0.7,60.162535104532004,
video/Experiment/zh_sp01_Ad_Ro_4_NoThetaInAudio_NoVideo.avi,noTheta,noVideo,sp01,Ad,Ro,4,2,4,flow/blocks/NoThetaInAudio_NoVideo_A.csv,,,,,,,,,0,2,2,2,0,19,19,11,,,,,,,,,-0.3958333333333333,0.29305555555555557,1,0,0,5.102792599995155,call1,-0.0060185185185185185,0.2833333333333333,1,0,0,5.968442900004447,colour1,0.4064814814814815,-0.28888888888888886,1,0,0,6.746060100005707,number4,True,False,True,8,3,2019_Nov_12_1001,MA_Theta_Exp,3.0.7,60.162535104532004,
video/Experiment/zh_sp07_Ad_Ge_4_NoThetaInAudio_NoVideo.avi,noTheta,noVideo,sp07,Ad,Ge,4,2,4,flow/blocks/NoThetaInAudio_NoVideo_A.csv,,,,,,,,,0,2,2,2,0,20,20,3,,,,,,,,,-0.3638888888888889,0.30416666666666664,1,0,0,4.944218799995724,call1,0.003703703703703704,0.29583333333333334,1,0,0,5.369218599997112,colour1,0.38564814814814813,-0.2569444444444444,1,0,0,5.909194699997897,number4,True,True,True,8,3,2019_Nov_12_1001,MA_Theta_Exp,3.0.7,60.162535104532004,
video/Experiment/zh_sp07_Dr_Gr_2_NoThetaInAudio_NoVideo.avi,noTheta,noVideo,sp07,Dr,Gr,2,2,4,flow/blocks/NoThetaInAudio_NoVideo_A.csv,,,,,,,,,0,2,2,2,0,21,21,21,,,,,,,,,-0.39166666666666666,-0.1,1,0,0,4.594555199990282,call3,-0.049074074074074076,0.08888888888888889,1,0,0,5.033887899990077,colour2,0.40925925925925927,0.11666666666666667,1,0,0,5.573409200005699,number2,False,True,True,8,3,2019_Nov_12_1001,MA_Theta_Exp,3.0.7,60.162535104532004,
video/Experiment/zh_sp01_Ad_Ge_3_NoThetaInAudio_NoVideo.avi,noTheta,noVideo,sp01,Ad,Ge,3,2,4,flow/blocks/NoThetaInAudio_NoVideo_A.csv,,,,,,,,,0,2,2,2,0,22,22,2,,,,,,,,,-0.3763888888888889,0.30416666666666664,1,0,0,5.244557600002736,call1,0.009259259259259259,0.2777777777777778,1,0,0,5.631707299995469,colour1,0.3731481481481482,-0.2513888888888889,1,0,0,6.292422800004715,number4,True,True,False,8,3,2019_Nov_12_1001,MA_Theta_Exp,3.0.7,60.162535104532004,
video/Experiment/zh_sp07_Ad_Ro_1_NoThetaInAudio_NoVideo.avi,noTheta,noVideo,sp07,Ad,Ro,1,2,4,flow/blocks/NoThetaInAudio_NoVideo_A.csv,,,,,,,,,0,2,2,2,0,23,23,8,,,,,,,,,-0.37407407407407406,0.2833333333333333,1,0,0,4.26421819999814,call1,-0.004629629629629629,0.11944444444444445,1,0,0,4.664957699991646,colour2,0.37592592592592594,0.2652777777777778,1,0,0,5.072453899992979,number1,True,False,True,8,3,2019_Nov_12_1001,MA_Theta_Exp,3.0.7,60.162535104532004,
video/Experiment/zh_sp07_Dr_Gr_1_NoThetaInAudio_NoVideo.avi,noTheta,noVideo,sp07,Dr,Gr,1,2,4,flow/blocks/NoThetaInAudio_NoVideo_A.csv,,,,,,,,,0,2,2,2,0,24,24,20,,,,,,,,,-0.37222222222222223,0.09166666666666666,1,0,0,4.5957919000065885,call2,-0.050462962962962966,0.09722222222222222,1,0,0,5.050482500009821,colour2,0.4064814814814815,0.3125,1,0,0,5.549453300001915,number1,True,True,True,8,3,2019_Nov_12_1001,MA_Theta_Exp,3.0.7,60.162535104532004,
video/Experiment/zh_sp07_Dr_Ge_2_NoThetaInAudio_NoVideo.avi,noTheta,noVideo,sp07,Dr,Ge,2,2,4,flow/blocks/NoThetaInAudio_NoVideo_A.csv,,,,,,,,,0,2,2,2,0,25,25,17,,,,,,,,,-0.3875,0.325,1,0,0,5.018038700000034,call1,0.015277777777777777,-0.09166666666666666,1,0,0,6.888477899992722,colour3,0.40370370370370373,0.3055555555555556,1,0,0,7.46425880001334,number1,False,False,False,8,3,2019_Nov_12_1001,MA_Theta_Exp,3.0.7,60.162535104532004,
video/Experiment/zh_sp07_Ad_Gr_4_NoThetaInAudio_NoVideo.avi,noTheta,noVideo,sp07,Ad,Gr,4,2,4,flow/blocks/NoThetaInAudio_NoVideo_A.csv,,,,,,,,,0,2,2,2,0,26,26,7,,,,,,,,,-0.40879629629629627,0.31805555555555554,1,0,0,4.249305999997887,call1,-0.011574074074074073,0.10277777777777777,1,0,0,4.732432100005099,colour2,0.42453703703703705,-0.32916666666666666,1,0,0,5.369742900002166,number4,True,True,True,8,3,2019_Nov_12_1001,MA_Theta_Exp,3.0.7,60.162535104532004,
video/Experiment/zh_sp01_Ad_We_3_NoThetaInAudio_NoVideo.avi,noTheta,noVideo,sp01,Ad,We,3,2,4,flow/blocks/NoThetaInAudio_NoVideo_A.csv,,,,,,,,,0,2,2,2,0,27,27,14,,,,,,,,,-0.3851851851851852,0.3194444444444444,1,0,0,4.92654990000301,call1,0.05787037037037037,-0.33194444444444443,1,0,0,5.590991500008386,colour4,0.41898148148148145,-0.15416666666666667,1,0,0,6.069055300002219,number3,True,True,True,8,3,2019_Nov_12_1001,MA_Theta_Exp,3.0.7,60.162535104532004,
video/Experiment/zh_sp01_Dr_We_3_NoThetaInAudio_NoVideo.avi,noTheta,noVideo,sp01,Dr,We,3,2,4,flow/blocks/NoThetaInAudio_NoVideo_A.csv,,,,,,,,,0,2,2,2,0,28,28,30,,,,,,,,,-0.412962962962963,0.10138888888888889,1,0,0,5.117545499990229,call2,0.038425925925925926,-0.32222222222222224,1,0,0,5.963913699990371,colour4,0.4064814814814815,-0.13194444444444445,1,0,0,6.482400200009579,number3,True,True,True,8,3,2019_Nov_12_1001,MA_Theta_Exp,3.0.7,60.162535104532004,
video/Experiment/zh_sp07_Ad_Ge_1_NoThetaInAudio_NoVideo.avi,noTheta,noVideo,sp07,Ad,Ge,1,2,4,flow/blocks/NoThetaInAudio_NoVideo_A.csv,,,,,,,,,0,2,2,2,0,29,29,0,,,,,,,,,-0.44027777777777777,0.31666666666666665,1,0,0,4.603724299988244,call1,-0.047685185185185185,0.31527777777777777,1,0,0,5.017804300005082,colour1,0.4300925925925926,0.3263888888888889,1,0,0,5.568917299999157,number1,True,True,True,8,3,2019_Nov_12_1001,MA_Theta_Exp,3.0.7,60.162535104532004,
video/Experiment/zh_sp01_Dr_Ro_3_NoThetaInAudio_NoVideo.avi,noTheta,noVideo,sp01,Dr,Ro,3,2,4,flow/blocks/NoThetaInAudio_NoVideo_A.csv,,,,,,,,,0,2,2,2,0,30,30,26,,,,,,,,,-0.43472222222222223,0.1111111111111111,1,0,0,5.025529699996696,call2,-0.0587962962962963,0.3055555555555556,1,0,0,5.604497100008302,colour1,0.41203703703703703,-0.1125,1,0,0,6.690758199998527,number3,True,False,True,8,3,2019_Nov_12_1001,MA_Theta_Exp,3.0.7,60.162535104532004,
video/Experiment/zh_sp01_Dr_Ge_3_NoThetaInAudio_NoVideo.avi,noTheta,noVideo,sp01,Dr,Ge,3,2,4,flow/blocks/NoThetaInAudio_NoVideo_A.csv,,,,,,,,,0,2,2,2,0,31,31,18,,,,,,,,,-0.39861111111111114,0.1375,1,0,0,4.99858879999374,call2,0.003703703703703704,0.3277777777777778,1,0,0,5.576512799991178,colour1,0.43287037037037035,-0.11388888888888889,1,0,0,6.125831299999845,number3,True,True,True,8,3,2019_Nov_12_1001,MA_Theta_Exp,3.0.7,60.162535104532004,
video/Experiment/zh_sp07_Ad_Ro_1_NVocInAudio_NoVideo.avi,vocoded,noVideo,sp07,Ad,Ro,1,3,2,flow/blocks/NVocInAudio_NoVideo_A.csv,,,,,,,,,0,3,3,3,0,0,0,8,,,,,,,,,-0.3416666666666667,0.27361111111111114,1,0,0,4.332077899991418,call1,-0.08657407407407407,-0.06111111111111111,1,0,0,4.868941699998686,colour3,0.3925925925925926,0.2847222222222222,1,0,0,5.6984133000078145,number1,True,True,True,8,3,2019_Nov_12_1001,MA_Theta_Exp,3.0.7,60.162535104532004,
video/Experiment/zh_sp07_Dr_Gr_1_NVocInAudio_NoVideo.avi,vocoded,noVideo,sp07,Dr,Gr,1,3,2,flow/blocks/NVocInAudio_NoVideo_A.csv,,,,,,,,,0,3,3,3,0,1,1,20,,,,,,,,,-0.3837962962962963,0.11388888888888889,1,0,0,5.037714699996286,call2,0.03333333333333333,0.04861111111111111,1,0,0,6.026873499999056,colour2,0.37037037037037035,0.3236111111111111,1,0,0,6.687859199999366,number1,True,True,True,8,3,2019_Nov_12_1001,MA_Theta_Exp,3.0.7,60.162535104532004,
video/Experiment/zh_sp07_Dr_We_1_NVocInAudio_NoVideo.avi,vocoded,noVideo,sp07,Dr,We,1,3,2,flow/blocks/NVocInAudio_NoVideo_A.csv,,,,,,,,,0,3,3,3,0,2,2,28,,,,,,,,,-0.3712962962962963,0.09027777777777778,1,0,0,5.312999799993122,call2,0.04537037037037037,-0.3236111111111111,1,0,0,5.882270999994944,colour4,0.39675925925925926,0.3055555555555556,1,0,0,6.433458699990297,number1,True,True,True,8,3,2019_Nov_12_1001,MA_Theta_Exp,3.0.7,60.162535104532004,
video/Experiment/zh_sp07_Dr_Ro_2_NVocInAudio_NoVideo.avi,vocoded,noVideo,sp07,Dr,Ro,2,3,2,flow/blocks/NVocInAudio_NoVideo_A.csv,,,,,,,,,0,3,3,3,0,3,3,25,,,,,,,,,-0.41388888888888886,0.1111111111111111,1,0,0,4.986790299997665,call2,0.00787037037037037,-0.10833333333333334,1,0,0,6.10440959999687,colour3,0.4287037037037037,0.09444444444444444,1,0,0,6.866183700010879,number2,True,True,True,8,3,2019_Nov_12_1001,MA_Theta_Exp,3.0.7,60.162535104532004,
video/Experiment/zh_sp07_Ad_Ro_2_NVocInAudio_NoVideo.avi,vocoded,noVideo,sp07,Ad,Ro,2,3,2,flow/blocks/NVocInAudio_NoVideo_A.csv,,,,,,,,,0,3,3,3,0,4,4,9,,,,,,,,,-0.4027777777777778,0.325,1,0,0,4.4588953999918886,call1,0.05648148148148148,-0.13055555555555556,1,0,0,4.976238499992178,colour3,0.4828703703703704,0.12777777777777777,1,0,0,5.493449100002181,number2,True,True,True,8,3,2019_Nov_12_1001,MA_Theta_Exp,3.0.7,60.162535104532004,
video/Experiment/zh_sp01_Dr_Ro_3_NVocInAudio_NoVideo.avi,vocoded,noVideo,sp01,Dr,Ro,3,3,2,flow/blocks/NVocInAudio_NoVideo_A.csv,,,,,,,,,0,3,3,3,0,5,5,26,,,,,,,,,-0.44212962962962965,0.09861111111111111,1,0,0,4.8684519000089495,call2,-0.05324074074074074,-0.11666666666666667,1,0,0,5.375707299986971,colour3,0.4064814814814815,-0.11388888888888889,1,0,0,5.888596600008896,number3,True,True,True,8,3,2019_Nov_12_1001,MA_Theta_Exp,3.0.7,60.162535104532004,
video/Experiment/zh_sp07_Ad_Gr_1_NVocInAudio_NoVideo.avi,vocoded,noVideo,sp07,Ad,Gr,1,3,2,flow/blocks/NVocInAudio_NoVideo_A.csv,,,,,,,,,0,3,3,3,0,6,6,4,,,,,,,,,-0.3680555555555556,0.30277777777777776,1,0,0,4.42659580000327,call1,0.03194444444444444,-0.09861111111111111,1,0,0,7.715701799999806,colour3,0.04027777777777778,0.075,1,0,0,8.630505900000571,number1,True,False,True,8,3,2019_Nov_12_1001,MA_Theta_Exp,3.0.7,60.162535104532004,
video/Experiment/zh_sp07_Dr_Ge_2_NVocInAudio_NoVideo.avi,vocoded,noVideo,sp07,Dr,Ge,2,3,2,flow/blocks/NVocInAudio_NoVideo_A.csv,,,,,,,,,0,3,3,3,0,7,7,17,,,,,,,,,-0.3907407407407407,0.10972222222222222,1,0,0,4.647454799996922,call2,0.008333333333333333,0.2569444444444444,1,0,0,5.19873849999567,colour1,0.43425925925925923,0.058333333333333334,1,0,0,5.692606199998409,number2,True,True,True,8,3,2019_Nov_12_1001,MA_Theta_Exp,3.0.7,60.162535104532004,
video/Experiment/zh_sp01_Dr_Ro_1_NVocInAudio_NoVideo.avi,vocoded,noVideo,sp01,Dr,Ro,1,3,2,flow/blocks/NVocInAudio_NoVideo_A.csv,,,,,,,,,0,3,3,3,0,8,8,24,,,,,,,,,-0.40694444444444444,0.14166666666666666,1,0,0,5.192719099999522,call2,-0.05185185185185185,-0.13055555555555556,1,0,0,5.830303599999752,colour3,0.3814814814814815,0.30972222222222223,1,0,0,6.475432499995804,number1,True,True,True,8,3,2019_Nov_12_1001,MA_Theta_Exp,3.0.7,60.162535104532004,
video/Experiment/zh_sp01_Dr_We_4_NVocInAudio_NoVideo.avi,vocoded,noVideo,sp01,Dr,We,4,3,2,flow/blocks/NVocInAudio_NoVideo_A.csv,,,,,,,,,0,3,3,3,0,9,9,31,,,,,,,,,-0.36157407407407405,0.10416666666666667,1,0,0,5.0962312999909045,call2,0.000925925925925926,-0.2847222222222222,1,0,0,5.712492099992232,colour4,0.4425925925925926,-0.31666666666666665,1,0,0,6.241345599992201,number4,True,True,True,8,3,2019_Nov_12_1001,MA_Theta_Exp,3.0.7,60.162535104532004,
video/Experiment/zh_sp01_Dr_Ge_1_NVocInAudio_NoVideo.avi,vocoded,noVideo,sp01,Dr,Ge,1,3,2,flow/blocks/NVocInAudio_NoVideo_A.csv,,,,,,,,,0,3,3,3,0,10,10,16,,,,,,,,,-0.39351851851851855,0.09027777777777778,1,0,0,4.9699582000030205,call2,0.05555555555555555,0.30694444444444446,1,0,0,6.047787900010007,colour1,0.31203703703703706,0.2791666666666667,1,0,0,6.484717100000125,number1,True,True,True,8,3,2019_Nov_12_1001,MA_Theta_Exp,3.0.7,60.162535104532004,
video/Experiment/zh_sp07_Dr_Ge_3_NVocInAudio_NoVideo.avi,vocoded,noVideo,sp07,Dr,Ge,3,3,2,flow/blocks/NVocInAudio_NoVideo_A.csv,,,,,,,,,0,3,3,3,0,11,11,18,,,,,,,,,-0.3921296296296296,0.10277777777777777,1,0,0,4.675559499999508,call2,-0.03518518518518519,0.3111111111111111,1,0,0,5.280647999999928,colour1,0.3972222222222222,-0.07361111111111111,1,0,0,5.909089600012521,number3,True,True,True,8,3,2019_Nov_12_1001,MA_Theta_Exp,3.0.7,60.162535104532004,
video/Experiment/zh_sp01_Ad_We_4_NVocInAudio_NoVideo.avi,vocoded,noVideo,sp01,Ad,We,4,3,2,flow/blocks/NVocInAudio_NoVideo_A.csv,,,,,,,,,0,3,3,3,0,12,12,15,,,,,,,,,-0.3875,0.2972222222222222,1,0,0,4.926173999992898,call1,0.1259259259259259,-0.3333333333333333,1,0,0,5.5634271999879275,colour4,0.41944444444444445,-0.3111111111111111,1,0,0,6.809545399999479,number4,True,True,True,8,3,2019_Nov_12_1001,MA_Theta_Exp,3.0.7,60.162535104532004,
video/Experiment/zh_sp01_Ad_Ge_3_NVocInAudio_NoVideo.avi,vocoded,noVideo,sp01,Ad,Ge,3,3,2,flow/blocks/NVocInAudio_NoVideo_A.csv,,,,,,,,,0,3,3,3,0,13,13,2,,,,,,,,,-0.35694444444444445,0.3472222222222222,1,0,0,4.824347699992359,call1,0.03425925925925926,0.32083333333333336,1,0,0,5.306089999998221,colour1,0.35648148148148145,-0.05,1,0,0,5.840519400007906,number3,True,True,True,8,3,2019_Nov_12_1001,MA_Theta_Exp,3.0.7,60.162535104532004,
video/Experiment/zh_sp01_Ad_Ro_3_NVocInAudio_NoVideo.avi,vocoded,noVideo,sp01,Ad,Ro,3,3,2,flow/blocks/NVocInAudio_NoVideo_A.csv,,,,,,,,,0,3,3,3,0,14,14,10,,,,,,,,,-0.34305555555555556,0.3,1,0,0,5.283900800000993,call1,-0.001851851851851852,-0.1111111111111111,1,0,0,5.786769099999219,colour3,0.43842592592592594,-0.11388888888888889,1,0,0,6.342236900003627,number3,True,True,True,8,3,2019_Nov_12_1001,MA_Theta_Exp,3.0.7,60.162535104532004,
video/Experiment/zh_sp07_Dr_Gr_2_NVocInAudio_NoVideo.avi,vocoded,noVideo,sp07,Dr,Gr,2,3,2,flow/blocks/NVocInAudio_NoVideo_A.csv,,,,,,,,,0,3,3,3,0,15,15,21,,,,,,,,,-0.36712962962962964,0.3,1,0,0,7.432038900005864,call1,0.023148148148148147,-0.075,1,0,0,7.962959800002864,colour3,0.3763888888888889,0.09444444444444444,1,0,0,8.366544799995609,number2,False,False,True,8,3,2019_Nov_12_1001,MA_Theta_Exp,3.0.7,60.162535104532004,
video/Experiment/zh_sp01_Ad_Gr_3_NVocInAudio_NoVideo.avi,vocoded,noVideo,sp01,Ad,Gr,3,3,2,flow/blocks/NVocInAudio_NoVideo_A.csv,,,,,,,,,0,3,3,3,0,16,16,6,,,,,,,,,-0.3990740740740741,0.31805555555555554,1,0,0,5.091125599996303,call1,0.034722222222222224,0.08888888888888889,1,0,0,5.56303889999981,colour2,0.4134259259259259,-0.10555555555555556,1,0,0,6.042707200002042,number3,True,True,True,8,3,2019_Nov_12_1001,MA_Theta_Exp,3.0.7,60.162535104532004,
video/Experiment/zh_sp01_Ad_We_3_NVocInAudio_NoVideo.avi,vocoded,noVideo,sp01,Ad,We,3,3,2,flow/blocks/NVocInAudio_NoVideo_A.csv,,,,,,,,,0,3,3,3,0,17,17,14,,,,,,,,,-0.362962962962963,0.30972222222222223,1,0,0,5.677225699997507,call1,-0.000462962962962963,-0.058333333333333334,1,0,0,6.3406987999915145,colour3,0.43703703703703706,-0.12777777777777777,1,0,0,7.024787600006675,number3,True,False,True,8,3,2019_Nov_12_1001,MA_Theta_Exp,3.0.7,60.162535104532004,
video/Experiment/zh_sp07_Dr_Ge_4_NVocInAudio_NoVideo.avi,vocoded,noVideo,sp07,Dr,Ge,4,3,2,flow/blocks/NVocInAudio_NoVideo_A.csv,,,,,,,,,0,3,3,3,0,18,18,19,,,,,,,,,-0.4060185185185185,0.11527777777777778,1,0,0,4.347917399994913,call2,-0.011574074074074073,-0.3458333333333333,1,0,0,6.5336208999942755,colour4,0.38842592592592595,-0.35694444444444445,1,0,0,6.938251200001105,number4,True,False,True,8,3,2019_Nov_12_1001,MA_Theta_Exp,3.0.7,60.162535104532004,
video/Experiment/zh_sp07_Ad_Ge_1_NVocInAudio_NoVideo.avi,vocoded,noVideo,sp07,Ad,Ge,1,3,2,flow/blocks/NVocInAudio_NoVideo_A.csv,,,,,,,,,0,3,3,3,0,19,19,0,,,,,,,,,-0.3990740740740741,0.30277777777777776,1,0,0,4.541836799995508,call1,-0.010185185185185186,0.2902777777777778,1,0,0,5.010576300002867,colour1,0.43148148148148147,0.32222222222222224,1,0,0,5.623083600003156,number1,True,True,True,8,3,2019_Nov_12_1001,MA_Theta_Exp,3.0.7,60.162535104532004,
video/Experiment/zh_sp01_Dr_Gr_4_NVocInAudio_NoVideo.avi,vocoded,noVideo,sp01,Dr,Gr,4,3,2,flow/blocks/NVocInAudio_NoVideo_A.csv,,,,,,,,,0,3,3,3,0,20,20,23,,,,,,,,,-0.4166666666666667,0.09722222222222222,1,0,0,5.2843748000013875,call2,-0.018518518518518517,0.10138888888888889,1,0,0,5.722951299991109,colour2,0.4148148148148148,-0.3347222222222222,1,0,0,6.35156760000973,number4,True,True,True,8,3,2019_Nov_12_1001,MA_Theta_Exp,3.0.7,60.162535104532004,
video/Experiment/zh_sp01_Ad_We_2_NVocInAudio_NoVideo.avi,vocoded,noVideo,sp01,Ad,We,2,3,2,flow/blocks/NVocInAudio_NoVideo_A.csv,,,,,,,,,0,3,3,3,0,21,21,13,,,,,,,,,-0.4361111111111111,0.30833333333333335,1,0,0,4.999059199995827,call1,-0.022685185185185187,-0.3236111111111111,1,0,0,5.693149500002619,colour4,0.4287037037037037,0.10138888888888889,1,0,0,6.292985899999621,number2,True,True,True,8,3,2019_Nov_12_1001,MA_Theta_Exp,3.0.7,60.162535104532004,
video/Experiment/zh_sp01_Dr_We_3_NVocInAudio_NoVideo.avi,vocoded,noVideo,sp01,Dr,We,3,3,2,flow/blocks/NVocInAudio_NoVideo_A.csv,,,,,,,,,0,3,3,3,0,22,22,30,,,,,,,,,-0.4074074074074074,0.11805555555555555,1,0,0,5.406301499999245,call2,0.038425925925925926,-0.35,1,0,0,6.158289300001343,colour4,0.4513888888888889,-0.1111111111111111,1,0,0,6.940874399995664,number3,True,True,True,8,3,2019_Nov_12_1001,MA_Theta_Exp,3.0.7,60.162535104532004,
video/Experiment/zh_sp01_Ad_Gr_4_NVocInAudio_NoVideo.avi,vocoded,noVideo,sp01,Ad,Gr,4,3,2,flow/blocks/NVocInAudio_NoVideo_A.csv,,,,,,,,,0,3,3,3,0,23,23,7,,,,,,,,,-0.39305555555555555,0.10416666666666667,1,0,0,5.231373800008441,call2,-0.39444444444444443,0.3472222222222222,1,0,0,5.959940999993705,colour1,0.36898148148148147,-0.2986111111111111,1,0,0,7.542688100002124,number4,False,False,True,8,3,2019_Nov_12_1001,MA_Theta_Exp,3.0.7,60.162535104532004,
video/Experiment/zh_sp01_Dr_Ro_4_NVocInAudio_NoVideo.avi,vocoded,noVideo,sp01,Dr,Ro,4,3,2,flow/blocks/NVocInAudio_NoVideo_A.csv,,,,,,,,,0,3,3,3,0,24,24,27,,,,,,,,,-0.41435185185185186,0.10694444444444444,1,0,0,4.863649899998563,call2,-0.004629629629629629,-0.09027777777777778,1,0,0,5.393469100003131,colour3,0.4064814814814815,-0.32222222222222224,1,0,0,5.9070329000096535,number4,True,True,True,8,3,2019_Nov_12_1001,MA_Theta_Exp,3.0.7,60.162535104532004,
video/Experiment/zh_sp07_Dr_We_2_NVocInAudio_NoVideo.avi,vocoded,noVideo,sp07,Dr,We,2,3,2,flow/blocks/NVocInAudio_NoVideo_A.csv,,,,,,,,,0,3,3,3,0,25,25,29,,,,,,,,,-0.39444444444444443,0.12361111111111112,1,0,0,5.151693299994804,call2,-0.011574074074074073,-0.2791666666666667,1,0,0,5.784409799991408,colour4,0.4009259259259259,0.09305555555555556,1,0,0,6.473923300000024,number2,True,True,True,8,3,2019_Nov_12_1001,MA_Theta_Exp,3.0.7,60.162535104532004,
video/Experiment/zh_sp01_Ad_Ge_2_NVocInAudio_NoVideo.avi,vocoded,noVideo,sp01,Ad,Ge,2,3,2,flow/blocks/NVocInAudio_NoVideo_A.csv,,,,,,,,,0,3,3,3,0,26,26,1,,,,,,,,,-0.37407407407407406,0.32083333333333336,1,0,0,4.887202500001877,call1,-0.0837962962962963,0.2972222222222222,1,0,0,5.365970300001209,colour1,0.41388888888888886,0.09861111111111111,1,0,0,6.202145400005975,number2,True,True,True,8,3,2019_Nov_12_1001,MA_Theta_Exp,3.0.7,60.162535104532004,
video/Experiment/zh_sp01_Ad_Gr_2_NVocInAudio_NoVideo.avi,vocoded,noVideo,sp01,Ad,Gr,2,3,2,flow/blocks/NVocInAudio_NoVideo_A.csv,,,,,,,,,0,3,3,3,0,27,27,5,,,,,,,,,-0.3819444444444444,0.3055555555555556,1,0,0,5.054617699992377,call1,-0.011574074074074073,0.12638888888888888,1,0,0,5.570616799988784,colour2,0.38425925925925924,0.10277777777777777,1,0,0,6.135929900003248,number2,True,True,True,8,3,2019_Nov_12_1001,MA_Theta_Exp,3.0.7,60.162535104532004,
video/Experiment/zh_sp07_Ad_We_1_NVocInAudio_NoVideo.avi,vocoded,noVideo,sp07,Ad,We,1,3,2,flow/blocks/NVocInAudio_NoVideo_A.csv,,,,,,,,,0,3,3,3,0,28,28,12,,,,,,,,,-0.39444444444444443,0.30416666666666664,1,0,0,5.118254799992428,call1,-0.001851851851851852,-0.29305555555555557,1,0,0,5.811870999998064,colour4,0.41064814814814815,0.2972222222222222,1,0,0,6.405110199993942,number1,True,True,True,8,3,2019_Nov_12_1001,MA_Theta_Exp,3.0.7,60.162535104532004,
video/Experiment/zh_sp07_Ad_Ro_4_NVocInAudio_NoVideo.avi,vocoded,noVideo,sp07,Ad,Ro,4,3,2,flow/blocks/NVocInAudio_NoVideo_A.csv,,,,,,,,,0,3,3,3,0,29,29,11,,,,,,,,,-0.3990740740740741,0.28888888888888886,1,0,0,4.669498399991426,call1,0.010648148148148148,-0.13472222222222222,1,0,0,5.2522072000138,colour3,0.3800925925925926,-0.30972222222222223,1,0,0,5.741308900003787,number4,True,True,True,8,3,2019_Nov_12_1001,MA_Theta_Exp,3.0.7,60.162535104532004,
video/Experiment/zh_sp07_Dr_Gr_3_NVocInAudio_NoVideo.avi,vocoded,noVideo,sp07,Dr,Gr,3,3,2,flow/blocks/NVocInAudio_NoVideo_A.csv,,,,,,,,,0,3,3,3,0,30,30,22,,,,,,,,,-0.38055555555555554,0.12083333333333333,1,0,0,4.526113700005226,call2,-0.047685185185185185,0.0875,1,0,0,4.963065800009645,colour2,0.4273148148148148,-0.11805555555555555,1,0,0,5.419791699998314,number3,True,True,True,8,3,2019_Nov_12_1001,MA_Theta_Exp,3.0.7,60.162535104532004,
video/Experiment/zh_sp07_Ad_Ge_4_NVocInAudio_NoVideo.avi,vocoded,noVideo,sp07,Ad,Ge,4,3,2,flow/blocks/NVocInAudio_NoVideo_A.csv,,,,,,,,,0,3,3,3,0,31,31,3,,,,,,,,,-0.3990740740740741,0.30833333333333335,1,0,0,4.581206300004851,call1,-0.01712962962962963,0.30972222222222223,1,0,0,5.105468099995051,colour1,0.4722222222222222,-0.3125,1,0,0,5.8067393000092125,number4,True,True,True,8,3,2019_Nov_12_1001,MA_Theta_Exp,3.0.7,60.162535104532004,
video/Experiment/zh_sp01_Dr_We_4_NoThetaInAudio_GlobalThetaInVideo.avi,noTheta,plusVideo,sp01,Dr,We,4,4,3,flow/blocks/NoThetaInAudio_GlobalThetaInVideo_A.csv,,,,,,,,,0,4,4,4,0,0,0,31,,,,,,,,,-0.3837962962962963,0.1,1,0,0,5.517843600013293,call2,0.00787037037037037,-0.27361111111111114,1,0,0,6.085063299993635,colour4,0.42314814814814816,-0.3194444444444444,1,0,0,6.6037051000021165,number4,True,True,True,8,3,2019_Nov_12_1001,MA_Theta_Exp,3.0.7,60.162535104532004,
video/Experiment/zh_sp01_Dr_Gr_2_NoThetaInAudio_GlobalThetaInVideo.avi,noTheta,plusVideo,sp01,Dr,Gr,2,4,3,flow/blocks/NoThetaInAudio_GlobalThetaInVideo_A.csv,,,,,,,,,0,4,4,4,0,1,1,21,,,,,,,,,-0.41944444444444445,0.09027777777777778,1,0,0,5.237180200012517,call2,-0.07407407407407407,0.13055555555555556,1,0,0,5.6657867999892915,colour2,0.38981481481481484,0.09861111111111111,1,0,0,6.218169999992824,number2,True,True,True,8,3,2019_Nov_12_1001,MA_Theta_Exp,3.0.7,60.162535104532004,
video/Experiment/zh_sp01_Ad_Ge_4_NoThetaInAudio_GlobalThetaInVideo.avi,noTheta,plusVideo,sp01,Ad,Ge,4,4,3,flow/blocks/NoThetaInAudio_GlobalThetaInVideo_A.csv,,,,,,,,,0,4,4,4,0,2,2,3,,,,,,,,,-0.38333333333333336,0.29444444444444445,1,0,0,4.912350600003265,call1,-0.050462962962962966,0.3333333333333333,1,0,0,5.342480199993588,colour1,0.44675925925925924,-0.2902777777777778,1,0,0,6.1014143000065815,number4,True,True,True,8,3,2019_Nov_12_1001,MA_Theta_Exp,3.0.7,60.162535104532004,
video/Experiment/zh_sp01_Ad_Ro_3_NoThetaInAudio_GlobalThetaInVideo.avi,noTheta,plusVideo,sp01,Ad,Ro,3,4,3,flow/blocks/NoThetaInAudio_GlobalThetaInVideo_A.csv,,,,,,,,,0,4,4,4,0,3,3,10,,,,,,,,,-0.4263888888888889,0.3111111111111111,1,0,0,4.8855664000002434,call1,-0.02824074074074074,-0.10833333333333334,1,0,0,5.502424600010272,colour3,0.4050925925925926,-0.2847222222222222,1,0,0,6.177065399999265,number4,True,True,False,8,3,2019_Nov_12_1001,MA_Theta_Exp,3.0.7,60.162535104532004,
video/Experiment/zh_sp01_Ad_Ro_4_NoThetaInAudio_GlobalThetaInVideo.avi,noTheta,plusVideo,sp01,Ad,Ro,4,4,3,flow/blocks/NoThetaInAudio_GlobalThetaInVideo_A.csv,,,,,,,,,0,4,4,4,0,4,4,11,,,,,,,,,-0.37083333333333335,0.29583333333333334,1,0,0,4.997200800004066,call1,0.038425925925925926,-0.11666666666666667,1,0,0,6.081184299997403,colour3,0.42777777777777776,-0.3138888888888889,1,0,0,6.881579799999599,number4,True,True,True,8,3,2019_Nov_12_1001,MA_Theta_Exp,3.0.7,60.162535104532004,
video/Experiment/zh_sp07_Dr_Ro_4_NoThetaInAudio_GlobalThetaInVideo.avi,noTheta,plusVideo,sp07,Dr,Ro,4,4,3,flow/blocks/NoThetaInAudio_GlobalThetaInVideo_A.csv,,,,,,,,,0,4,4,4,0,5,5,27,,,,,,,,,-0.41805555555555557,0.33194444444444443,1,0,0,4.6343624000001,call1,0.04027777777777778,-0.08055555555555556,1,0,0,6.073115100007271,colour3,0.399537037037037,-0.30972222222222223,1,0,0,6.551204899995355,number4,False,True,True,8,3,2019_Nov_12_1001,MA_Theta_Exp,3.0.7,60.162535104532004,
video/Experiment/zh_sp01_Ad_Gr_1_NoThetaInAudio_GlobalThetaInVideo.avi,noTheta,plusVideo,sp01,Ad,Gr,1,4,3,flow/blocks/NoThetaInAudio_GlobalThetaInVideo_A.csv,,,,,,,,,0,4,4,4,0,6,6,4,,,,,,,,,-0.3611111111111111,0.28888888888888886,1,0,0,5.2199236000014935,call1,-0.000462962962962963,0.09027777777777778,1,0,0,5.670699499998591,colour2,0.3648148148148148,0.3138888888888889,1,0,0,6.183764799992787,number1,True,True,True,8,3,2019_Nov_12_1001,MA_Theta_Exp,3.0.7,60.162535104532004,
video/Experiment/zh_sp07_Ad_Ro_1_NoThetaInAudio_GlobalThetaInVideo.avi,noTheta,plusVideo,sp07,Ad,Ro,1,4,3,flow/blocks/NoThetaInAudio_GlobalThetaInVideo_A.csv,,,,,,,,,0,4,4,4,0,7,7,8,,,,,,,,,-0.3597222222222222,-0.11666666666666667,1,0,0,6.940499000003911,call3,0.44166666666666665,0.37777777777777777,1,0,0,7.6716837999993,colour4,0.38425925925925924,0.30972222222222223,1,0,0,10.953886100003729,number1,False,False,True,8,3,2019_Nov_12_1001,MA_Theta_Exp,3.0.7,60.162535104532004,
video/Experiment/zh_sp07_Ad_We_4_NoThetaInAudio_GlobalThetaInVideo.avi,noTheta,plusVideo,sp07,Ad,We,4,4,3,flow/blocks/NoThetaInAudio_GlobalThetaInVideo_A.csv,,,,,,,,,0,4,4,4,0,8,8,15,,,,,,,,,-0.4337962962962963,0.325,1,0,0,4.451471099993796,call1,-0.0125,-0.26944444444444443,1,0,0,5.031296699991799,colour4,0.4217592592592593,-0.3277777777777778,1,0,0,5.6509901999961585,number4,True,True,True,8,3,2019_Nov_12_1001,MA_Theta_Exp,3.0.7,60.162535104532004,
video/Experiment/zh_sp07_Ad_We_1_NoThetaInAudio_GlobalThetaInVideo.avi,noTheta,plusVideo,sp07,Ad,We,1,4,3,flow/blocks/NoThetaInAudio_GlobalThetaInVideo_A.csv,,,,,,,,,0,4,4,4,0,9,9,12,,,,,,,,,-0.4486111111111111,0.2875,1,0,0,4.321379399989382,call1,-0.05185185185185185,-0.26944444444444443,1,0,0,5.093268500000704,colour4,0.3912037037037037,0.33055555555555555,1,0,0,5.6704103000083705,number1,True,True,True,8,3,2019_Nov_12_1001,MA_Theta_Exp,3.0.7,60.162535104532004,
video/Experiment/zh_sp07_Ad_Gr_4_NoThetaInAudio_GlobalThetaInVideo.avi,noTheta,plusVideo,sp07,Ad,Gr,4,4,3,flow/blocks/NoThetaInAudio_GlobalThetaInVideo_A.csv,,,,,,,,,0,4,4,4,0,10,10,7,,,,,,,,,-0.4305555555555556,0.3138888888888889,1,0,0,4.50061519999872,call1,-0.005555555555555556,0.10138888888888889,1,0,0,5.016000100004021,colour2,0.43148148148148147,-0.3194444444444444,1,0,0,5.499368799995864,number4,True,True,True,8,3,2019_Nov_12_1001,MA_Theta_Exp,3.0.7,60.162535104532004,
video/Experiment/zh_sp07_Dr_Ge_1_NoThetaInAudio_GlobalThetaInVideo.avi,noTheta,plusVideo,sp07,Dr,Ge,1,4,3,flow/blocks/NoThetaInAudio_GlobalThetaInVideo_A.csv,,,,,,,,,0,4,4,4,0,11,11,16,,,,,,,,,-0.375,0.31805555555555554,1,0,0,5.043790700001409,call1,0.04722222222222222,-0.3416666666666667,0,0,0,6.325557599993772,colour4,0.4083333333333333,0.3055555555555556,1,0,0,6.876921399991261,number1,False,False,True,8,3,2019_Nov_12_1001,MA_Theta_Exp,3.0.7,60.162535104532004,
video/Experiment/zh_sp01_Ad_Gr_2_NoThetaInAudio_GlobalThetaInVideo.avi,noTheta,plusVideo,sp01,Ad,Gr,2,4,3,flow/blocks/NoThetaInAudio_GlobalThetaInVideo_A.csv,,,,,,,,,0,4,4,4,0,12,12,5,,,,,,,,,-0.3990740740740741,0.33194444444444443,1,0,0,5.030426099998294,call1,-0.0060185185185185185,0.06944444444444445,1,0,0,5.564123300006031,colour2,0.41203703703703703,0.07916666666666666,1,0,0,6.057124900005874,number2,True,True,True,8,3,2019_Nov_12_1001,MA_Theta_Exp,3.0.7,60.162535104532004,
video/Experiment/zh_sp01_Dr_Ge_2_NoThetaInAudio_GlobalThetaInVideo.avi,noTheta,plusVideo,sp01,Dr,Ge,2,4,3,flow/blocks/NoThetaInAudio_GlobalThetaInVideo_A.csv,,,,,,,,,0,4,4,4,0,13,13,17,,,,,,,,,-0.39444444444444443,0.2777777777777778,1,0,0,5.1080609999917215,call1,-0.018518518518518517,0.25833333333333336,1,0,0,5.8380356000125175,colour1,0.37592592592592594,0.10277777777777777,1,0,0,6.435574300005101,number2,False,True,True,8,3,2019_Nov_12_1001,MA_Theta_Exp,3.0.7,60.162535104532004,
video/Experiment/zh_sp01_Dr_We_3_NoThetaInAudio_GlobalThetaInVideo.avi,noTheta,plusVideo,sp01,Dr,We,3,4,3,flow/blocks/NoThetaInAudio_GlobalThetaInVideo_A.csv,,,,,,,,,0,4,4,4,0,14,14,30,,,,,,,,,-0.3680555555555556,0.30416666666666664,1,0,0,5.856643499995698,call1,-0.0032407407407407406,0.30277777777777776,1,0,0,6.346771399999852,colour1,0.42916666666666664,-0.07361111111111111,1,0,0,6.962981900011073,number3,False,False,True,8,3,2019_Nov_12_1001,MA_Theta_Exp,3.0.7,60.162535104532004,
video/Experiment/zh_sp07_Dr_Ro_3_NoThetaInAudio_GlobalThetaInVideo.avi,noTheta,plusVideo,sp07,Dr,Ro,3,4,3,flow/blocks/NoThetaInAudio_GlobalThetaInVideo_A.csv,,,,,,,,,0,4,4,4,0,15,15,26,,,,,,,,,-0.36944444444444446,0.2625,1,0,0,4.699700600001961,call1,-0.0032407407407407406,-0.09027777777777778,1,0,0,5.315340000001015,colour3,0.3675925925925926,-0.10277777777777777,1,0,0,5.820274899990181,number3,False,True,True,8,3,2019_Nov_12_1001,MA_Theta_Exp,3.0.7,60.162535104532004,
video/Experiment/zh_sp01_Ad_Ge_3_NoThetaInAudio_GlobalThetaInVideo.avi,noTheta,plusVideo,sp01,Ad,Ge,3,4,3,flow/blocks/NoThetaInAudio_GlobalThetaInVideo_A.csv,,,,,,,,,0,4,4,4,0,16,16,2,,,,,,,,,-0.3888888888888889,0.32222222222222224,1,0,0,4.738038799987407,call1,0.030555555555555555,0.2791666666666667,1,0,0,7.418491600008565,colour1,0.42916666666666664,-0.1,1,0,0,8.195268600000418,number3,True,True,True,8,3,2019_Nov_12_1001,MA_Theta_Exp,3.0.7,60.162535104532004,
video/Experiment/zh_sp07_Dr_We_2_NoThetaInAudio_GlobalThetaInVideo.avi,noTheta,plusVideo,sp07,Dr,We,2,4,3,flow/blocks/NoThetaInAudio_GlobalThetaInVideo_A.csv,,,,,,,,,0,4,4,4,0,17,17,29,,,,,,,,,-0.4310185185185185,0.30277777777777776,1,0,0,5.1744687000027625,call1,0.027314814814814816,0.12777777777777777,1,0,0,6.520959899993613,colour2,0.4078703703703704,0.08194444444444444,1,0,0,6.992203600006178,number2,False,False,True,8,3,2019_Nov_12_1001,MA_Theta_Exp,3.0.7,60.162535104532004,
video/Experiment/zh_sp07_Dr_We_1_NoThetaInAudio_GlobalThetaInVideo.avi,noTheta,plusVideo,sp07,Dr,We,1,4,3,flow/blocks/NoThetaInAudio_GlobalThetaInVideo_A.csv,,,,,,,,,0,4,4,4,0,18,18,28,,,,,,,,,-0.4074074074074074,0.14027777777777778,1,0,0,5.437891699999454,call2,0.027777777777777776,0.2833333333333333,1,0,0,7.201135299997986,colour1,0.399537037037037,0.12083333333333333,1,0,0,7.8383969999995315,number2,True,False,False,8,3,2019_Nov_12_1001,MA_Theta_Exp,3.0.7,60.162535104532004,
video/Experiment/zh_sp01_Dr_Ge_4_NoThetaInAudio_GlobalThetaInVideo.avi,noTheta,plusVideo,sp01,Dr,Ge,4,4,3,flow/blocks/NoThetaInAudio_GlobalThetaInVideo_A.csv,,,,,,,,,0,4,4,4,0,19,19,19,,,,,,,,,-0.4060185185185185,0.28055555555555556,1,0,0,4.780819899999187,call1,-0.008796296296296297,0.3236111111111111,1,0,0,5.234344900003634,colour1,0.3800925925925926,-0.2833333333333333,1,0,0,5.916599599993788,number4,False,True,True,8,3,2019_Nov_12_1001,MA_Theta_Exp,3.0.7,60.162535104532004,
video/Experiment/zh_sp01_Dr_Gr_3_NoThetaInAudio_GlobalThetaInVideo.avi,noTheta,plusVideo,sp01,Dr,Gr,3,4,3,flow/blocks/NoThetaInAudio_GlobalThetaInVideo_A.csv,,,,,,,,,0,4,4,4,0,20,20,22,,,,,,,,,-0.42824074074074076,0.1388888888888889,1,0,0,4.906242700002622,call2,-0.0824074074074074,0.0763888888888889,1,0,0,5.378265999999712,colour2,0.3902777777777778,-0.10416666666666667,1,0,0,6.137334900005953,number3,True,True,True,8,3,2019_Nov_12_1001,MA_Theta_Exp,3.0.7,60.162535104532004,
video/Experiment/zh_sp01_Dr_Ro_2_NoThetaInAudio_GlobalThetaInVideo.avi,noTheta,plusVideo,sp01,Dr,Ro,2,4,3,flow/blocks/NoThetaInAudio_GlobalThetaInVideo_A.csv,,,,,,,,,0,4,4,4,0,21,21,25,,,,,,,,,-0.39166666666666666,0.2986111111111111,1,0,0,5.932476500005578,call1,0.04814814814814815,-0.0763888888888889,1,0,0,6.527276000007987,colour3,0.42592592592592593,0.09444444444444444,1,0,0,7.051530099997763,number2,False,True,True,8,3,2019_Nov_12_1001,MA_Theta_Exp,3.0.7,60.162535104532004,
video/Experiment/zh_sp07_Dr_Gr_1_NoThetaInAudio_GlobalThetaInVideo.avi,noTheta,plusVideo,sp07,Dr,Gr,1,4,3,flow/blocks/NoThetaInAudio_GlobalThetaInVideo_A.csv,,,,,,,,,0,4,4,4,0,22,22,20,,,,,,,,,-0.3958333333333333,0.3416666666666667,1,0,0,4.281109599993215,call1,0.022222222222222223,0.09027777777777778,1,0,0,5.113363600001321,colour2,0.42916666666666664,0.3138888888888889,1,0,0,6.1011332999914885,number1,False,True,True,8,3,2019_Nov_12_1001,MA_Theta_Exp,3.0.7,60.162535104532004,
video/Experiment/zh_sp07_Ad_Ge_1_NoThetaInAudio_GlobalThetaInVideo.avi,noTheta,plusVideo,sp07,Ad,Ge,1,4,3,flow/blocks/NoThetaInAudio_GlobalThetaInVideo_A.csv,,,,,,,,,0,4,4,4,0,23,23,0,,,,,,,,,-0.4027777777777778,0.31666666666666665,1,0,0,4.165354600001592,call1,0.017592592592592594,0.28888888888888886,1,0,0,4.626230899986695,colour1,0.34953703703703703,0.3111111111111111,1,0,0,5.159963700003573,number1,True,True,True,8,3,2019_Nov_12_1001,MA_Theta_Exp,3.0.7,60.162535104532004,
video/Experiment/zh_sp07_Ad_We_3_NoThetaInAudio_GlobalThetaInVideo.avi,noTheta,plusVideo,sp07,Ad,We,3,4,3,flow/blocks/NoThetaInAudio_GlobalThetaInVideo_A.csv,,,,,,,,,0,4,4,4,0,24,24,14,,,,,,,,,-0.4166666666666667,0.3055555555555556,1,0,0,4.665574500002549,call1,0.028703703703703703,0.09722222222222222,1,0,0,5.1168510999996215,colour2,0.33425925925925926,-0.12083333333333333,1,0,0,5.519386300002225,number3,True,False,True,8,3,2019_Nov_12_1001,MA_Theta_Exp,3.0.7,60.162535104532004,
video/Experiment/zh_sp07_Ad_Ge_2_NoThetaInAudio_GlobalThetaInVideo.avi,noTheta,plusVideo,sp07,Ad,Ge,2,4,3,flow/blocks/NoThetaInAudio_GlobalThetaInVideo_A.csv,,,,,,,,,0,4,4,4,0,25,25,1,,,,,,,,,-0.4041666666666667,0.3111111111111111,1,0,0,4.2817550000036135,call1,-0.010185185185185186,0.3111111111111111,1,0,0,4.713963100002729,colour1,0.41759259259259257,0.1,1,0,0,5.285181300001568,number2,True,True,True,8,3,2019_Nov_12_1001,MA_Theta_Exp,3.0.7,60.162535104532004,
video/Experiment/zh_sp07_Dr_Gr_4_NoThetaInAudio_GlobalThetaInVideo.avi,noTheta,plusVideo,sp07,Dr,Gr,4,4,3,flow/blocks/NoThetaInAudio_GlobalThetaInVideo_A.csv,,,,,,,,,0,4,4,4,0,26,26,23,,,,,,,,,-0.3888888888888889,0.2986111111111111,1,0,0,4.258184899998014,call1,0.009259259259259259,0.10277777777777777,1,0,0,4.74933430000965,colour2,0.4097222222222222,-0.29305555555555557,1,0,0,5.294980500009842,number4,False,True,True,8,3,2019_Nov_12_1001,MA_Theta_Exp,3.0.7,60.162535104532004,
video/Experiment/zh_sp07_Dr_Ro_1_NoThetaInAudio_GlobalThetaInVideo.avi,noTheta,plusVideo,sp07,Dr,Ro,1,4,3,flow/blocks/NoThetaInAudio_GlobalThetaInVideo_A.csv,,,,,,,,,0,4,4,4,0,27,27,24,,,,,,,,,-0.38055555555555554,0.2875,1,0,0,4.1889891000028,call1,0.052314814814814814,-0.12916666666666668,1,0,0,4.755012000008719,colour3,0.3578703703703704,0.2638888888888889,1,0,0,5.258309600001667,number1,False,True,True,8,3,2019_Nov_12_1001,MA_Theta_Exp,3.0.7,60.162535104532004,
video/Experiment/zh_sp01_Dr_Ge_3_NoThetaInAudio_GlobalThetaInVideo.avi,noTheta,plusVideo,sp01,Dr,Ge,3,4,3,flow/blocks/NoThetaInAudio_GlobalThetaInVideo_A.csv,,,,,,,,,0,4,4,4,0,28,28,18,,,,,,,,,-0.40185185185185185,0.09861111111111111,1,0,0,4.973722299997462,call2,0.005092592592592593,0.2902777777777778,1,0,0,5.407911100002821,colour1,0.40370370370370373,-0.06944444444444445,1,0,0,6.020678400003817,number3,True,True,True,8,3,2019_Nov_12_1001,MA_Theta_Exp,3.0.7,60.162535104532004,
video/Experiment/zh_sp01_Ad_Ro_2_NoThetaInAudio_GlobalThetaInVideo.avi,noTheta,plusVideo,sp01,Ad,Ro,2,4,3,flow/blocks/NoThetaInAudio_GlobalThetaInVideo_A.csv,,,,,,,,,0,4,4,4,0,29,29,9,,,,,,,,,-0.38657407407407407,0.10833333333333334,1,0,0,5.867656899994472,call2,0.005092592592592593,-0.1388888888888889,1,0,0,6.367173100006767,colour3,0.40370370370370373,0.07361111111111111,1,0,0,6.919777999995858,number2,False,True,True,8,3,2019_Nov_12_1001,MA_Theta_Exp,3.0.7,60.162535104532004,
video/Experiment/zh_sp07_Ad_We_2_NoThetaInAudio_GlobalThetaInVideo.avi,noTheta,plusVideo,sp07,Ad,We,2,4,3,flow/blocks/NoThetaInAudio_GlobalThetaInVideo_A.csv,,,,,,,,,0,4,4,4,0,30,30,13,,,,,,,,,-0.3819444444444444,0.3138888888888889,1,0,0,4.695339400001103,call1,-0.021296296296296296,0.15,1,0,0,5.114772899993113,colour2,0.43425925925925923,0.08333333333333333,1,0,0,5.481021500003408,number2,True,False,True,8,3,2019_Nov_12_1001,MA_Theta_Exp,3.0.7,60.162535104532004,
video/Experiment/zh_sp01_Ad_Gr_3_NoThetaInAudio_GlobalThetaInVideo.avi,noTheta,plusVideo,sp01,Ad,Gr,3,4,3,flow/blocks/NoThetaInAudio_GlobalThetaInVideo_A.csv,,,,,,,,,0,4,4,4,0,31,31,6,,,,,,,,,-0.40324074074074073,0.3263888888888889,1,0,0,5.192498400007025,call1,-0.01990740740740741,0.14027777777777778,1,0,0,5.66745200000878,colour2,0.4217592592592593,-0.08888888888888889,1,0,0,6.267941800004337,number3,True,True,True,8,3,2019_Nov_12_1001,MA_Theta_Exp,3.0.7,60.162535104532004,
video/Experiment/zh_sp07_Ti_Gr_1_GlobalTheta_NoVideo.avi,globalTheta,noVideo,sp07,Ti,Gr,1,0,5,flow/blocks/GlobalTheta_NoVideo_B.csv,,,,,,,,,,,,,,,,,0,0,0,0,0,0,0,4,-0.024074074074074074,-0.17083333333333334,1,0,0,8.56003760000749,call1,-0.03935185185185185,-0.10972222222222222,1,0,0,11.570804000002681,colour3,0.39814814814814814,0.2777777777777778,1,0,0,12.141930700003286,number1,False,False,True,8,3,2019_Nov_12_1001,MA_Theta_Exp,3.0.7,60.162535104532004,
video/Experiment/zh_sp07_Un_Ge_4_GlobalTheta_NoVideo.avi,globalTheta,noVideo,sp07,Un,Ge,4,0,5,flow/blocks/GlobalTheta_NoVideo_B.csv,,,,,,,,,,,,,,,,,0,0,0,0,0,1,1,19,-0.44074074074074077,0.13333333333333333,1,0,0,4.130338600007235,call2,-0.0060185185185185185,0.28888888888888886,1,0,0,4.785665700008394,colour1,0.38425925925925924,-0.12777777777777777,1,0,0,5.448244600003818,number3,False,True,False,8,3,2019_Nov_12_1001,MA_Theta_Exp,3.0.7,60.162535104532004,
video/Experiment/zh_sp07_Un_We_1_GlobalTheta_NoVideo.avi,globalTheta,noVideo,sp07,Un,We,1,0,5,flow/blocks/GlobalTheta_NoVideo_B.csv,,,,,,,,,,,,,,,,,0,0,0,0,0,2,2,28,-0.4013888888888889,-0.3055555555555556,1,0,0,4.704825200009509,call4,-0.011574074074074073,0.3055555555555556,1,0,0,5.9426734000007855,colour1,0.4023148148148148,0.30972222222222223,1,0,0,6.616192100002081,number1,True,False,True,8,3,2019_Nov_12_1001,MA_Theta_Exp,3.0.7,60.162535104532004,
video/Experiment/zh_sp01_Ti_We_3_GlobalTheta_NoVideo.avi,globalTheta,noVideo,sp01,Ti,We,3,0,5,flow/blocks/GlobalTheta_NoVideo_B.csv,,,,,,,,,,,,,,,,,0,0,0,0,0,3,3,14,-0.39166666666666666,-0.10694444444444444,1,0,0,5.219331000000238,call3,0.003703703703703704,-0.1388888888888889,1,0,0,6.947546600000351,colour3,0.39814814814814814,-0.08888888888888889,1,0,0,7.59915870000259,number3,True,False,True,8,3,2019_Nov_12_1001,MA_Theta_Exp,3.0.7,60.162535104532004,
video/Experiment/zh_sp07_Ti_We_1_GlobalTheta_NoVideo.avi,globalTheta,noVideo,sp07,Ti,We,1,0,5,flow/blocks/GlobalTheta_NoVideo_B.csv,,,,,,,,,,,,,,,,,0,0,0,0,0,4,4,12,,,,,,,,,,,,,,,,,,,,,,NO_ANSW,NO_ANSW,NO_ANSW,8,3,2019_Nov_12_1001,MA_Theta_Exp,3.0.7,60.162535104532004,
video/Experiment/zh_sp01_Ti_Ro_4_GlobalTheta_NoVideo.avi,globalTheta,noVideo,sp01,Ti,Ro,4,0,5,flow/blocks/GlobalTheta_NoVideo_B.csv,,,,,,,,,,,,,,,,,0,0,0,0,0,5,5,11,-0.38333333333333336,-0.11388888888888889,1,0,0,5.4361340000032214,call3,0.04675925925925926,0.3194444444444444,1,0,0,6.208105500001693,colour1,0.4050925925925926,-0.3236111111111111,1,0,0,6.952617100003408,number4,True,False,True,8,3,2019_Nov_12_1001,MA_Theta_Exp,3.0.7,60.162535104532004,
video/Experiment/zh_sp07_Un_Gr_2_GlobalTheta_NoVideo.avi,globalTheta,noVideo,sp07,Un,Gr,2,0,5,flow/blocks/GlobalTheta_NoVideo_B.csv,,,,,,,,,,,,,,,,,0,0,0,0,0,6,6,21,-0.3990740740740741,-0.31527777777777777,1,0,0,4.590638299996499,call4,0.02175925925925926,-0.10833333333333334,1,0,0,7.360226000004332,colour3,0.42592592592592593,0.32916666666666666,1,0,0,8.010298299996066,number1,True,False,False,8,3,2019_Nov_12_1001,MA_Theta_Exp,3.0.7,60.162535104532004,
video/Experiment/zh_sp07_Ti_Ge_1_GlobalTheta_NoVideo.avi,globalTheta,noVideo,sp07,Ti,Ge,1,0,5,flow/blocks/GlobalTheta_NoVideo_B.csv,,,,,,,,,,,,,,,,,0,0,0,0,0,7,7,0,-0.4013888888888889,-0.10694444444444444,1,0,0,5.040475800007698,call3,0.4222222222222222,0.3125,1,0,0,6.730305499993847,colour1,0.40925925925925927,0.2972222222222222,1,0,0,9.682975799994892,number1,True,True,True,8,3,2019_Nov_12_1001,MA_Theta_Exp,3.0.7,60.162535104532004,
video/Experiment/zh_sp01_Un_Ro_4_GlobalTheta_NoVideo.avi,globalTheta,noVideo,sp01,Un,Ro,4,0,5,flow/blocks/GlobalTheta_NoVideo_B.csv,,,,,,,,,,,,,,,,,0,0,0,0,0,8,8,27,-0.4476851851851852,-0.3263888888888889,1,0,0,4.922605200001271,call4,-0.026851851851851852,-0.1375,1,0,0,5.460187099990435,colour3,0.4273148148148148,-0.35,1,0,0,6.060828000001493,number4,True,True,True,8,3,2019_Nov_12_1001,MA_Theta_Exp,3.0.7,60.162535104532004,
video/Experiment/zh_sp07_Ti_Ge_4_GlobalTheta_NoVideo.avi,globalTheta,noVideo,sp07,Ti,Ge,4,0,5,flow/blocks/GlobalTheta_NoVideo_B.csv,,,,,,,,,,,,,,,,,0,0,0,0,0,9,9,3,-0.3976851851851852,-0.11944444444444445,1,0,0,4.51638180000009,call3,0.013888888888888888,0.275,1,0,0,5.867313599999761,colour1,0.42592592592592593,-0.2861111111111111,1,0,0,6.731890700000804,number4,True,True,True,8,3,2019_Nov_12_1001,MA_Theta_Exp,3.0.7,60.162535104532004,
video/Experiment/zh_sp01_Un_Ro_3_GlobalTheta_NoVideo.avi,globalTheta,noVideo,sp01,Un,Ro,3,0,5,flow/blocks/GlobalTheta_NoVideo_B.csv,,,,,,,,,,,,,,,,,0,0,0,0,0,10,10,26,-0.42685185185185187,-0.14722222222222223,1,0,0,5.048112099990249,call3,-0.000462962962962963,-0.10277777777777777,1,0,0,5.549064899998484,colour3,0.36064814814814816,-0.08611111111111111,1,0,0,6.1092744000052335,number3,False,True,True,8,3,2019_Nov_12_1001,MA_Theta_Exp,3.0.7,60.162535104532004,
video/Experiment/zh_sp01_Un_Ge_1_GlobalTheta_NoVideo.avi,globalTheta,noVideo,sp01,Un,Ge,1,0,5,flow/blocks/GlobalTheta_NoVideo_B.csv,,,,,,,,,,,,,,,,,0,0,0,0,0,11,11,16,-0.42962962962962964,-0.3106481481481482,1,0,0,5.075780800005305,call4,-0.001851851851851852,0.34629629629629627,1,0,0,5.716884800000116,colour1,0.38564814814814813,0.28935185185185186,1,0,0,6.245050300000003,number1,True,True,True,8,3,2019_Nov_12_1001,MA_Theta_Exp,3.0.7,60.162535104532004,
video/Experiment/zh_sp01_Ti_Ro_2_GlobalTheta_NoVideo.avi,globalTheta,noVideo,sp01,Ti,Ro,2,0,5,flow/blocks/GlobalTheta_NoVideo_B.csv,,,,,,,,,,,,,,,,,0,0,0,0,0,12,12,9,-0.36666666666666664,-0.09398148148148149,1,0,0,5.161219599991455,call3,-0.03935185185185185,-0.12731481481481483,1,0,0,5.59517099999357,colour3,0.36898148148148147,0.1310185185185185,1,0,0,6.19664229999762,number2,True,True,True,8,3,2019_Nov_12_1001,MA_Theta_Exp,3.0.7,60.162535104532004,
video/Experiment/zh_sp07_Un_Ro_2_GlobalTheta_NoVideo.avi,globalTheta,noVideo,sp07,Un,Ro,2,0,5,flow/blocks/GlobalTheta_NoVideo_B.csv,,,,,,,,,,,,,,,,,0,0,0,0,0,13,13,25,-0.41805555555555557,-0.3384259259259259,1,0,0,4.21383040001092,call4,-0.03657407407407407,0.30462962962962964,1,0,0,4.753570200002287,colour1,0.36064814814814816,0.3074074074074074,1,0,0,5.285869200000889,number1,True,False,False,8,3,2019_Nov_12_1001,MA_Theta_Exp,3.0.7,60.162535104532004,
video/Experiment/zh_sp01_Ti_Ge_2_GlobalTheta_NoVideo.avi,globalTheta,noVideo,sp01,Ti,Ge,2,0,5,flow/blocks/GlobalTheta_NoVideo_B.csv,,,,,,,,,,,,,,,,,0,0,0,0,0,14,14,1,-0.4111111111111111,-0.10231481481481482,1,0,0,5.063001799993799,call3,-0.01990740740740741,0.33240740740740743,1,0,0,5.9603318000008585,colour1,0.40370370370370373,0.13935185185185187,1,0,0,6.5143346000113524,number2,True,True,True,8,3,2019_Nov_12_1001,MA_Theta_Exp,3.0.7,60.162535104532004,
video/Experiment/zh_sp01_Ti_Ge_3_GlobalTheta_NoVideo.avi,globalTheta,noVideo,sp01,Ti,Ge,3,0,5,flow/blocks/GlobalTheta_NoVideo_B.csv,,,,,,,,,,,,,,,,,0,0,0,0,0,15,15,2,-0.3990740740740741,-0.1162037037037037,1,0,0,5.086992799988366,call3,-0.010185185185185186,0.2962962962962963,1,0,0,5.6693559999985155,colour1,0.3578703703703704,-0.13287037037037036,1,0,0,6.261706900011632,number3,True,True,True,8,3,2019_Nov_12_1001,MA_Theta_Exp,3.0.7,60.162535104532004,
video/Experiment/zh_sp07_Ti_We_4_GlobalTheta_NoVideo.avi,globalTheta,noVideo,sp07,Ti,We,4,0,5,flow/blocks/GlobalTheta_NoVideo_B.csv,,,,,,,,,,,,,,,,,0,0,0,0,0,16,16,15,-0.4041666666666667,-0.08981481481481482,1,0,0,5.182858499989379,call3,0.0023148148148148147,0.10046296296296296,1,0,0,5.693118700000923,colour2,0.38287037037037036,-0.08009259259259259,1,0,0,6.208022300008452,number3,True,False,False,8,3,2019_Nov_12_1001,MA_Theta_Exp,3.0.7,60.162535104532004,
video/Experiment/zh_sp01_Un_Gr_1_GlobalTheta_NoVideo.avi,globalTheta,noVideo,sp01,Un,Gr,1,0,5,flow/blocks/GlobalTheta_NoVideo_B.csv,,,,,,,,,,,,,,,,,0,0,0,0,0,17,17,20,-0.4212962962962963,-0.09259259259259259,1,0,0,4.854946299994481,call3,-0.0625,0.07685185185185185,1,0,0,5.369633299997076,colour2,0.40925925925925927,0.31296296296296294,1,0,0,5.875014600009308,number1,False,True,True,8,3,2019_Nov_12_1001,MA_Theta_Exp,3.0.7,60.162535104532004,
video/Experiment/zh_sp01_Un_We_2_GlobalTheta_NoVideo.avi,globalTheta,noVideo,sp01,Un,We,2,0,5,flow/blocks/GlobalTheta_NoVideo_B.csv,,,,,,,,,,,,,,,,,0,0,0,0,0,18,18,29,-0.3958333333333333,-0.32592592592592595,1,0,0,5.032916500000283,call4,-0.03518518518518519,-0.31203703703703706,1,0,0,6.048522099998081,colour4,0.3939814814814815,0.1087962962962963,1,0,0,6.64649039998767,number2,True,True,True,8,3,2019_Nov_12_1001,MA_Theta_Exp,3.0.7,60.162535104532004,
video/Experiment/zh_sp07_Ti_We_2_GlobalTheta_NoVideo.avi,globalTheta,noVideo,sp07,Ti,We,2,0,5,flow/blocks/GlobalTheta_NoVideo_B.csv,,,,,,,,,,,,,,,,,0,0,0,0,0,19,19,13,-0.38935185185185184,-0.0787037037037037,1,0,0,4.565472199989017,call3,-0.03518518518518519,-0.2689814814814815,1,0,0,6.069334599989816,colour4,0.3736111111111111,0.33796296296296297,1,0,0,6.640666899998905,number1,True,True,False,8,3,2019_Nov_12_1001,MA_Theta_Exp,3.0.7,60.162535104532004,
video/Experiment/zh_sp07_Un_Ge_2_GlobalTheta_NoVideo.avi,globalTheta,noVideo,sp07,Un,Ge,2,0,5,flow/blocks/GlobalTheta_NoVideo_B.csv,,,,,,,,,,,,,,,,,0,0,0,0,0,20,20,17,-0.4115740740740741,-0.3425925925925926,1,0,0,4.2251273000001675,call4,-0.040740740740740744,0.056018518518518516,1,0,0,4.736599199997727,colour2,0.34120370370370373,0.11296296296296296,1,0,0,5.1308116000000155,number2,True,False,True,8,3,2019_Nov_12_1001,MA_Theta_Exp,3.0.7,60.162535104532004,
video/Experiment/zh_sp07_Ti_Gr_4_GlobalTheta_NoVideo.avi,globalTheta,noVideo,sp07,Ti,Gr,4,0,5,flow/blocks/GlobalTheta_NoVideo_B.csv,,,,,,,,,,,,,,,,,0,0,0,0,0,21,21,7,-0.3736111111111111,-0.13842592592592592,1,0,0,4.838653099999647,call3,-0.004629629629629629,0.10740740740740741,1,0,0,5.4370294000109425,colour2,0.3861111111111111,-0.29398148148148145,1,0,0,5.970960200007539,number4,True,True,True,8,3,2019_Nov_12_1001,MA_Theta_Exp,3.0.7,60.162535104532004,
video/Experiment/zh_sp07_Un_Ge_3_GlobalTheta_NoVideo.avi,globalTheta,noVideo,sp07,Un,Ge,3,0,5,flow/blocks/GlobalTheta_NoVideo_B.csv,,,,,,,,,,,,,,,,,0,0,0,0,0,22,22,18,-0.41805555555555557,-0.3287037037037037,1,0,0,4.185967700002948,call4,-0.02824074074074074,0.26990740740740743,1,0,0,4.6871145000041,colour1,0.46944444444444444,-0.12175925925925926,1,0,0,5.169979300000705,number3,True,True,True,8,3,2019_Nov_12_1001,MA_Theta_Exp,3.0.7,60.162535104532004,
video/Experiment/zh_sp07_Ti_Gr_2_GlobalTheta_NoVideo.avi,globalTheta,noVideo,sp07,Ti,Gr,2,0,5,flow/blocks/GlobalTheta_NoVideo_B.csv,,,,,,,,,,,,,,,,,0,0,0,0,0,23,23,5,-0.3875,-0.10092592592592593,1,0,0,4.349753100002999,call3,0.003703703703703704,0.09351851851851851,1,0,0,4.9819748000008985,colour2,0.3814814814814815,0.3101851851851852,1,0,0,5.476300399997854,number1,True,True,False,8,3,2019_Nov_12_1001,MA_Theta_Exp,3.0.7,60.162535104532004,
video/Experiment/zh_sp01_Un_We_3_GlobalTheta_NoVideo.avi,globalTheta,noVideo,sp01,Un,We,3,0,5,flow/blocks/GlobalTheta_NoVideo_B.csv,,,,,,,,,,,,,,,,,0,0,0,0,0,24,24,30,-0.4046296296296296,-0.3189814814814815,1,0,0,4.640125799996895,call4,-0.05324074074074074,-0.3384259259259259,1,0,0,5.222488500003237,colour4,0.38287037037037036,-0.06481481481481481,1,0,0,6.552093300007982,number3,True,True,True,8,3,2019_Nov_12_1001,MA_Theta_Exp,3.0.7,60.162535104532004,
video/Experiment/zh_sp01_Un_Ro_1_GlobalTheta_NoVideo.avi,globalTheta,noVideo,sp01,Un,Ro,1,0,5,flow/blocks/GlobalTheta_NoVideo_B.csv,,,,,,,,,,,,,,,,,0,0,0,0,0,25,25,24,-0.3837962962962963,-0.2884259259259259,1,0,0,4.95558660000097,call4,0.0023148148148148147,0.0824074074074074,1,0,0,5.489144400009536,colour2,0.4425925925925926,0.31851851851851853,1,0,0,6.025535499997204,number1,True,False,True,8,3,2019_Nov_12_1001,MA_Theta_Exp,3.0.7,60.162535104532004,
video/Experiment/zh_sp07_Un_Gr_4_GlobalTheta_NoVideo.avi,globalTheta,noVideo,sp07,Un,Gr,4,0,5,flow/blocks/GlobalTheta_NoVideo_B.csv,,,,,,,,,,,,,,,,,0,0,0,0,0,26,26,23,-0.3921296296296296,-0.2912037037037037,1,0,0,4.261175999999978,call4,0.037037037037037035,0.08935185185185185,1,0,0,5.25766499999736,colour2,0.39444444444444443,-0.29398148148148145,1,0,0,6.027460900004371,number4,True,True,True,8,3,2019_Nov_12_1001,MA_Theta_Exp,3.0.7,60.162535104532004,
video/Experiment/zh_sp01_Ti_Gr_3_GlobalTheta_NoVideo.avi,globalTheta,noVideo,sp01,Ti,Gr,3,0,5,flow/blocks/GlobalTheta_NoVideo_B.csv,,,,,,,,,,,,,,,,,0,0,0,0,0,27,27,6,-0.26990740740740743,-0.11898148148148148,1,0,0,4.914855099996203,call3,0.0787037037037037,0.13935185185185187,1,0,0,5.836245499987854,colour2,0.34814814814814815,-0.062037037037037036,1,0,0,6.369355200004065,number3,True,True,True,8,3,2019_Nov_12_1001,MA_Theta_Exp,3.0.7,60.162535104532004,
video/Experiment/zh_sp01_Un_We_4_GlobalTheta_NoVideo.avi,globalTheta,noVideo,sp01,Un,We,4,0,5,flow/blocks/GlobalTheta_NoVideo_B.csv,,,,,,,,,,,,,,,,,0,0,0,0,0,28,28,31,-0.3976851851851852,-0.29398148148148145,1,0,0,5.199257699990994,call4,0.024537037037037038,-0.3189814814814815,1,0,0,5.830811199994059,colour4,0.3814814814814815,-0.28564814814814815,1,0,0,6.4834736000048,number4,True,True,True,8,3,2019_Nov_12_1001,MA_Theta_Exp,3.0.7,60.162535104532004,
video/Experiment/zh_sp07_Un_Gr_3_GlobalTheta_NoVideo.avi,globalTheta,noVideo,sp07,Un,Gr,3,0,5,flow/blocks/GlobalTheta_NoVideo_B.csv,,,,,,,,,,,,,,,,,0,0,0,0,0,29,29,22,-0.4236111111111111,-0.29259259259259257,1,0,0,5.260739100005594,call4,0.05694444444444444,0.0824074074074074,1,0,0,6.0457900000037625,colour2,0.399537037037037,-0.08981481481481482,1,0,0,6.434370899994974,number3,True,True,True,8,3,2019_Nov_12_1001,MA_Theta_Exp,3.0.7,60.162535104532004,
video/Experiment/zh_sp01_Ti_Ro_3_GlobalTheta_NoVideo.avi,globalTheta,noVideo,sp01,Ti,Ro,3,0,5,flow/blocks/GlobalTheta_NoVideo_B.csv,,,,,,,,,,,,,,,,,0,0,0,0,0,30,30,10,-0.3990740740740741,-0.11203703703703703,1,0,0,5.844882399993367,call3,0.003703703703703704,-0.13842592592592592,1,0,0,6.261723000003258,colour3,0.3314814814814815,-0.11481481481481481,1,0,0,6.676308000009158,number3,True,True,True,8,3,2019_Nov_12_1001,MA_Theta_Exp,3.0.7,60.162535104532004,
video/Experiment/zh_sp01_Ti_Ro_1_GlobalTheta_NoVideo.avi,globalTheta,noVideo,sp01,Ti,Ro,1,0,5,flow/blocks/GlobalTheta_NoVideo_B.csv,,,,,,,,,,,,,,,,,0,0,0,0,0,31,31,8,-0.48935185185185187,-0.08564814814814815,1,0,0,5.06209979999403,call3,0.00787037037037037,-0.13564814814814816,1,0,0,5.797989799990319,colour3,0.4148148148148148,0.3212962962962963,1,0,0,6.445432300009998,number1,True,True,True,8,3,2019_Nov_12_1001,MA_Theta_Exp,3.0.7,60.162535104532004,
