TrialID,NFB_digit1,NFB_digit2,NFB_digit3,practice_block.thisRepN,practice_block.thisTrialN,practice_block.thisN,practice_block.thisIndex,practice_trials.thisRepN,practice_trials.thisTrialN,practice_trials.thisN,practice_trials.thisIndex,response_practice.thisRepN,response_practice.thisTrialN,response_practice.thisN,response_practice.thisIndex,calibration_block.thisRepN,calibration_block.thisTrialN,calibration_block.thisN,calibration_block.thisIndex,experimental_block.thisRepN,experimental_block.thisTrialN,experimental_block.thisN,experimental_block.thisIndex,exp_trials.thisRepN,exp_trials.thisTrialN,exp_trials.thisN,exp_trials.thisIndex,response_exp.thisRepN,response_exp.thisTrialN,response_exp.thisN,response_exp.thisIndex,control_block.thisRepN,control_block.thisTrialN,control_block.thisN,control_block.thisIndex,ctrl_trials.thisRepN,ctrl_trials.thisTrialN,ctrl_trials.thisN,ctrl_trials.thisIndex,response_ctrl.thisRepN,response_ctrl.thisTrialN,response_ctrl.thisN,response_ctrl.thisIndex,Digit1_clear.started,Digit1_clear.stopped,Digit2_clear.started,Digit2_clear.stopped,Digit3_clear.started,Digit3_clear.stopped,key_resp_3.keys,key_resp_3.rt,key_resp_3.started,key_resp_3.stopped,text_4.started,text_4.stopped,text_5.started,text_5.stopped,Begin.started,Begin.stopped,Fixation.started,Fixation.stopped,sound_digit1.started,sound_digit1.stopped,sound_digit2.started,sound_digit2.stopped,sound_digit3.started,sound_digit3.stopped,key_resp.keys,key_resp.rt,key_resp.started,key_resp.stopped,Begin_3.started,Begin_3.stopped,Fixation_2.started,Fixation_2.stopped,sound_digit1_2.started,sound_digit1_2.stopped,sound_digit2_2.started,sound_digit2_2.stopped,sound_digit3_2.started,sound_digit3_2.stopped,key_resp_2.keys,key_resp_2.started,key_resp_2.stopped,key_resp_2.rt,Begin_4.started,Begin_4.stopped,participant,session,date,expName,psychopyVersion,frameRate,
0.0,6.0,2.0,4.0,0,0,0,0,0,0,0,0,0,0,0,0,,,,,,,,,,,,,,,,,,,,,,,,,,,,,0.0033639899993431754,None,0.4720768900006078,None,0.9554208900008234,None,['return'],[0.4006583999944269],21.79480930000136,None,,,,,,,,,,,,,,,,,,,,,,,,,,,,,,,,,,,1,001,2021_Oct_15_1315,eeg_contingent_digits,2021.2.3,59.989010012613235,
0.0,6.0,2.0,4.0,0,0,0,0,0,0,0,0,1,0,1,0,,,,,,,,,,,,,,,,,,,,,,,,,,,,,,,,,,,['return'],[0.15353869999671588],22.213826700004574,None,,,,,,,,,,,,,,,,,,,,,,,,,,,,,,,,,,,1,001,2021_Oct_15_1315,eeg_contingent_digits,2021.2.3,59.989010012613235,
0.0,6.0,2.0,4.0,0,0,0,0,0,0,0,0,2,0,2,0,,,,,,,,,,,,,,,,,,,,,,,,,,,,,,,,,,,['return'],[0.18725070000073174],22.39715850000357,None,,,,,,,,,,,,,,,,,,,,,,,,,,,,,,,,,,,1,001,2021_Oct_15_1315,eeg_contingent_digits,2021.2.3,59.989010012613235,
0.0,6.0,2.0,4.0,0,0,0,0,0,0,0,0,,,,,,,,,,,,,,,,,,,,,,,,,,,,,,,,,,,,,,,,,,,,,,,,,,,,,,,,,,,,,,,,,,,,,,,,,,,,,1,001,2021_Oct_15_1315,eeg_contingent_digits,2021.2.3,59.989010012613235,
1.0,1.0,9.0,3.0,0,0,0,0,0,1,1,1,0,0,0,0,,,,,,,,,,,,,,,,,,,,,,,,,,,,,0.01052649000484962,None,0.49142059000587324,None,0.9704511900054058,None,['return'],[0.15183210000395775],24.063549800004694,None,,,,,,,,,,,,,,,,,,,,,,,,,,,,,,,,,,,1,001,2021_Oct_15_1315,eeg_contingent_digits,2021.2.3,59.989010012613235,
1.0,1.0,9.0,3.0,0,0,0,0,0,1,1,1,1,0,1,0,,,,,,,,,,,,,,,,,,,,,,,,,,,,,,,,,,,['return'],[0.1353750999987824],24.247010799997952,None,,,,,,,,,,,,,,,,,,,,,,,,,,,,,,,,,,,1,001,2021_Oct_15_1315,eeg_contingent_digits,2021.2.3,59.989010012613235,
1.0,1.0,9.0,3.0,0,0,0,0,0,1,1,1,2,0,2,0,,,,,,,,,,,,,,,,,,,,,,,,,,,,,,,,,,,['return'],[0.14082970000163186],24.413679299999785,None,,,,,,,,,,,,,,,,,,,,,,,,,,,,,,,,,,,1,001,2021_Oct_15_1315,eeg_contingent_digits,2021.2.3,59.989010012613235,
1.0,1.0,9.0,3.0,0,0,0,0,0,1,1,1,,,,,,,,,,,,,,,,,,,,,,,,,,,,,,,,,,,,,,,,,,,,,,,,,,,,,,,,,,,,,,,,,,,,,,,,,,,,,1,001,2021_Oct_15_1315,eeg_contingent_digits,2021.2.3,59.989010012613235,
2.0,8.0,0.0,1.0,0,0,0,0,0,2,2,2,0,0,0,0,,,,,,,,,,,,,,,,,,,,,,,,,,,,,0.009805589994357433,None,0.48962988999846857,None,0.9526917900002445,None,['return'],[0.18623890000162646],26.019246399999247,None,,,,,,,,,,,,,,,,,,,,,,,,,,,,,,,,,,,1,001,2021_Oct_15_1315,eeg_contingent_digits,2021.2.3,59.989010012613235,
2.0,8.0,0.0,1.0,0,0,0,0,0,2,2,2,1,0,1,0,,,,,,,,,,,,,,,,,,,,,,,,,,,,,,,,,,,['return'],[0.16416559999925084],26.23021770000196,None,,,,,,,,,,,,,,,,,,,,,,,,,,,,,,,,,,,1,001,2021_Oct_15_1315,eeg_contingent_digits,2021.2.3,59.989010012613235,
2.0,8.0,0.0,1.0,0,0,0,0,0,2,2,2,2,0,2,0,,,,,,,,,,,,,,,,,,,,,,,,,,,,,,,,,,,['return'],[0.14002590000018245],26.413454100002127,None,,,,,,,,,,,,,,,,,,,,,,,,,,,,,,,,,,,1,001,2021_Oct_15_1315,eeg_contingent_digits,2021.2.3,59.989010012613235,
2.0,8.0,0.0,1.0,0,0,0,0,0,2,2,2,,,,,,,,,,,,,,,,,,,,,,,,,,,,,,,,,,,,,,,,,,,,,,,,,,,,,,,,,,,,,,,,,,,,,,,,,,,,,1,001,2021_Oct_15_1315,eeg_contingent_digits,2021.2.3,59.989010012613235,
3.0,9.0,6.0,1.0,0,0,0,0,0,3,3,3,0,0,0,0,,,,,,,,,,,,,,,,,,,,,,,,,,,,,0.009506289999990258,None,0.4854208900069352,None,0.9686687900029938,None,None,,28.02952508999879,None,,,,,,,,,,,,,,,,,,,,,,,,,,,,,,,,,,,1,001,2021_Oct_15_1315,eeg_contingent_digits,2021.2.3,59.989010012613235,
3.0,9.0,6.0,1.0,0,0,0,0,0,3,3,3,1,0,1,0,,,,,,,,,,,,,,,,,,,,,,,,,,,,,,,,,,,['return'],[0.19647039999836124],28.029959799998323,None,,,,,,,,,,,,,,,,,,,,,,,,,,,,,,,,,,,1,001,2021_Oct_15_1315,eeg_contingent_digits,2021.2.3,59.989010012613235,
3.0,9.0,6.0,1.0,0,0,0,0,0,3,3,3,2,0,2,0,,,,,,,,,,,,,,,,,,,,,,,,,,,,,,,,,,,['return'],[0.16692709999915678],28.246706099998846,None,,,,,,,,,,,,,,,,,,,,,,,,,,,,,,,,,,,1,001,2021_Oct_15_1315,eeg_contingent_digits,2021.2.3,59.989010012613235,
3.0,9.0,6.0,1.0,0,0,0,0,0,3,3,3,,,,,,,,,,,,,,,,,,,,,,,,,,,,,,,,,,,,,,,,,,,,,,,,,,,,,,,,,,,,,,,,,,,,,,,,,,,,,1,001,2021_Oct_15_1315,eeg_contingent_digits,2021.2.3,59.989010012613235,
4.0,8.0,1.0,5.0,0,0,0,0,0,4,4,4,0,0,0,0,,,,,,,,,,,,,,,,,,,,,,,,,,,,,0.010090190007758792,None,0.48625239000830334,None,0.9532682900025975,None,None,,29.862867990003725,None,,,,,,,,,,,,,,,,,,,,,,,,,,,,,,,,,,,1,001,2021_Oct_15_1315,eeg_contingent_digits,2021.2.3,59.989010012613235,
4.0,8.0,1.0,5.0,0,0,0,0,0,4,4,4,1,0,1,0,,,,,,,,,,,,,,,,,,,,,,,,,,,,,,,,,,,['return'],[0.21319000000221422],29.86586260000331,None,,,,,,,,,,,,,,,,,,,,,,,,,,,,,,,,,,,1,001,2021_Oct_15_1315,eeg_contingent_digits,2021.2.3,59.989010012613235,
4.0,8.0,1.0,5.0,0,0,0,0,0,4,4,4,2,0,2,0,,,,,,,,,,,,,,,,,,,,,,,,,,,,,,,,,,,['return'],[0.1325496999997995],30.115893300004245,None,,,,,,,,,,,,,,,,,,,,,,,,,,,,,,,,,,,1,001,2021_Oct_15_1315,eeg_contingent_digits,2021.2.3,59.989010012613235,
4.0,8.0,1.0,5.0,0,0,0,0,0,4,4,4,,,,,,,,,,,,,,,,,,,,,,,,,,,,,,,,,,,,,,,,,,,,,,,,,,,,,,,,,,,,,,,,,,,,,,,,,,,,,1,001,2021_Oct_15_1315,eeg_contingent_digits,2021.2.3,59.989010012613235,
5.0,4.0,1.0,0.0,0,0,0,0,0,5,5,5,0,0,0,0,,,,,,,,,,,,,,,,,,,,,,,,,,,,,0.010440589998324867,None,0.4871173900028225,None,0.970591390003392,None,None,,31.729377190004744,None,,,,,,,,,,,,,,,,,,,,,,,,,,,,,,,,,,,1,001,2021_Oct_15_1315,eeg_contingent_digits,2021.2.3,59.989010012613235,
5.0,4.0,1.0,0.0,0,0,0,0,0,5,5,5,1,0,1,0,,,,,,,,,,,,,,,,,,,,,,,,,,,,,,,,,,,['return'],[0.16337610000482528],31.729657800002315,None,,,,,,,,,,,,,,,,,,,,,,,,,,,,,,,,,,,1,001,2021_Oct_15_1315,eeg_contingent_digits,2021.2.3,59.989010012613235,
5.0,4.0,1.0,0.0,0,0,0,0,0,5,5,5,2,0,2,0,,,,,,,,,,,,,,,,,,,,,,,,,,,,,,,,,,,['return'],[0.1783584000004339],31.913052299998526,None,,,,,,,,,,,,,,,,,,,,,,,,,,,,,,,,,,,1,001,2021_Oct_15_1315,eeg_contingent_digits,2021.2.3,59.989010012613235,
5.0,4.0,1.0,0.0,0,0,0,0,0,5,5,5,,,,,,,,,,,,,,,,,,,,,,,,,,,,,,,,,,,,,,,,,,,,,,,,,,,,,,,,,,,,,,,,,,,,,,,,,,,,,1,001,2021_Oct_15_1315,eeg_contingent_digits,2021.2.3,59.989010012613235,
6.0,9.0,2.0,6.0,0,0,0,0,0,6,6,6,0,0,0,0,,,,,,,,,,,,,,,,,,,,,,,,,,,,,0.010779690011986531,None,0.4880018900075811,None,0.9712633900126093,None,None,,33.56268969000375,None,,,,,,,,,,,,,,,,,,,,,,,,,,,,,,,,,,,1,001,2021_Oct_15_1315,eeg_contingent_digits,2021.2.3,59.989010012613235,
6.0,9.0,2.0,6.0,0,0,0,0,0,6,6,6,1,0,1,0,,,,,,,,,,,,,,,,,,,,,,,,,,,,,,,,,,,['return'],[0.2878151000040816],33.56291749999946,None,,,,,,,,,,,,,,,,,,,,,,,,,,,,,,,,,,,1,001,2021_Oct_15_1315,eeg_contingent_digits,2021.2.3,59.989010012613235,
6.0,9.0,2.0,6.0,0,0,0,0,0,6,6,6,2,0,2,0,,,,,,,,,,,,,,,,,,,,,,,,,,,,,,,,,,,['return'],[0.1490579999954207],33.87937519999832,None,,,,,,,,,,,,,,,,,,,,,,,,,,,,,,,,,,,1,001,2021_Oct_15_1315,eeg_contingent_digits,2021.2.3,59.989010012613235,
6.0,9.0,2.0,6.0,0,0,0,0,0,6,6,6,,,,,,,,,,,,,,,,,,,,,,,,,,,,,,,,,,,,,,,,,,,,,,,,,,,,,,,,,,,,,,,,,,,,,,,,,,,,,1,001,2021_Oct_15_1315,eeg_contingent_digits,2021.2.3,59.989010012613235,
7.0,2.0,3.0,0.0,0,0,0,0,0,7,7,7,0,0,0,0,,,,,,,,,,,,,,,,,,,,,,,,,,,,,0.0004964900072081946,None,0.48815319001005264,None,0.9509510900097666,None,None,,35.49590309000341,None,,,,,,,,,,,,,,,,,,,,,,,,,,,,,,,,,,,1,001,2021_Oct_15_1315,eeg_contingent_digits,2021.2.3,59.989010012613235,
7.0,2.0,3.0,0.0,0,0,0,0,0,7,7,7,1,0,1,0,,,,,,,,,,,,,,,,,,,,,,,,,,,,,,,,,,,['return'],[0.37428039999940665],35.49990539999999,None,,,,,,,,,,,,,,,,,,,,,,,,,,,,,,,,,,,1,001,2021_Oct_15_1315,eeg_contingent_digits,2021.2.3,59.989010012613235,
7.0,2.0,3.0,0.0,0,0,0,0,0,7,7,7,2,0,2,0,,,,,,,,,,,,,,,,,,,,,,,,,,,,,,,,,,,['return'],[0.14754769999854034],35.89597830000275,None,,,,,,,,,,,,,,,,,,,,,,,,,,,,,,,,,,,1,001,2021_Oct_15_1315,eeg_contingent_digits,2021.2.3,59.989010012613235,
7.0,2.0,3.0,0.0,0,0,0,0,0,7,7,7,,,,,,,,,,,,,,,,,,,,,,,,,,,,,,,,,,,,,,,,,,,,,,,,,,,,,,,,,,,,,,,,,,,,,,,,,,,,,1,001,2021_Oct_15_1315,eeg_contingent_digits,2021.2.3,59.989010012613235,
8.0,1.0,9.0,2.0,0,0,0,0,0,8,8,8,0,0,0,0,,,,,,,,,,,,,,,,,,,,,,,,,,,,,0.01060129000688903,None,0.48735779000708135,None,0.9706417900088127,None,['return'],[0.4043362000011257],37.50304210000468,None,,,,,,,,,,,,,,,,,,,,,,,,,,,,,,,,,,,1,001,2021_Oct_15_1315,eeg_contingent_digits,2021.2.3,59.989010012613235,
8.0,1.0,9.0,2.0,0,0,0,0,0,8,8,8,1,0,1,0,,,,,,,,,,,,,,,,,,,,,,,,,,,,,,,,,,,['return'],[0.15422699999908218],37.92918610000197,None,,,,,,,,,,,,,,,,,,,,,,,,,,,,,,,,,,,1,001,2021_Oct_15_1315,eeg_contingent_digits,2021.2.3,59.989010012613235,
8.0,1.0,9.0,2.0,0,0,0,0,0,8,8,8,2,0,2,0,,,,,,,,,,,,,,,,,,,,,,,,,,,,,,,,,,,['return'],[0.6472764999998617],38.11261260000174,None,,,,,,,,,,,,,,,,,,,,,,,,,,,,,,,,,,,1,001,2021_Oct_15_1315,eeg_contingent_digits,2021.2.3,59.989010012613235,
8.0,1.0,9.0,2.0,0,0,0,0,0,8,8,8,,,,,,,,,,,,,,,,,,,,,,,,,,,,,,,,,,,,,,,,,,,,,,,,,,,,,,,,,,,,,,,,,,,,,,,,,,,,,1,001,2021_Oct_15_1315,eeg_contingent_digits,2021.2.3,59.989010012613235,
9.0,8.0,1.0,0.0,0,0,0,0,0,9,9,9,0,0,0,0,,,,,,,,,,,,,,,,,,,,,,,,,,,,,0.010729789995821193,None,0.4879320899999584,None,0.971137689994066,None,['return'],[0.39541259999532485],40.21902720000071,None,,,,,,,,,,,,,,,,,,,,,,,,,,,,,,,,,,,1,001,2021_Oct_15_1315,eeg_contingent_digits,2021.2.3,59.989010012613235,
9.0,8.0,1.0,0.0,0,0,0,0,0,9,9,9,1,0,1,0,,,,,,,,,,,,,,,,,,,,,,,,,,,,,,,,,,,['return'],[0.1447595999998157],40.64581370000087,None,,,,,,,,,,,,,,,,,,,,,,,,,,,,,,,,,,,1,001,2021_Oct_15_1315,eeg_contingent_digits,2021.2.3,59.989010012613235,
9.0,8.0,1.0,0.0,0,0,0,0,0,9,9,9,2,0,2,0,,,,,,,,,,,,,,,,,,,,,,,,,,,,,,,,,,,['return'],[0.1142593000040506],40.81225160000031,None,,,,,,,,,,,,,,,,,,,,,,,,,,,,,,,,,,,1,001,2021_Oct_15_1315,eeg_contingent_digits,2021.2.3,59.989010012613235,
9.0,8.0,1.0,0.0,0,0,0,0,0,9,9,9,,,,,,,,,,,,,,,,,,,,,,,,,,,,,,,,,,,,,,,,,,,,,,,,,,,,,,,,,,,,,,,,,,,,,,,,,,,,,1,001,2021_Oct_15_1315,eeg_contingent_digits,2021.2.3,59.989010012613235,
,,,,0,0,0,0,,,,,,,,,,,,,,,,,,,,,,,,,,,,,,,,,,,,,,,,,,,,,,,40.94580710000446,None,,,,,,,,,,,,,,,,,,,,,,,,,,,,,,,,,1,001,2021_Oct_15_1315,eeg_contingent_digits,2021.2.3,59.989010012613235,
,,,,,,,,,,,,,,,,0,0,0,0,,,,,,,,,,,,,,,,,,,,,,,,,,,,,,,,,,,,,57.900279400004365,None,,,,,,,,,,,,,,,,,,,,,,,,,,,,,,,1,001,2021_Oct_15_1315,eeg_contingent_digits,2021.2.3,59.989010012613235,
0.0,2.0,0.0,4.0,,,,,,,,,,,,,,,,,0,0,0,0,0,0,0,0,0,0,0,0,,,,,,,,,,,,,,,,,,,,,,,,,,,67.91221020000376,None,69.90658010000334,None,0.0017639899961068295,None,0.4909498899942264,None,0.9742533899989212,None,['return'],[1.1459217999945395],73.36244380000426,None,,,,,,,,,,,,,,,,,1,001,2021_Oct_15_1315,eeg_contingent_digits,2021.2.3,59.989010012613235,
0.0,2.0,0.0,4.0,,,,,,,,,,,,,,,,,0,0,0,0,0,0,0,0,1,0,1,0,,,,,,,,,,,,,,,,,,,,,,,,,,,,,,,,,,,,,['return'],[0.4649580000041169],74.52643410000019,None,,,,,,,,,,,,,,,,,1,001,2021_Oct_15_1315,eeg_contingent_digits,2021.2.3,59.989010012613235,
0.0,2.0,0.0,4.0,,,,,,,,,,,,,,,,,0,0,0,0,0,0,0,0,2,0,2,0,,,,,,,,,,,,,,,,,,,,,,,,,,,,,,,,,,,,,['return'],[0.40362280000408646],75.0097173000031,None,,,,,,,,,,,,,,,,,1,001,2021_Oct_15_1315,eeg_contingent_digits,2021.2.3,59.989010012613235,
0.0,2.0,0.0,4.0,,,,,,,,,,,,,,,,,0,0,0,0,0,0,0,0,,,,,,,,,,,,,,,,,,,,,,,,,,,,,,,,,,,,,,,,,,,,,None,None,,,,,,,,,,,,,,,1,001,2021_Oct_15_1315,eeg_contingent_digits,2021.2.3,59.989010012613235,
1.0,5.0,1.0,0.0,,,,,,,,,,,,,,,,,0,0,0,0,0,1,1,1,0,0,0,0,,,,,,,,,,,,,,,,,,,,,,,,,,,,,75.44287700000132,None,0.012963190005393699,None,0.49234929000522243,None,0.9785400900073,None,['return'],[2.9743584000025294],78.88204550000228,None,,,,,,,,,,,,,,,,,1,001,2021_Oct_15_1315,eeg_contingent_digits,2021.2.3,59.989010012613235,
1.0,5.0,1.0,0.0,,,,,,,,,,,,,,,,,0,0,0,0,0,1,1,1,1,0,1,0,,,,,,,,,,,,,,,,,,,,,,,,,,,,,,,,,,,,,['return'],[0.4436141999976826],81.87586250000459,None,,,,,,,,,,,,,,,,,1,001,2021_Oct_15_1315,eeg_contingent_digits,2021.2.3,59.989010012613235,
1.0,5.0,1.0,0.0,,,,,,,,,,,,,,,,,0,0,0,0,0,1,1,1,2,0,2,0,,,,,,,,,,,,,,,,,,,,,,,,,,,,,,,,,,,,,['return'],[0.3779198999982327],82.34247110000433,None,,,,,,,,,,,,,,,,,1,001,2021_Oct_15_1315,eeg_contingent_digits,2021.2.3,59.989010012613235,
1.0,5.0,1.0,0.0,,,,,,,,,,,,,,,,,0,0,0,0,0,1,1,1,,,,,,,,,,,,,,,,,,,,,,,,,,,,,,,,,,,,,,,,,,,,,None,None,,,,,,,,,,,,,,,1,001,2021_Oct_15_1315,eeg_contingent_digits,2021.2.3,59.989010012613235,
2.0,5.0,0.0,4.0,,,,,,,,,,,,,,,,,0,0,0,0,0,2,2,2,0,0,0,0,,,,,,,,,,,,,,,,,,,,,,,,,,,,,82.74896560000343,None,0.01317089000804117,None,0.4761226900081965,None,0.9595442900099442,None,['return'],[0.5057729000036488],86.1755078999995,None,,,,,,,,,,,,,,,,,1,001,2021_Oct_15_1315,eeg_contingent_digits,2021.2.3,59.989010012613235,
2.0,5.0,0.0,4.0,,,,,,,,,,,,,,,,,0,0,0,0,0,2,2,2,1,0,1,0,,,,,,,,,,,,,,,,,,,,,,,,,,,,,,,,,,,,,['return'],[0.25075310000102036],86.70868560000235,None,,,,,,,,,,,,,,,,,1,001,2021_Oct_15_1315,eeg_contingent_digits,2021.2.3,59.989010012613235,
2.0,5.0,0.0,4.0,,,,,,,,,,,,,,,,,0,0,0,0,0,2,2,2,2,0,2,0,,,,,,,,,,,,,,,,,,,,,,,,,,,,,,,,,,,,,['return'],[0.3154987000016263],86.99993330000143,None,,,,,,,,,,,,,,,,,1,001,2021_Oct_15_1315,eeg_contingent_digits,2021.2.3,59.989010012613235,
2.0,5.0,0.0,4.0,,,,,,,,,,,,,,,,,0,0,0,0,0,2,2,2,,,,,,,,,,,,,,,,,,,,,,,,,,,,,,,,,,,,,,,,,,,,,None,None,,,,,,,,,,,,,,,1,001,2021_Oct_15_1315,eeg_contingent_digits,2021.2.3,59.989010012613235,
3.0,4.0,5.0,8.0,,,,,,,,,,,,,,,,,0,0,0,0,0,3,3,3,0,0,0,0,,,,,,,,,,,,,,,,,,,,,,,,,,,,,87.34193970000342,None,0.013721690003876574,None,0.47710209000797477,None,0.9605958900065161,None,['return'],[0.6487907999980962],90.77955569999904,None,,,,,,,,,,,,,,,,,1,001,2021_Oct_15_1315,eeg_contingent_digits,2021.2.3,59.989010012613235,
3.0,4.0,5.0,8.0,,,,,,,,,,,,,,,,,0,0,0,0,0,3,3,3,1,0,1,0,,,,,,,,,,,,,,,,,,,,,,,,,,,,,,,,,,,,,['return'],[0.21094539999467088],91.4584509999986,None,,,,,,,,,,,,,,,,,1,001,2021_Oct_15_1315,eeg_contingent_digits,2021.2.3,59.989010012613235,
3.0,4.0,5.0,8.0,,,,,,,,,,,,,,,,,0,0,0,0,0,3,3,3,2,0,2,0,,,,,,,,,,,,,,,,,,,,,,,,,,,,,,,,,,,,,['return'],[0.2196786999993492],91.69167300000117,None,,,,,,,,,,,,,,,,,1,001,2021_Oct_15_1315,eeg_contingent_digits,2021.2.3,59.989010012613235,
3.0,4.0,5.0,8.0,,,,,,,,,,,,,,,,,0,0,0,0,0,3,3,3,,,,,,,,,,,,,,,,,,,,,,,,,,,,,,,,,,,,,,,,,,,,,None,None,,,,,,,,,,,,,,,1,001,2021_Oct_15_1315,eeg_contingent_digits,2021.2.3,59.989010012613235,
4.0,1.0,3.0,4.0,,,,,,,,,,,,,,,,,0,0,0,0,0,4,4,4,0,0,0,0,,,,,,,,,,,,,,,,,,,,,,,,,,,,,91.94145310000022,None,0.015521979999903124,None,0.48118388000148116,None,0.9643450799994753,None,None,,95.39117299000354,None,,,,,,,,,,,,,,,,,1,001,2021_Oct_15_1315,eeg_contingent_digits,2021.2.3,59.989010012613235,
4.0,1.0,3.0,4.0,,,,,,,,,,,,,,,,,0,0,0,0,0,4,4,4,1,0,1,0,,,,,,,,,,,,,,,,,,,,,,,,,,,,,,,,,,,,,['return'],[0.6795771999968565],95.39175249999971,None,,,,,,,,,,,,,,,,,1,001,2021_Oct_15_1315,eeg_contingent_digits,2021.2.3,59.989010012613235,
4.0,1.0,3.0,4.0,,,,,,,,,,,,,,,,,0,0,0,0,0,4,4,4,2,0,2,0,,,,,,,,,,,,,,,,,,,,,,,,,,,,,,,,,,,,,['return'],[0.2070672999980161],96.09132930000487,None,,,,,,,,,,,,,,,,,1,001,2021_Oct_15_1315,eeg_contingent_digits,2021.2.3,59.989010012613235,
4.0,1.0,3.0,4.0,,,,,,,,,,,,,,,,,0,0,0,0,0,4,4,4,,,,,,,,,,,,,,,,,,,,,,,,,,,,,,,,,,,,,,,,,,,,,None,None,,,,,,,,,,,,,,,1,001,2021_Oct_15_1315,eeg_contingent_digits,2021.2.3,59.989010012613235,
5.0,9.0,5.0,0.0,,,,,,,,,,,,,,,,,0,0,0,0,0,5,5,5,0,0,0,0,,,,,,,,,,,,,,,,,,,,,,,,,,,,,96.32456050000474,None,0.003039190014533233,None,0.47237999000935815,None,0.9392381900106557,None,None,,99.774180779999,None,,,,,,,,,,,,,,,,,1,001,2021_Oct_15_1315,eeg_contingent_digits,2021.2.3,59.989010012613235,
5.0,9.0,5.0,0.0,,,,,,,,,,,,,,,,,0,0,0,0,0,5,5,5,1,0,1,0,,,,,,,,,,,,,,,,,,,,,,,,,,,,,,,,,,,,,['return'],[0.5561476000002585],99.76697129999957,None,,,,,,,,,,,,,,,,,1,001,2021_Oct_15_1315,eeg_contingent_digits,2021.2.3,59.989010012613235,
5.0,9.0,5.0,0.0,,,,,,,,,,,,,,,,,0,0,0,0,0,5,5,5,2,0,2,0,,,,,,,,,,,,,,,,,,,,,,,,,,,,,,,,,,,,,['return'],[0.20050410000112606],100.34109919999901,None,,,,,,,,,,,,,,,,,1,001,2021_Oct_15_1315,eeg_contingent_digits,2021.2.3,59.989010012613235,
5.0,9.0,5.0,0.0,,,,,,,,,,,,,,,,,0,0,0,0,0,5,5,5,,,,,,,,,,,,,,,,,,,,,,,,,,,,,,,,,,,,,,,,,,,,,100.62139110000135,None,,,,,,,,,,,,,,,1,001,2021_Oct_15_1315,eeg_contingent_digits,2021.2.3,59.989010012613235,
6.0,6.0,4.0,2.0,,,,,,,,,,,,,,,,,0,0,0,0,0,6,6,6,0,0,0,0,,,,,,,,,,,,,,,,,,,,,,,,,,,,,100.75744210000266,None,0.01287859000149183,None,0.49561399000231177,None,0.9756062900050892,None,None,,104.19034389000153,None,,,,,,,,,,,,,,,,,1,001,2021_Oct_15_1315,eeg_contingent_digits,2021.2.3,59.989010012613235,
6.0,6.0,4.0,2.0,,,,,,,,,,,,,,,,,0,0,0,0,0,6,6,6,1,0,1,0,,,,,,,,,,,,,,,,,,,,,,,,,,,,,,,,,,,,,['return'],[0.23161399999662535],104.19488500000443,None,,,,,,,,,,,,,,,,,1,001,2021_Oct_15_1315,eeg_contingent_digits,2021.2.3,59.989010012613235,
6.0,6.0,4.0,2.0,,,,,,,,,,,,,,,,,0,0,0,0,0,6,6,6,2,0,2,0,,,,,,,,,,,,,,,,,,,,,,,,,,,,,,,,,,,,,['return'],[0.15482630000042263],104.45745090000128,None,,,,,,,,,,,,,,,,,1,001,2021_Oct_15_1315,eeg_contingent_digits,2021.2.3,59.989010012613235,
6.0,6.0,4.0,2.0,,,,,,,,,,,,,,,,,0,0,0,0,0,6,6,6,,,,,,,,,,,,,,,,,,,,,,,,,,,,,,,,,,,,,,,,,,,,,None,None,,,,,,,,,,,,,,,1,001,2021_Oct_15_1315,eeg_contingent_digits,2021.2.3,59.989010012613235,
7.0,3.0,5.0,0.0,,,,,,,,,,,,,,,,,0,0,0,0,0,7,7,7,0,0,0,0,,,,,,,,,,,,,,,,,,,,,,,,,,,,,104.6405825000038,None,0.013089290005154908,None,0.49271209000289673,None,0.9760913900026935,None,None,,108.07345789000537,None,,,,,,,,,,,,,,,,,1,001,2021_Oct_15_1315,eeg_contingent_digits,2021.2.3,59.989010012613235,
7.0,3.0,5.0,0.0,,,,,,,,,,,,,,,,,0,0,0,0,0,7,7,7,1,0,1,0,,,,,,,,,,,,,,,,,,,,,,,,,,,,,,,,,,,,,['return'],[0.318403400000534],108.08175470000424,None,,,,,,,,,,,,,,,,,1,001,2021_Oct_15_1315,eeg_contingent_digits,2021.2.3,59.989010012613235,
7.0,3.0,5.0,0.0,,,,,,,,,,,,,,,,,0,0,0,0,0,7,7,7,2,0,2,0,,,,,,,,,,,,,,,,,,,,,,,,,,,,,,,,,,,,,['return'],[0.15364759999647504],108.42379780000192,None,,,,,,,,,,,,,,,,,1,001,2021_Oct_15_1315,eeg_contingent_digits,2021.2.3,59.989010012613235,
7.0,3.0,5.0,0.0,,,,,,,,,,,,,,,,,0,0,0,0,0,7,7,7,,,,,,,,,,,,,,,,,,,,,,,,,,,,,,,,,,,,,,,,,,,,,None,None,,,,,,,,,,,,,,,1,001,2021_Oct_15_1315,eeg_contingent_digits,2021.2.3,59.989010012613235,
8.0,4.0,8.0,6.0,,,,,,,,,,,,,,,,,0,0,0,0,0,8,8,8,0,0,0,0,,,,,,,,,,,,,,,,,,,,,,,,,,,,,108.60683550000249,None,0.0130593900103122,None,0.4759775900092791,None,0.9594421900110319,None,None,,112.03984448000264,None,,,,,,,,,,,,,,,,,1,001,2021_Oct_15_1315,eeg_contingent_digits,2021.2.3,59.989010012613235,
8.0,4.0,8.0,6.0,,,,,,,,,,,,,,,,,0,0,0,0,0,8,8,8,1,0,1,0,,,,,,,,,,,,,,,,,,,,,,,,,,,,,,,,,,,,,['return'],[0.7463187999965157],112.03201629999967,None,,,,,,,,,,,,,,,,,1,001,2021_Oct_15_1315,eeg_contingent_digits,2021.2.3,59.989010012613235,
8.0,4.0,8.0,6.0,,,,,,,,,,,,,,,,,0,0,0,0,0,8,8,8,2,0,2,0,,,,,,,,,,,,,,,,,,,,,,,,,,,,,,,,,,,,,['return'],[0.17373609999776818],112.80679220000457,None,,,,,,,,,,,,,,,,,1,001,2021_Oct_15_1315,eeg_contingent_digits,2021.2.3,59.989010012613235,
8.0,4.0,8.0,6.0,,,,,,,,,,,,,,,,,0,0,0,0,0,8,8,8,,,,,,,,,,,,,,,,,,,,,,,,,,,,,,,,,,,,,,,,,,,,,None,None,,,,,,,,,,,,,,,1,001,2021_Oct_15_1315,eeg_contingent_digits,2021.2.3,59.989010012613235,
9.0,8.0,0.0,6.0,,,,,,,,,,,,,,,,,0,0,0,0,0,9,9,9,0,0,0,0,,,,,,,,,,,,,,,,,,,,,,,,,,,,,113.00676490000478,None,0.009860879996267613,None,0.4695979800017085,None,0.9528110800019931,None,None,,116.45627969000343,None,,,,,,,,,,,,,,,,,1,001,2021_Oct_15_1315,eeg_contingent_digits,2021.2.3,59.989010012613235,
9.0,8.0,0.0,6.0,,,,,,,,,,,,,,,,,0,0,0,0,0,9,9,9,1,0,1,0,,,,,,,,,,,,,,,,,,,,,,,,,,,,,,,,,,,,,['return'],[0.5108849999960512],116.4614161999998,None,,,,,,,,,,,,,,,,,1,001,2021_Oct_15_1315,eeg_contingent_digits,2021.2.3,59.989010012613235,
9.0,8.0,0.0,6.0,,,,,,,,,,,,,,,,,0,0,0,0,0,9,9,9,2,0,2,0,,,,,,,,,,,,,,,,,,,,,,,,,,,,,,,,,,,,,['return'],[0.16924229999858653],117.00913940000464,None,,,,,,,,,,,,,,,,,1,001,2021_Oct_15_1315,eeg_contingent_digits,2021.2.3,59.989010012613235,
9.0,8.0,0.0,6.0,,,,,,,,,,,,,,,,,0,0,0,0,0,9,9,9,,,,,,,,,,,,,,,,,,,,,,,,,,,,,,,,,,,,,,,,,,,,,None,None,,,,,,,,,,,,,,,1,001,2021_Oct_15_1315,eeg_contingent_digits,2021.2.3,59.989010012613235,
10.0,4.0,2.0,0.0,,,,,,,,,,,,,,,,,0,0,0,0,0,10,10,10,0,0,0,0,,,,,,,,,,,,,,,,,,,,,,,,,,,,,117.21257270000206,None,0.01337017999321688,None,0.47636587999295443,None,0.95980287999555,None,None,,120.65589148999861,None,,,,,,,,,,,,,,,,,1,001,2021_Oct_15_1315,eeg_contingent_digits,2021.2.3,59.989010012613235,
10.0,4.0,2.0,0.0,,,,,,,,,,,,,,,,,0,0,0,0,0,10,10,10,1,0,1,0,,,,,,,,,,,,,,,,,,,,,,,,,,,,,,,,,,,,,['return'],[0.34666370000195457],120.65607060000184,None,,,,,,,,,,,,,,,,,1,001,2021_Oct_15_1315,eeg_contingent_digits,2021.2.3,59.989010012613235,
10.0,4.0,2.0,0.0,,,,,,,,,,,,,,,,,0,0,0,0,0,10,10,10,2,0,2,0,,,,,,,,,,,,,,,,,,,,,,,,,,,,,,,,,,,,,['return'],[0.16191770000295946],121.02259269999922,None,,,,,,,,,,,,,,,,,1,001,2021_Oct_15_1315,eeg_contingent_digits,2021.2.3,59.989010012613235,
10.0,4.0,2.0,0.0,,,,,,,,,,,,,,,,,0,0,0,0,0,10,10,10,,,,,,,,,,,,,,,,,,,,,,,,,,,,,,,,,,,,,,,,,,,,,None,None,,,,,,,,,,,,,,,1,001,2021_Oct_15_1315,eeg_contingent_digits,2021.2.3,59.989010012613235,
11.0,4.0,0.0,9.0,,,,,,,,,,,,,,,,,0,0,0,0,0,11,11,11,0,0,0,0,,,,,,,,,,,,,,,,,,,,,,,,,,,,,121.20596890000161,None,0.0029122900014044717,None,0.4724337900042883,None,0.9559736900046119,None,None,,124.65564829000213,None,,,,,,,,,,,,,,,,,1,001,2021_Oct_15_1315,eeg_contingent_digits,2021.2.3,59.989010012613235,
11.0,4.0,0.0,9.0,,,,,,,,,,,,,,,,,0,0,0,0,0,11,11,11,1,0,1,0,,,,,,,,,,,,,,,,,,,,,,,,,,,,,,,,,,,,,['return'],[0.43071300000156043],124.65605950000463,None,,,,,,,,,,,,,,,,,1,001,2021_Oct_15_1315,eeg_contingent_digits,2021.2.3,59.989010012613235,
11.0,4.0,0.0,9.0,,,,,,,,,,,,,,,,,0,0,0,0,0,11,11,11,2,0,2,0,,,,,,,,,,,,,,,,,,,,,,,,,,,,,,,,,,,,,['return'],[0.22352310000133002],125.1058325999984,None,,,,,,,,,,,,,,,,,1,001,2021_Oct_15_1315,eeg_contingent_digits,2021.2.3,59.989010012613235,
11.0,4.0,0.0,9.0,,,,,,,,,,,,,,,,,0,0,0,0,0,11,11,11,,,,,,,,,,,,,,,,,,,,,,,,,,,,,,,,,,,,,,,,,,,,,125.38175630000478,None,,,,,,,,,,,,,,,1,001,2021_Oct_15_1315,eeg_contingent_digits,2021.2.3,59.989010012613235,
,,,,,,,,,,,,,,,,,,,,0,0,0,0,,,,,,,,,,,,,,,,,,,,,,,,,,,,,,,,,,,,,,,,,,,,,,,,,,,,,,,,,,,,,,,,,1,001,2021_Oct_15_1315,eeg_contingent_digits,2021.2.3,59.989010012613235,
0.0,0.0,5.0,3.0,,,,,,,,,,,,,,,,,,,,,,,,,,,,,0,0,0,0,0,0,0,0,0,0,0,0,,,,,,,,,,,,,,,,,,,,,,,,,,,,,,,125.56027950000134,None,0.016161880004801787,None,0.48223258000507485,None,0.9656283800068195,None,None,129.03845978000174,None,,,,1,001,2021_Oct_15_1315,eeg_contingent_digits,2021.2.3,59.989010012613235,
0.0,0.0,5.0,3.0,,,,,,,,,,,,,,,,,,,,,,,,,,,,,0,0,0,0,0,0,0,0,1,0,1,0,,,,,,,,,,,,,,,,,,,,,,,,,,,,,,,,,,,,,,,['return'],129.03717920000054,None,[0.46879090000584256],,,1,001,2021_Oct_15_1315,eeg_contingent_digits,2021.2.3,59.989010012613235,
0.0,0.0,5.0,3.0,,,,,,,,,,,,,,,,,,,,,,,,,,,,,0,0,0,0,0,0,0,0,2,0,2,0,,,,,,,,,,,,,,,,,,,,,,,,,,,,,,,,,,,,,,,['return'],129.5393566999992,None,[0.16507450000062818],,,1,001,2021_Oct_15_1315,eeg_contingent_digits,2021.2.3,59.989010012613235,
0.0,0.0,5.0,3.0,,,,,,,,,,,,,,,,,,,,,,,,,,,,,0,0,0,0,0,0,0,0,,,,,,,,,,,,,,,,,,,,,,,,,,,,,,,,,,,,,,,,,,,,,,,None,None,1,001,2021_Oct_15_1315,eeg_contingent_digits,2021.2.3,59.989010012613235,
1.0,1.0,6.0,8.0,,,,,,,,,,,,,,,,,,,,,,,,,,,,,0,0,0,0,0,1,1,1,0,0,0,0,,,,,,,,,,,,,,,,,,,,,,,,,,,,,,,129.72166980000475,None,0.012723489999189042,None,0.4752919899983681,None,0.9587818900035927,None,None,133.18831428000124,None,,,,1,001,2021_Oct_15_1315,eeg_contingent_digits,2021.2.3,59.989010012613235,
1.0,1.0,6.0,8.0,,,,,,,,,,,,,,,,,,,,,,,,,,,,,0,0,0,0,0,1,1,1,1,0,1,0,,,,,,,,,,,,,,,,,,,,,,,,,,,,,,,,,,,,,,,['return'],133.18050410000433,None,[0.4046872000035364],,,1,001,2021_Oct_15_1315,eeg_contingent_digits,2021.2.3,59.989010012613235,
1.0,1.0,6.0,8.0,,,,,,,,,,,,,,,,,,,,,,,,,,,,,0,0,0,0,0,1,1,1,2,0,2,0,,,,,,,,,,,,,,,,,,,,,,,,,,,,,,,,,,,,,,,['return'],133.60518250000314,None,[0.16617460000270512],,,1,001,2021_Oct_15_1315,eeg_contingent_digits,2021.2.3,59.989010012613235,
1.0,1.0,6.0,8.0,,,,,,,,,,,,,,,,,,,,,,,,,,,,,0,0,0,0,0,1,1,1,,,,,,,,,,,,,,,,,,,,,,,,,,,,,,,,,,,,,,,,,,,,,,,None,None,1,001,2021_Oct_15_1315,eeg_contingent_digits,2021.2.3,59.989010012613235,
2.0,1.0,4.0,2.0,,,,,,,,,,,,,,,,,,,,,,,,,,,,,0,0,0,0,0,2,2,2,0,0,0,0,,,,,,,,,,,,,,,,,,,,,,,,,,,,,,,133.7882615999988,None,0.013029490008193534,None,0.4927700900079799,None,0.9592693900049198,None,None,137.2546229800006,None,,,,1,001,2021_Oct_15_1315,eeg_contingent_digits,2021.2.3,59.989010012613235,
2.0,1.0,4.0,2.0,,,,,,,,,,,,,,,,,,,,,,,,,,,,,0,0,0,0,0,2,2,2,1,0,1,0,,,,,,,,,,,,,,,,,,,,,,,,,,,,,,,,,,,,,,,['return'],137.24641020000126,None,[0.2546191000001272],,,1,001,2021_Oct_15_1315,eeg_contingent_digits,2021.2.3,59.989010012613235,
2.0,1.0,4.0,2.0,,,,,,,,,,,,,,,,,,,,,,,,,,,,,0,0,0,0,0,2,2,2,2,0,2,0,,,,,,,,,,,,,,,,,,,,,,,,,,,,,,,,,,,,,,,['return'],137.52154449999944,None,[0.17371289999573492],,,1,001,2021_Oct_15_1315,eeg_contingent_digits,2021.2.3,59.989010012613235,
2.0,1.0,4.0,2.0,,,,,,,,,,,,,,,,,,,,,,,,,,,,,0,0,0,0,0,2,2,2,,,,,,,,,,,,,,,,,,,,,,,,,,,,,,,,,,,,,,,,,,,,,,,None,None,1,001,2021_Oct_15_1315,eeg_contingent_digits,2021.2.3,59.989010012613235,
3.0,2.0,1.0,3.0,,,,,,,,,,,,,,,,,,,,,,,,,,,,,0,0,0,0,0,3,3,3,0,0,0,0,,,,,,,,,,,,,,,,,,,,,,,,,,,,,,,137.72132910000073,None,0.013084690006508026,None,0.4760593900064123,None,0.9594440900036716,None,None,141.17086559000455,None,,,,1,001,2021_Oct_15_1315,eeg_contingent_digits,2021.2.3,59.989010012613235,
3.0,2.0,1.0,3.0,,,,,,,,,,,,,,,,,,,,,,,,,,,,,0,0,0,0,0,3,3,3,1,0,1,0,,,,,,,,,,,,,,,,,,,,,,,,,,,,,,,,,,,,,,,['return'],141.17118740000296,None,[0.4827032999965013],,,1,001,2021_Oct_15_1315,eeg_contingent_digits,2021.2.3,59.989010012613235,
3.0,2.0,1.0,3.0,,,,,,,,,,,,,,,,,,,,,,,,,,,,,0,0,0,0,0,3,3,3,2,0,2,0,,,,,,,,,,,,,,,,,,,,,,,,,,,,,,,,,,,,,,,['return'],141.68987860000198,None,[0.15047469999990426],,,1,001,2021_Oct_15_1315,eeg_contingent_digits,2021.2.3,59.989010012613235,
3.0,2.0,1.0,3.0,,,,,,,,,,,,,,,,,,,,,,,,,,,,,0,0,0,0,0,3,3,3,,,,,,,,,,,,,,,,,,,,,,,,,,,,,,,,,,,,,,,,,,,,,,,None,None,1,001,2021_Oct_15_1315,eeg_contingent_digits,2021.2.3,59.989010012613235,
4.0,1.0,3.0,5.0,,,,,,,,,,,,,,,,,,,,,,,,,,,,,0,0,0,0,0,4,4,4,0,0,0,0,,,,,,,,,,,,,,,,,,,,,,,,,,,,,,,141.87097039999935,None,9.769000462256372e-05,None,0.4835648900043452,None,0.9498950900087948,None,None,145.35398847999897,None,,,,1,001,2021_Oct_15_1315,eeg_contingent_digits,2021.2.3,59.989010012613235,
4.0,1.0,3.0,5.0,,,,,,,,,,,,,,,,,,,,,,,,,,,,,0,0,0,0,0,4,4,4,1,0,1,0,,,,,,,,,,,,,,,,,,,,,,,,,,,,,,,,,,,,,,,['return'],145.34738550000475,None,[0.4518363000024692],,,1,001,2021_Oct_15_1315,eeg_contingent_digits,2021.2.3,59.989010012613235,
4.0,1.0,3.0,5.0,,,,,,,,,,,,,,,,,,,,,,,,,,,,,0,0,0,0,0,4,4,4,2,0,2,0,,,,,,,,,,,,,,,,,,,,,,,,,,,,,,,,,,,,,,,['return'],145.8208644000042,None,[0.19245380000211298],,,1,001,2021_Oct_15_1315,eeg_contingent_digits,2021.2.3,59.989010012613235,
4.0,1.0,3.0,5.0,,,,,,,,,,,,,,,,,,,,,,,,,,,,,0,0,0,0,0,4,4,4,,,,,,,,,,,,,,,,,,,,,,,,,,,,,,,,,,,,,,,,,,,,,,,None,None,1,001,2021_Oct_15_1315,eeg_contingent_digits,2021.2.3,59.989010012613235,
5.0,6.0,2.0,5.0,,,,,,,,,,,,,,,,,,,,,,,,,,,,,0,0,0,0,0,5,5,5,0,0,0,0,,,,,,,,,,,,,,,,,,,,,,,,,,,,,,,146.04326949999813,None,0.0145094799954677,None,0.49847507999947993,None,0.9621604799976922,None,None,149.50365939000477,None,,,,1,001,2021_Oct_15_1315,eeg_contingent_digits,2021.2.3,59.989010012613235,
5.0,6.0,2.0,5.0,,,,,,,,,,,,,,,,,,,,,,,,,,,,,0,0,0,0,0,5,5,5,1,0,1,0,,,,,,,,,,,,,,,,,,,,,,,,,,,,,,,,,,,,,,,['return'],149.50396040000487,None,[0.26760600000125123],,,1,001,2021_Oct_15_1315,eeg_contingent_digits,2021.2.3,59.989010012613235,
5.0,6.0,2.0,5.0,,,,,,,,,,,,,,,,,,,,,,,,,,,,,0,0,0,0,0,5,5,5,2,0,2,0,,,,,,,,,,,,,,,,,,,,,,,,,,,,,,,,,,,,,,,['return'],149.80379070000345,None,[0.18254699999670265],,,1,001,2021_Oct_15_1315,eeg_contingent_digits,2021.2.3,59.989010012613235,
5.0,6.0,2.0,5.0,,,,,,,,,,,,,,,,,,,,,,,,,,,,,0,0,0,0,0,5,5,5,,,,,,,,,,,,,,,,,,,,,,,,,,,,,,,,,,,,,,,,,,,,,,,150.03619949999847,None,1,001,2021_Oct_15_1315,eeg_contingent_digits,2021.2.3,59.989010012613235,
6.0,4.0,8.0,3.0,,,,,,,,,,,,,,,,,,,,,,,,,,,,,0,0,0,0,0,6,6,6,0,0,0,0,,,,,,,,,,,,,,,,,,,,,,,,,,,,,,,150.18704360000265,None,0.013714890003029723,None,0.49394979000499006,None,0.9770502900064457,None,['return'],153.6443922000035,None,[0.10608910000155447],,,1,001,2021_Oct_15_1315,eeg_contingent_digits,2021.2.3,59.989010012613235,
6.0,4.0,8.0,3.0,,,,,,,,,,,,,,,,,,,,,,,,,,,,,0,0,0,0,0,6,6,6,1,0,1,0,,,,,,,,,,,,,,,,,,,,,,,,,,,,,,,,,,,,,,,['return'],153.770271100002,None,[0.1612029000025359],,,1,001,2021_Oct_15_1315,eeg_contingent_digits,2021.2.3,59.989010012613235,
6.0,4.0,8.0,3.0,,,,,,,,,,,,,,,,,,,,,,,,,,,,,0,0,0,0,0,6,6,6,2,0,2,0,,,,,,,,,,,,,,,,,,,,,,,,,,,,,,,,,,,,,,,['return'],153.95334639999783,None,[0.2190794999987702],,,1,001,2021_Oct_15_1315,eeg_contingent_digits,2021.2.3,59.989010012613235,
6.0,4.0,8.0,3.0,,,,,,,,,,,,,,,,,,,,,,,,,,,,,0,0,0,0,0,6,6,6,,,,,,,,,,,,,,,,,,,,,,,,,,,,,,,,,,,,,,,,,,,,,,,None,None,1,001,2021_Oct_15_1315,eeg_contingent_digits,2021.2.3,59.989010012613235,
7.0,6.0,8.0,4.0,,,,,,,,,,,,,,,,,,,,,,,,,,,,,0,0,0,0,0,7,7,7,0,0,0,0,,,,,,,,,,,,,,,,,,,,,,,,,,,,,,,154.20343420000427,None,0.013227290008217096,None,0.4964611900068121,None,0.9596376900080941,None,['return'],157.65329130000464,None,[0.18505910000385484],,,1,001,2021_Oct_15_1315,eeg_contingent_digits,2021.2.3,59.989010012613235,
7.0,6.0,8.0,4.0,,,,,,,,,,,,,,,,,,,,,,,,,,,,,0,0,0,0,0,7,7,7,1,0,1,0,,,,,,,,,,,,,,,,,,,,,,,,,,,,,,,,,,,,,,,['return'],157.87563090000185,None,[0.1556787000008626],,,1,001,2021_Oct_15_1315,eeg_contingent_digits,2021.2.3,59.989010012613235,
7.0,6.0,8.0,4.0,,,,,,,,,,,,,,,,,,,,,,,,,,,,,0,0,0,0,0,7,7,7,2,0,2,0,,,,,,,,,,,,,,,,,,,,,,,,,,,,,,,,,,,,,,,['return'],158.0531409000032,None,[0.17817189999914262],,,1,001,2021_Oct_15_1315,eeg_contingent_digits,2021.2.3,59.989010012613235,
7.0,6.0,8.0,4.0,,,,,,,,,,,,,,,,,,,,,,,,,,,,,0,0,0,0,0,7,7,7,,,,,,,,,,,,,,,,,,,,,,,,,,,,,,,,,,,,,,,,,,,,,,,None,None,1,001,2021_Oct_15_1315,eeg_contingent_digits,2021.2.3,59.989010012613235,
8.0,9.0,3.0,6.0,,,,,,,,,,,,,,,,,,,,,,,,,,,,,0,0,0,0,0,8,8,8,0,0,0,0,,,,,,,,,,,,,,,,,,,,,,,,,,,,,,,158.25314459999936,None,0.013530990006984212,None,0.4771615900026518,None,0.9602091900014784,None,['return'],161.7069119000007,None,[0.08048770000459626],,,1,001,2021_Oct_15_1315,eeg_contingent_digits,2021.2.3,59.989010012613235,
8.0,9.0,3.0,6.0,,,,,,,,,,,,,,,,,,,,,,,,,,,,,0,0,0,0,0,8,8,8,1,0,1,0,,,,,,,,,,,,,,,,,,,,,,,,,,,,,,,,,,,,,,,['return'],161.82400249999773,None,[0.15541230000235373],,,1,001,2021_Oct_15_1315,eeg_contingent_digits,2021.2.3,59.989010012613235,
8.0,9.0,3.0,6.0,,,,,,,,,,,,,,,,,,,,,,,,,,,,,0,0,0,0,0,8,8,8,2,0,2,0,,,,,,,,,,,,,,,,,,,,,,,,,,,,,,,,,,,,,,,['return'],162.0028663999983,None,[0.19337069999892265],,,1,001,2021_Oct_15_1315,eeg_contingent_digits,2021.2.3,59.989010012613235,
8.0,9.0,3.0,6.0,,,,,,,,,,,,,,,,,,,,,,,,,,,,,0,0,0,0,0,8,8,8,,,,,,,,,,,,,,,,,,,,,,,,,,,,,,,,,,,,,,,,,,,,,,,None,None,1,001,2021_Oct_15_1315,eeg_contingent_digits,2021.2.3,59.989010012613235,
9.0,6.0,9.0,4.0,,,,,,,,,,,,,,,,,,,,,,,,,,,,,0,0,0,0,0,9,9,9,0,0,0,0,,,,,,,,,,,,,,,,,,,,,,,,,,,,,,,162.22541930000443,None,0.014110179989074823,None,0.4780147799901897,None,0.961568079990684,None,['return'],165.68694980000146,None,[0.5523390999951516],,,1,001,2021_Oct_15_1315,eeg_contingent_digits,2021.2.3,59.989010012613235,
9.0,6.0,9.0,4.0,,,,,,,,,,,,,,,,,,,,,,,,,,,,,0,0,0,0,0,9,9,9,1,0,1,0,,,,,,,,,,,,,,,,,,,,,,,,,,,,,,,,,,,,,,,['return'],166.26931960000366,None,[0.16596029999345774],,,1,001,2021_Oct_15_1315,eeg_contingent_digits,2021.2.3,59.989010012613235,
9.0,6.0,9.0,4.0,,,,,,,,,,,,,,,,,,,,,,,,,,,,,0,0,0,0,0,9,9,9,2,0,2,0,,,,,,,,,,,,,,,,,,,,,,,,,,,,,,,,,,,,,,,['return'],166.45262250000087,None,[0.18380940000497503],,,1,001,2021_Oct_15_1315,eeg_contingent_digits,2021.2.3,59.989010012613235,
9.0,6.0,9.0,4.0,,,,,,,,,,,,,,,,,,,,,,,,,,,,,0,0,0,0,0,9,9,9,,,,,,,,,,,,,,,,,,,,,,,,,,,,,,,,,,,,,,,,,,,,,,,None,None,1,001,2021_Oct_15_1315,eeg_contingent_digits,2021.2.3,59.989010012613235,
10.0,0.0,3.0,9.0,,,,,,,,,,,,,,,,,,,,,,,,,,,,,0,0,0,0,0,10,10,10,0,0,0,0,,,,,,,,,,,,,,,,,,,,,,,,,,,,,,,166.67858759999945,None,0.015527279989328235,None,0.4808176799924695,None,0.964127279992681,None,['return'],170.14226570000028,None,[0.4960023000021465],,,1,001,2021_Oct_15_1315,eeg_contingent_digits,2021.2.3,59.989010012613235,
10.0,0.0,3.0,9.0,,,,,,,,,,,,,,,,,,,,,,,,,,,,,0,0,0,0,0,10,10,10,1,0,1,0,,,,,,,,,,,,,,,,,,,,,,,,,,,,,,,,,,,,,,,['return'],170.6688221000004,None,[0.1743851999999606],,,1,001,2021_Oct_15_1315,eeg_contingent_digits,2021.2.3,59.989010012613235,
10.0,0.0,3.0,9.0,,,,,,,,,,,,,,,,,,,,,,,,,,,,,0,0,0,0,0,10,10,10,2,0,2,0,,,,,,,,,,,,,,,,,,,,,,,,,,,,,,,,,,,,,,,['return'],170.86893299999792,None,[0.1543385999975726],,,1,001,2021_Oct_15_1315,eeg_contingent_digits,2021.2.3,59.989010012613235,
10.0,0.0,3.0,9.0,,,,,,,,,,,,,,,,,,,,,,,,,,,,,0,0,0,0,0,10,10,10,,,,,,,,,,,,,,,,,,,,,,,,,,,,,,,,,,,,,,,,,,,,,,,None,None,1,001,2021_Oct_15_1315,eeg_contingent_digits,2021.2.3,59.989010012613235,
11.0,9.0,2.0,6.0,,,,,,,,,,,,,,,,,,,,,,,,,,,,,0,0,0,0,0,11,11,11,0,0,0,0,,,,,,,,,,,,,,,,,,,,,,,,,,,,,,,171.05212179999944,None,0.011319280005409382,None,0.4725554800024838,None,0.9557371800037799,None,['return'],174.50912020000396,None,[0.3932125999999698],,,1,001,2021_Oct_15_1315,eeg_contingent_digits,2021.2.3,59.989010012613235,
11.0,9.0,2.0,6.0,,,,,,,,,,,,,,,,,,,,,,,,,,,,,0,0,0,0,0,11,11,11,1,0,1,0,,,,,,,,,,,,,,,,,,,,,,,,,,,,,,,,,,,,,,,['return'],174.93616620000103,None,[0.16608870000345632],,,1,001,2021_Oct_15_1315,eeg_contingent_digits,2021.2.3,59.989010012613235,
11.0,9.0,2.0,6.0,,,,,,,,,,,,,,,,,,,,,,,,,,,,,0,0,0,0,0,11,11,11,2,0,2,0,,,,,,,,,,,,,,,,,,,,,,,,,,,,,,,,,,,,,,,None,175.1371188999983,None,,,,1,001,2021_Oct_15_1315,eeg_contingent_digits,2021.2.3,59.989010012613235,
11.0,9.0,2.0,6.0,,,,,,,,,,,,,,,,,,,,,,,,,,,,,0,0,0,0,0,11,11,11,,,,,,,,,,,,,,,,,,,,,,,,,,,,,,,,,,,,,,,,,,,,,,,175.3401079000032,None,1,001,2021_Oct_15_1315,eeg_contingent_digits,2021.2.3,59.989010012613235,
,,,,,,,,,,,,,,,,,,,,,,,,,,,,,,,,0,0,0,0,,,,,,,,,,,,,,,,,,,,,,,,,,,,,,,,,,,,,,,,,,,,,,,,,,,,,1,001,2021_Oct_15_1315,eeg_contingent_digits,2021.2.3,59.989010012613235,
