condsFile,audiofile,duration,noise,voice,words,callSign,colour,number,levels,NV_nChannels,trigger_start,trigger_end,trigger_call,trigger_col,trigger_num,trigger_call_end,trigger_col_end,trigger_num_end,newidx,block,blocks.thisRepN,blocks.thisTrialN,blocks.thisN,blocks.thisIndex,trials.thisRepN,trials.thisTrialN,trials.thisN,trials.thisIndex,thisRow.t,notes,instrTraining.started,instrTrainText.started,key_resp_2.started,instrTraining.stopped,startBlock.started,blockStart.started,key_resp.started,startBlock.stopped,audioTrial.started,sound_1.started,fixation.started,fixation.stopped,screenAfterAudio.started,screenAfterAudio.stopped,audioTrial.stopped,trial.started,blankScreen.started,blankScreen.stopped,call1.started,call2.started,call3.started,call4.started,colour1.started,colour2.started,colour3.started,colour4.started,number1.started,number2.started,number3.started,number4.started,mouseClickOnCall.started,mouseClickOnColour.started,trial.stopped,mouseClickOnCall.x,mouseClickOnCall.y,mouseClickOnCall.leftButton,mouseClickOnCall.midButton,mouseClickOnCall.rightButton,mouseClickOnCall.time,mouseClickOnCall.clicked_name,mouseClickOnColour.x,mouseClickOnColour.y,mouseClickOnColour.leftButton,mouseClickOnColour.midButton,mouseClickOnColour.rightButton,mouseClickOnColour.time,mouseClickOnColour.clicked_name,mouseClickOnNumber.x,mouseClickOnNumber.y,mouseClickOnNumber.leftButton,mouseClickOnNumber.midButton,mouseClickOnNumber.rightButton,mouseClickOnNumber.time,mouseClickOnNumber.clicked_name,callSignCorrect,colourCorrect,numberCorrect,mouseClickOnNumber.started,blankScreenAfterResponse.started,thanks.started,thanksText.started,key_resp_5.started,thanks.stopped,participant,order,date,expName,psychopyVersion,frameRate,expStart,
,,,,,,,,,,,,,,,,,,,,,,,,,,,,,,,0.005337300000064715,0.02841630000011719,0.02841630000011719,52.20703830000002,,,,,,,,,,,,,,,,,,,,,,,,,,,,,,,,,,,,,,,,,,,,,,,,,,,,,,,,,,,,s003,2,2024-04-25_08h38.20.528,SentenceInNoise,2024.1.1,None,2024-04-25 08h38.41.453396 +0200,
Y:\Projects\Spinco\SINEEG\Stimuli\AudioGens\flow_Experiment2\tts-golang-selected_PsyPySEQ_NV3.csv,audio/NV_DE_Neural2-F_Ti-ro-Ei_0.15p_16ch.wav,5.0619,NV,Neural2-F,Ti-ro-Ei,Ti,ro,Ei,0.15p,16ch,100,101,114,123,131,110,120,130,11,NV3,0,0,0,0,0,0,0,15,57.95773220000001,,,,,,52.27414850000014,52.28044650000038,52.28044650000038,57.71871420000025,57.78269030000001,57.967173600000024,57.95773220000001,62.64990160000025,62.64990160000025,62.64990160000025,62.61897090000002,62.61899100000028,62.64990160000025,63.66263530000015,63.66263530000015,63.66263530000015,63.66263530000015,63.66263530000015,63.66263530000015,63.66263530000015,63.66263530000015,63.66263530000015,63.66263530000015,63.66263530000015,63.66263530000015,63.66263530000015,1.0263052999998763,9.523733399999855,72.62275940000018,[-0.39537037037037037],[0.30462962962962964],[1],[0],[0],[9.53662869999971],['call1'],[],[],[],[],[],[],[],[],[],[],[],[],[],[],False,NO_ANSW,NO_ANSW,,,,,,,s003,2,2024-04-25_08h38.20.528,SentenceInNoise,2024.1.1,None,2024-04-25 08h38.41.453396 +0200,
Y:\Projects\Spinco\SINEEG\Stimuli\AudioGens\flow_Experiment2\tts-golang-selected_PsyPySEQ_NV3.csv,audio/NV_DE_Neural2-F_Ti-gr-Zw_0.1p_16ch.wav,4.9512,NV,Neural2-F,Ti-gr-Zw,Ti,gr,Zw,0.1p,16ch,100,101,114,122,132,110,120,130,11,NV3,0,0,0,0,0,1,1,26,72.79166980000036,,,,,,,,,,72.63546680000036,72.7878045666668,72.79166980000036,77.35699760000034,77.35699760000034,77.35699760000034,77.34698440000011,77.34700570000041,77.35699760000034,78.3663719000001,78.3663719000001,78.3663719000001,78.3663719000001,78.3663719000001,78.3663719000001,78.3663719000001,78.3663719000001,78.3663719000001,78.3663719000001,78.3663719000001,78.3663719000001,78.3663719000001,1.0036089000000175,2.5512260000000424,82.00029240000003,[-0.40925925925925927],[-0.3416666666666667],[1],[0],[0],[2.5532232000000477],['call4'],[-0.030555555555555555],[-0.06574074074074074],[1],[0],[0],[3.535370099999909],['colour3'],[0.4222222222222222],[-0.08425925925925926],[1],[0],[0],[4.652062499999829],['number3'],True,False,False,3.5339144999998098,82.16629920000014,,,,,s003,2,2024-04-25_08h38.20.528,SentenceInNoise,2024.1.1,None,2024-04-25 08h38.41.453396 +0200,
Y:\Projects\Spinco\SINEEG\Stimuli\AudioGens\flow_Experiment2\tts-golang-selected_PsyPySEQ_NV3.csv,audio/NV_DE_Neural2-F_Kr-ge-Dr_0.05p_16ch.wav,4.9212,NV,Neural2-F,Kr-ge-Dr,Kr,ge,Dr,0.05p,16ch,100,101,113,121,133,110,120,130,8,NV3,0,0,0,0,0,2,2,13,82.16629920000014,,,,,,,,,,82.00210050000032,82.16318796666671,82.16629920000014,86.71251920000032,86.71251920000032,86.71251920000032,86.6998152000001,86.69983790000015,86.71251920000032,87.72535730000027,87.72535730000027,87.72535730000027,87.72535730000027,87.72535730000027,87.72535730000027,87.72535730000027,87.72535730000027,87.72535730000027,87.72535730000027,87.72535730000027,87.72535730000027,87.72535730000027,1.008566299999984,2.757572600000003,91.57527340000024,[-0.3814814814814815],[-0.10648148148148148],[1],[0],[0],[2.7587711999999556],['call3'],[0.023148148148148147],[-0.07777777777777778],[1],[0],[0],[3.908303600000181],['colour3'],[0.45555555555555555],[-0.31574074074074077],[1],[0],[0],[4.874307900000076],['number4'],True,False,False,3.9063568999999916,91.76414670000031,,,,,s003,2,2024-04-25_08h38.20.528,SentenceInNoise,2024.1.1,None,2024-04-25 08h38.41.453396 +0200,
Y:\Projects\Spinco\SINEEG\Stimuli\AudioGens\flow_Experiment2\tts-golang-selected_PsyPySEQ_NV3.csv,audio/NV_DE_Neural2-D_Ad-gr-Zw_0p_16ch.wav,5.6024,NV,Neural2-D,Ad-gr-Zw,Ad,gr,Zw,0p,16ch,100,101,111,122,132,110,120,130,11,NV3,0,0,0,0,0,3,3,8,91.76414670000031,,,,,,,,,,91.57708670000011,91.77197170000018,91.76414670000031,96.93799270000045,96.93799270000045,96.93799270000045,96.92535720000024,96.92539910000005,96.93799270000045,97.95005730000003,97.95005730000003,97.95005730000003,97.95005730000003,97.95005730000003,97.95005730000003,97.95005730000003,97.95005730000003,97.95005730000003,97.95005730000003,97.95005730000003,97.95005730000003,97.95005730000003,1.0081645000000208,2.740472999999838,101.91610590000028,[-0.3962962962962963],[0.2851851851851852],[1],[0],[0],[2.742471800000203],['call1'],[0.03518518518518519],[0.11851851851851852],[1],[0],[0],[3.557656699999825],['colour2'],[0.37777777777777777],[0.33425925925925926],[1],[0],[0],[4.9892297999999755],['number1'],True,False,False,3.556071200000133,102.0932343000004,,,,,s003,2,2024-04-25_08h38.20.528,SentenceInNoise,2024.1.1,None,2024-04-25 08h38.41.453396 +0200,
Y:\Projects\Spinco\SINEEG\Stimuli\AudioGens\flow_Experiment2\tts-golang-selected_PsyPySEQ_NV3.csv,audio/NV_DE_Neural2-D_Ti-we-Ei_0.1p_16ch.wav,5.5762,NV,Neural2-D,Ti-we-Ei,Ti,we,Ei,0.1p,16ch,100,101,114,124,131,110,120,130,11,NV3,0,0,0,0,0,4,4,28,102.0932343000004,,,,,,,,,,101.91798610000023,102.09670933333376,102.0932343000004,107.23221810000041,107.23221810000041,107.23221810000041,107.22171920000028,107.22174070000028,107.23221810000041,108.24175280000009,108.24175280000009,108.24175280000009,108.24175280000009,108.24175280000009,108.24175280000009,108.24175280000009,108.24175280000009,108.24175280000009,108.24175280000009,108.24175280000009,108.24175280000009,108.24175280000009,1.0030836000000818,2.4020196000001306,111.358115,[-0.4361111111111111],[0.08518518518518518],[1],[0],[0],[2.4036412000000382],['call2'],[0.05092592592592592],[-0.11944444444444445],[1],[0],[0],[3.435969699999987],['colour3'],[0.37407407407407406],[0.10185185185185185],[1],[0],[0],[4.135292399999798],['number2'],False,False,False,3.4344584999998915,111.50704490000044,,,,,s003,2,2024-04-25_08h38.20.528,SentenceInNoise,2024.1.1,None,2024-04-25 08h38.41.453396 +0200,
Y:\Projects\Spinco\SINEEG\Stimuli\AudioGens\flow_Experiment2\tts-golang-selected_PsyPySEQ_NV3.csv,audio/NV_DE_Neural2-D_Ad-we-Dr_0p_16ch.wav,5.4683,NV,Neural2-D,Ad-we-Dr,Ad,we,Dr,0p,16ch,100,101,111,124,133,110,120,130,9,NV3,0,0,0,0,0,5,5,1,111.50704490000044,,,,,,,,,,111.35994440000013,111.50533840000017,111.50704490000044,116.5540218000001,116.5540218000001,116.5540218000001,116.54250060000004,116.54252080000015,116.5540218000001,117.5676295000003,117.5676295000003,117.5676295000003,117.5676295000003,117.5676295000003,117.5676295000003,117.5676295000003,117.5676295000003,117.5676295000003,117.5676295000003,117.5676295000003,117.5676295000003,117.5676295000003,1.0085681000000477,2.5238717000002,120.88393870000027,[-0.3731481481481482],[-0.3148148148148148],[1],[0],[0],[2.5258428999995886],['call4'],[-0.04814814814814815],[-0.26481481481481484],[1],[0],[0],[3.5097069000003103],['colour4'],[0.44351851851851853],[-0.2759259259259259],[1],[0],[0],[4.340350800000124],['number4'],False,False,False,3.506731899999977,121.0518718000003,,,,,s003,2,2024-04-25_08h38.20.528,SentenceInNoise,2024.1.1,None,2024-04-25 08h38.41.453396 +0200,
Y:\Projects\Spinco\SINEEG\Stimuli\AudioGens\flow_Experiment2\tts-golang-selected_PsyPySEQ_NV3.csv,audio/NV_DE_Neural2-F_Dr-ge-Ei_0p_16ch.wav,5.1509,NV,Neural2-F,Dr-ge-Ei,Dr,ge,Ei,0p,16ch,100,101,112,121,131,110,120,130,11,NV3,0,0,0,0,0,6,6,29,121.0518718000003,,,,,,,,,,120.8858739000002,121.047885666667,121.0518718000003,125.8013175000001,125.8013175000001,125.8013175000001,125.79046960000005,125.79049030000033,125.8013175000001,126.81200500000023,126.81200500000023,126.81200500000023,126.81200500000023,126.81200500000023,126.81200500000023,126.81200500000023,126.81200500000023,126.81200500000023,126.81200500000023,126.81200500000023,126.81200500000023,126.81200500000023,1.0112052000004041,2.4181099000002177,130.07657880000033,[-0.44074074074074077],[0.11388888888888889],[1],[0],[0],[2.4196105999999418],['call2'],[0.049074074074074076],[0.2962962962962963],[1],[0],[0],[3.7019523000003574],['colour1'],[0.36944444444444446],[0.3194444444444444],[1],[0],[0],[4.2850038000001405],['number1'],True,False,False,3.7001913000003697,130.28254360000028,,,,,s003,2,2024-04-25_08h38.20.528,SentenceInNoise,2024.1.1,None,2024-04-25 08h38.41.453396 +0200,
Y:\Projects\Spinco\SINEEG\Stimuli\AudioGens\flow_Experiment2\tts-golang-selected_PsyPySEQ_NV3.csv,audio/NV_DE_Neural2-F_Ti-ro-Ei_0.05p_16ch.wav,5.0619,NV,Neural2-F,Ti-ro-Ei,Ti,ro,Ei,0.05p,16ch,100,101,114,123,131,110,120,130,10,NV3,0,0,0,0,0,7,7,4,130.28254360000028,,,,,,,,,,130.07845440000028,130.29041256666684,130.28254360000028,134.95399380000026,134.95399380000026,134.95399380000026,134.94174380000004,134.94176570000036,134.95399380000026,135.95261500000015,135.95261500000015,135.95261500000015,135.95261500000015,135.95261500000015,135.95261500000015,135.95261500000015,135.95261500000015,135.95261500000015,135.95261500000015,135.95261500000015,135.95261500000015,135.95261500000015,0.9948902000000999,2.9920555999997305,139.48461250000037,[-0.40185185185185185],[-0.2962962962962963],[1],[0],[0],[2.9937222999997175],['call4'],[-0.03148148148148148],[-0.06759259259259259],[1],[0],[0],[3.97639479999998],['colour3'],[0.37407407407407406],[-0.06759259259259259],[1],[0],[0],[4.541660099999717],['number3'],True,False,False,3.9746775999997226,139.67154720000008,,,,,s003,2,2024-04-25_08h38.20.528,SentenceInNoise,2024.1.1,None,2024-04-25 08h38.41.453396 +0200,
Y:\Projects\Spinco\SINEEG\Stimuli\AudioGens\flow_Experiment2\tts-golang-selected_PsyPySEQ_NV3.csv,audio/NV_DE_Neural2-F_Ad-gr-Dr_0p_16ch.wav,4.9406,NV,Neural2-F,Ad-gr-Dr,Ad,gr,Dr,0p,16ch,100,101,111,122,133,110,120,130,9,NV3,0,0,0,0,0,8,8,10,139.67154720000008,,,,,,,,,,139.4862460000004,139.66591273333364,139.67154720000008,144.22891310000023,144.22891310000023,144.22891310000023,144.2170847000002,144.21710380000013,144.22891310000023,145.2278421000001,145.2278421000001,145.2278421000001,145.2278421000001,145.2278421000001,145.2278421000001,145.2278421000001,145.2278421000001,145.2278421000001,145.2278421000001,145.2278421000001,145.2278421000001,145.2278421000001,0.9947115999998459,1.7767478000000665,147.59578310000006,[-0.43703703703703706],[0.3472222222222222],[1],[0],[0],[1.7779592999995657],['call1'],[-0.022222222222222223],[0.31203703703703706],[1],[0],[0],[2.345260000000053],['colour1'],[0.4361111111111111],[-0.3111111111111111],[1],[0],[0],[3.377560099999755],['number4'],True,False,False,2.343331499999749,147.8015975000003,,,,,s003,2,2024-04-25_08h38.20.528,SentenceInNoise,2024.1.1,None,2024-04-25 08h38.41.453396 +0200,
Y:\Projects\Spinco\SINEEG\Stimuli\AudioGens\flow_Experiment2\tts-golang-selected_PsyPySEQ_NV3.csv,audio/NV_DE_Neural2-D_Kr-ge-Ei_0p_16ch.wav,5.4552,NV,Neural2-D,Kr-ge-Ei,Kr,ge,Ei,0p,16ch,100,101,113,121,131,110,120,130,8,NV3,0,0,0,0,0,9,9,5,147.8015975000003,,,,,,,,,,147.59766910000008,147.80923156666674,147.8015975000003,152.8390986000004,152.8390986000004,152.8390986000004,152.82353330000024,152.8235563000003,152.8390986000004,153.85410330000013,153.85410330000013,153.85410330000013,153.85410330000013,153.85410330000013,153.85410330000013,153.85410330000013,153.85410330000013,153.85410330000013,153.85410330000013,153.85410330000013,153.85410330000013,153.85410330000013,1.0137798999999177,2.3630857000002834,156.42065540000021,[-0.44537037037037036],[0.1425925925925926],[1],[0],[0],[2.3646897999997236],['call2'],[-0.026851851851851852],[-0.08055555555555556],[1],[0],[0],[2.9305450000001656],['colour3'],[0.43333333333333335],[-0.11203703703703703],[1],[0],[0],[3.59596670000019],['number3'],False,False,False,2.929026199999953,157.17202480000014,,,,,s003,2,2024-04-25_08h38.20.528,SentenceInNoise,2024.1.1,None,2024-04-25 08h38.41.453396 +0200,
Y:\Projects\Spinco\SINEEG\Stimuli\AudioGens\flow_Experiment2\tts-golang-selected_PsyPySEQ_NV3.csv,audio/NV_DE_Neural2-D_Ti-ge-Zw_0.15p_16ch.wav,5.4068,NV,Neural2-D,Ti-ge-Zw,Ti,ge,Zw,0.15p,16ch,100,101,114,121,132,110,120,130,9,NV3,0,0,0,0,0,10,10,19,157.17202480000014,,,,,,,,,,156.42255780000005,157.16861580000023,157.17202480000014,162.1551585000002,162.1551585000002,162.1551585000002,162.1464050000004,162.14642760000015,162.1551585000002,163.1629267000003,163.1629267000003,163.1629267000003,163.1629267000003,163.1629267000003,163.1629267000003,163.1629267000003,163.1629267000003,163.1629267000003,163.1629267000003,163.1629267000003,163.1629267000003,163.1629267000003,1.0001437000000806,1.8664466000000175,165.66438910000034,[-0.4287037037037037],[-0.33425925925925926],[1],[0],[0],[1.8679401999997935],['call4'],[0.04814814814814815],[0.13148148148148148],[1],[0],[0],[3.000125200000184],['colour2'],[0.37592592592592594],[0.13148148148148148],[1],[0],[0],[3.5167404999997416],['number2'],True,False,False,2.9984435999999732,165.84731340000008,,,,,s003,2,2024-04-25_08h38.20.528,SentenceInNoise,2024.1.1,None,2024-04-25 08h38.41.453396 +0200,
Y:\Projects\Spinco\SINEEG\Stimuli\AudioGens\flow_Experiment2\tts-golang-selected_PsyPySEQ_NV3.csv,audio/NV_DE_Neural2-F_Kr-ro-Zw_0.1p_16ch.wav,4.9106,NV,Neural2-F,Kr-ro-Zw,Kr,ro,Zw,0.1p,16ch,100,101,113,123,132,110,120,130,9,NV3,0,0,0,0,0,11,11,23,165.84731340000008,,,,,,,,,,165.6665208000004,165.8454005333337,165.84731340000008,170.39036380000016,170.39036380000016,170.39036380000016,170.37745480000012,170.37747490000038,170.39036380000016,171.3896675000001,171.3896675000001,171.3896675000001,171.3896675000001,171.3896675000001,171.3896675000001,171.3896675000001,171.3896675000001,171.3896675000001,171.3896675000001,171.3896675000001,171.3896675000001,171.3896675000001,0.9954714000000422,2.1778223000001162,173.74074040000005,[-0.3685185185185185],[-0.2972222222222222],[1],[0],[0],[2.17862869999999],['call4'],[-0.037037037037037035],[0.1425925925925926],[1],[0],[0],[2.7957988999996815],['colour2'],[0.3814814814814815],[0.14166666666666666],[1],[0],[0],[3.3621572000001834],['number2'],False,False,False,2.7941466000002038,173.89317960000017,,,,,s003,2,2024-04-25_08h38.20.528,SentenceInNoise,2024.1.1,None,2024-04-25 08h38.41.453396 +0200,
Y:\Projects\Spinco\SINEEG\Stimuli\AudioGens\flow_Experiment2\tts-golang-selected_PsyPySEQ_NV3.csv,audio/NV_DE_Neural2-F_Dr-ro-Zw_0.15p_16ch.wav,4.9019,NV,Neural2-F,Dr-ro-Zw,Dr,ro,Zw,0.15p,16ch,100,101,112,123,132,110,120,130,10,NV3,0,0,0,0,0,12,12,30,173.89317960000017,,,,,,,,,,173.7425884000004,173.88770380000042,173.89317960000017,178.41800580000017,178.41800580000017,178.41800580000017,178.40196070000002,178.4019862,178.41800580000017,179.43280030000005,179.43280030000005,179.43280030000005,179.43280030000005,179.43280030000005,179.43280030000005,179.43280030000005,179.43280030000005,179.43280030000005,179.43280030000005,179.43280030000005,179.43280030000005,179.43280030000005,1.0145941999999195,2.779576899999938,182.58483300000034,[-0.3592592592592593],[-0.2824074074074074],[1],[0],[0],[2.7815503000001627],['call4'],[-0.026851851851851852],[0.11388888888888889],[1],[0],[0],[3.5465791999999965],['colour2'],[0.39166666666666666],[0.0712962962962963],[1],[0],[0],[4.181814499999746],['number2'],False,False,False,3.545538899999883,182.7632294,,,,,s003,2,2024-04-25_08h38.20.528,SentenceInNoise,2024.1.1,None,2024-04-25 08h38.41.453396 +0200,
Y:\Projects\Spinco\SINEEG\Stimuli\AudioGens\flow_Experiment2\tts-golang-selected_PsyPySEQ_NV3.csv,audio/NV_DE_Neural2-F_Kr-we-Dr_0.1p_16ch.wav,4.9052,NV,Neural2-F,Kr-we-Dr,Kr,we,Dr,0.1p,16ch,100,101,113,124,133,110,120,130,10,NV3,0,0,0,0,0,13,13,11,182.7632294,,,,,,,,,,182.5869034000002,182.76407343333352,182.7632294,187.28471210000043,187.28471210000043,187.28471210000043,187.27559800000017,187.2756373000002,187.28471210000043,188.29220300000043,188.29220300000043,188.29220300000043,188.29220300000043,188.29220300000043,188.29220300000043,188.29220300000043,188.29220300000043,188.29220300000043,188.29220300000043,188.29220300000043,188.29220300000043,188.29220300000043,1.0000933000001169,1.8493140999999014,190.59389960000044,[-0.41759259259259257],[0.3194444444444444],[1],[0],[0],[1.8509022999996887],['call1'],[0.05],[0.31851851851851853],[1],[0],[0],[2.534004999999979],['colour1'],[0.3861111111111111],[-0.0712962962962963],[1],[0],[0],[3.3171102999999675],['number3'],False,False,False,2.532224099999894,190.7689765,,,,,s003,2,2024-04-25_08h38.20.528,SentenceInNoise,2024.1.1,None,2024-04-25 08h38.41.453396 +0200,
Y:\Projects\Spinco\SINEEG\Stimuli\AudioGens\flow_Experiment2\tts-golang-selected_PsyPySEQ_NV3.csv,audio/NV_DE_Neural2-D_Ti-gr-Vi_0.05p_16ch.wav,5.5195,NV,Neural2-D,Ti-gr-Vi,Ti,gr,Vi,0.05p,16ch,100,101,114,122,134,110,120,130,11,NV3,0,0,0,0,0,14,14,2,190.7689765,,,,,,,,,,190.59573980000005,190.77421923333344,190.7689765,195.86925790000032,195.86925790000032,195.86925790000032,195.8535710000001,195.85359080000035,195.86925790000032,196.86871470000006,196.86871470000006,196.86871470000006,196.86871470000006,196.86871470000006,196.86871470000006,196.86871470000006,196.86871470000006,196.86871470000006,196.86871470000006,196.86871470000006,196.86871470000006,196.86871470000006,0.9983795000002829,2.6138562000001,200.13481920000004,[-0.3990740740740741],[0.13055555555555556],[1],[0],[0],[2.614732300000014],['call2'],[0.000925925925925926],[-0.06296296296296296],[1],[0],[0],[3.7641257999998743],['colour3'],[0.36203703703703705],[-0.09537037037037037],[1],[0],[0],[4.280209499999728],['number3'],False,False,False,3.762806499999897,200.32516320000013,,,,,s003,2,2024-04-25_08h38.20.528,SentenceInNoise,2024.1.1,None,2024-04-25 08h38.41.453396 +0200,
Y:\Projects\Spinco\SINEEG\Stimuli\AudioGens\flow_Experiment2\tts-golang-selected_PsyPySEQ_NV3.csv,audio/NV_DE_Neural2-D_Kr-ge-Vi_0.15p_16ch.wav,5.3664,NV,Neural2-D,Kr-ge-Vi,Kr,ge,Vi,0.15p,16ch,100,101,113,121,134,110,120,130,10,NV3,0,0,0,0,0,15,15,24,200.32516320000013,,,,,,,,,,200.13665840000021,200.33264240000037,200.32516320000013,205.28108920000022,205.28108920000022,205.28108920000022,205.26866400000017,205.26868650000006,205.28108920000022,206.29408920000014,206.29408920000014,206.29408920000014,206.29408920000014,206.29408920000014,206.29408920000014,206.29408920000014,206.29408920000014,206.29408920000014,206.29408920000014,206.29408920000014,206.29408920000014,206.29408920000014,1.0087531999997736,3.956454399999984,210.64378490000036,[-0.3648148148148148],[-0.30185185185185187],[1],[0],[0],[3.958199799999875],['call4'],[-0.06944444444444445],[0.15],[1],[0],[0],[4.891154199999619],['colour2'],[0.4527777777777778],[0.1175925925925926],[1],[0],[0],[5.3735209000001305],['number2'],False,False,False,4.889380699999947,210.83115350000026,,,,,s003,2,2024-04-25_08h38.20.528,SentenceInNoise,2024.1.1,None,2024-04-25 08h38.41.453396 +0200,
Y:\Projects\Spinco\SINEEG\Stimuli\AudioGens\flow_Experiment2\tts-golang-selected_PsyPySEQ_NV3.csv,audio/NV_DE_Neural2-F_Ad-ge-Ei_0p_16ch.wav,5.1134,NV,Neural2-F,Ad-ge-Ei,Ad,ge,Ei,0p,16ch,100,101,111,121,131,110,120,130,8,NV3,0,0,0,0,0,16,16,3,210.83115350000026,,,,,,,,,,210.64565390000007,210.84065580000035,210.83115350000026,215.55314160000034,215.55314160000034,215.55314160000034,215.53917450000017,215.53920800000014,215.55314160000034,216.55280990000028,216.55280990000028,216.55280990000028,216.55280990000028,216.55280990000028,216.55280990000028,216.55280990000028,216.55280990000028,216.55280990000028,216.55280990000028,216.55280990000028,216.55280990000028,216.55280990000028,0.9978057000002991,2.346716400000332,219.70334970000022,[-0.44166666666666665],[0.34629629629629627],[1],[0],[0],[2.348528500000157],['call1'],[0.007407407407407408],[0.35],[1],[0],[0],[3.396126000000095],['colour1'],[0.42407407407407405],[-0.14351851851851852],[1],[0],[0],[4.162949600000047],['number3'],True,False,False,3.3947269000000233,219.87367660000018,,,,,s003,2,2024-04-25_08h38.20.528,SentenceInNoise,2024.1.1,None,2024-04-25 08h38.41.453396 +0200,
Y:\Projects\Spinco\SINEEG\Stimuli\AudioGens\flow_Experiment2\tts-golang-selected_PsyPySEQ_NV3.csv,audio/NV_DE_Neural2-D_Ad-we-Dr_0.1p_16ch.wav,5.4683,NV,Neural2-D,Ad-we-Dr,Ad,we,Dr,0.1p,16ch,100,101,111,124,133,110,120,130,9,NV3,0,0,0,0,0,17,17,21,219.87367660000018,,,,,,,,,,219.70547890000034,219.8833655333337,219.87367660000018,224.91799470000024,224.91799470000024,224.91799470000024,224.90826130000005,224.90828390000024,224.91799470000024,225.92818300000044,225.92818300000044,225.92818300000044,225.92818300000044,225.92818300000044,225.92818300000044,225.92818300000044,225.92818300000044,225.92818300000044,225.92818300000044,225.92818300000044,225.92818300000044,225.92818300000044,1.003070199999911,2.0358102999998664,228.7123760000004,[-0.42592592592592593],[0.28703703703703703],[1],[0],[0],[2.0376694999999927],['call1'],[0.028703703703703703],[-0.13055555555555556],[1],[0],[0],[3.2867182999998477],['colour3'],[0.3611111111111111],[-0.08888888888888889],[1],[0],[0],[3.8029277999999067],['number3'],True,False,False,3.2847194999999374,229.27200310000035,,,,,s003,2,2024-04-25_08h38.20.528,SentenceInNoise,2024.1.1,None,2024-04-25 08h38.41.453396 +0200,
Y:\Projects\Spinco\SINEEG\Stimuli\AudioGens\flow_Experiment2\tts-golang-selected_PsyPySEQ_NV3.csv,audio/NV_DE_Neural2-F_Ad-ro-Zw_0.1p_16ch.wav,4.932,NV,Neural2-F,Ad-ro-Zw,Ad,ro,Zw,0.1p,16ch,100,101,111,123,132,110,120,130,8,NV3,0,0,0,0,0,18,18,6,229.27200310000035,,,,,,,,,,228.71524620000037,229.27689026666675,229.27200310000035,233.82212200000004,233.82212200000004,233.82212200000004,233.8097388000001,233.80975890000036,233.82212200000004,234.8374388000002,234.8374388000002,234.8374388000002,234.8374388000002,234.8374388000002,234.8374388000002,234.8374388000002,234.8374388000002,234.8374388000002,234.8374388000002,234.8374388000002,234.8374388000002,234.8374388000002,1.0119885000003705,1.92755120000038,237.13852250000036,[-0.43148148148148147],[0.35],[1],[0],[0],[1.9291122999998151],['call1'],[-0.019444444444444445],[-0.08796296296296297],[1],[0],[0],[2.5621234999998705],['colour3'],[0.4083333333333333],[0.13148148148148148],[1],[0],[0],[3.327750599999945],['number2'],True,False,False,2.5598972000002505,237.37876250000045,,,,,s003,2,2024-04-25_08h38.20.528,SentenceInNoise,2024.1.1,None,2024-04-25 08h38.41.453396 +0200,
Y:\Projects\Spinco\SINEEG\Stimuli\AudioGens\flow_Experiment2\tts-golang-selected_PsyPySEQ_NV3.csv,audio/NV_DE_Neural2-D_Kr-we-Zw_0p_16ch.wav,5.3987,NV,Neural2-D,Kr-we-Zw,Kr,we,Zw,0p,16ch,100,101,113,124,132,110,120,130,10,NV3,0,0,0,0,0,19,19,25,237.37876250000045,,,,,,,,,,237.14024320000044,237.3852853000003,237.37876250000045,242.36448110000038,242.36448110000038,242.36448110000038,242.34889810000004,242.3489214000001,242.36448110000038,243.3646692000002,243.3646692000002,243.3646692000002,243.3646692000002,243.3646692000002,243.3646692000002,243.3646692000002,243.3646692000002,243.3646692000002,243.3646692000002,243.3646692000002,243.3646692000002,243.3646692000002,0.9979837000000771,1.9814267000001564,245.58176140000023,[-0.3675925925925926],[0.275],[1],[0],[0],[1.9835221999996975],['call1'],[-0.010185185185185186],[-0.07592592592592592],[1],[0],[0],[2.731481799999983],['colour3'],[0.4],[0.18425925925925926],[1],[0],[0],[3.2317854000002626],['number2'],False,False,False,2.730043200000182,245.80644940000002,,,,,s003,2,2024-04-25_08h38.20.528,SentenceInNoise,2024.1.1,None,2024-04-25 08h38.41.453396 +0200,
Y:\Projects\Spinco\SINEEG\Stimuli\AudioGens\flow_Experiment2\tts-golang-selected_PsyPySEQ_NV3.csv,audio/NV_DE_Neural2-D_Ad-ro-Zw_0.1p_16ch.wav,5.4646,NV,Neural2-D,Ad-ro-Zw,Ad,ro,Zw,0.1p,16ch,100,101,111,123,132,110,120,130,8,NV3,0,0,0,0,0,20,20,20,245.80644940000002,,,,,,,,,,245.58359770000015,245.81269893333342,245.80644940000002,250.85776890000034,250.85776890000034,250.85776890000034,250.84193270000014,250.84195530000034,250.85776890000034,251.8570522,251.8570522,251.8570522,251.8570522,251.8570522,251.8570522,251.8570522,251.8570522,251.8570522,251.8570522,251.8570522,251.8570522,251.8570522,0.9984546999999111,2.4140535999999884,254.60806550000007,[-0.39814814814814814],[0.2953703703703704],[1],[0],[0],[2.4162317999998777],['call1'],[0.03148148148148148],[0.10462962962962963],[1],[0],[0],[3.298879399999805],['colour2'],[0.4398148148148148],[-0.125],[1],[0],[0],[3.7648894999997538],['number3'],True,False,False,3.2966981999998097,254.79909680000037,,,,,s003,2,2024-04-25_08h38.20.528,SentenceInNoise,2024.1.1,None,2024-04-25 08h38.41.453396 +0200,
Y:\Projects\Spinco\SINEEG\Stimuli\AudioGens\flow_Experiment2\tts-golang-selected_PsyPySEQ_NV3.csv,audio/NV_DE_Neural2-D_Kr-ge-Vi_0.05p_16ch.wav,5.3664,NV,Neural2-D,Kr-ge-Vi,Kr,ge,Vi,0.05p,16ch,100,101,113,121,134,110,120,130,8,NV3,0,0,0,0,0,21,21,9,254.79909680000037,,,,,,,,,,254.6100081000004,254.80573320000005,254.79909680000037,259.7506328000004,259.7506328000004,259.7506328000004,259.7387039,259.7387248,259.7506328000004,260.7519030000003,260.7519030000003,260.7519030000003,260.7519030000003,260.7519030000003,260.7519030000003,260.7519030000003,260.7519030000003,260.7519030000003,260.7519030000003,260.7519030000003,260.7519030000003,260.7519030000003,0.9958040000001347,1.9096639999997933,263.5989473000004,[-0.4009259259259259],[-0.337037037037037],[1],[0],[0],[1.9108759000000646],['call4'],[-0.053703703703703705],[0.3138888888888889],[1],[0],[0],[3.077162600000065],['colour1'],[0.3907407407407407],[0.12962962962962962],[1],[0],[0],[3.8591983999999684],['number2'],False,False,False,3.075787599999785,263.79044780000004,,,,,s003,2,2024-04-25_08h38.20.528,SentenceInNoise,2024.1.1,None,2024-04-25 08h38.41.453396 +0200,
Y:\Projects\Spinco\SINEEG\Stimuli\AudioGens\flow_Experiment2\tts-golang-selected_PsyPySEQ_NV3.csv,audio/NV_DE_Neural2-D_Kr-ge-Ei_0.05p_16ch.wav,5.4552,NV,Neural2-D,Kr-ge-Ei,Kr,ge,Ei,0.05p,16ch,100,101,113,121,131,110,120,130,10,NV3,0,0,0,0,0,22,22,0,263.79044780000004,,,,,,,,,,263.60077120000005,263.7969292000004,263.79044780000004,268.8259015000003,268.8259015000003,268.8259015000003,268.81019920000017,268.8102189000001,268.8259015000003,269.8253090000003,269.8253090000003,269.8253090000003,269.8253090000003,269.8253090000003,269.8253090000003,269.8253090000003,269.8253090000003,269.8253090000003,269.8253090000003,269.8253090000003,269.8253090000003,269.8253090000003,0.9988170999999966,3.1300467000000936,273.8909627000003,[-0.37222222222222223],[-0.325],[1],[0],[0],[3.1323654000002534],['call4'],[-0.025925925925925925],[0.11296296296296296],[1],[0],[0],[4.181153900000027],['colour2'],[0.475],[-0.1111111111111111],[1],[0],[0],[5.079693799999859],['number3'],False,False,False,4.179477600000155,274.1339386000004,,,,,s003,2,2024-04-25_08h38.20.528,SentenceInNoise,2024.1.1,None,2024-04-25 08h38.41.453396 +0200,
Y:\Projects\Spinco\SINEEG\Stimuli\AudioGens\flow_Experiment2\tts-golang-selected_PsyPySEQ_NV3.csv,audio/NV_DE_Neural2-D_Ad-we-Ei_0.1p_16ch.wav,5.6307,NV,Neural2-D,Ad-we-Ei,Ad,we,Ei,0.1p,16ch,100,101,111,124,131,110,120,130,10,NV3,0,0,0,0,0,23,23,27,274.1339386000004,,,,,,,,,,273.89279590000024,274.13852840000027,274.1339386000004,279.33394510000016,279.33394510000016,279.33394510000016,279.32135470000003,279.3213827000004,279.33394510000016,280.33330350000006,280.33330350000006,280.33330350000006,280.33330350000006,280.33330350000006,280.33330350000006,280.33330350000006,280.33330350000006,280.33330350000006,280.33330350000006,280.33330350000006,280.33330350000006,280.33330350000006,0.9956774000002042,1.9611596999998255,284.2020150000003,[-0.4398148148148148],[0.2972222222222222],[1],[0],[0],[1.9632102999999006],['call1'],[0.028703703703703703],[-0.08611111111111111],[1],[0],[0],[3.296857799999998],['colour3'],[0.36944444444444446],[0.2351851851851852],[1],[0],[0],[4.879491099999996],['number1'],True,False,False,3.2950786999999764,284.37054270000044,,,,,s003,2,2024-04-25_08h38.20.528,SentenceInNoise,2024.1.1,None,2024-04-25 08h38.41.453396 +0200,
Y:\Projects\Spinco\SINEEG\Stimuli\AudioGens\flow_Experiment2\tts-golang-selected_PsyPySEQ_NV3.csv,audio/NV_DE_Neural2-F_Dr-we-Dr_0.05p_16ch.wav,4.9166,NV,Neural2-F,Dr-we-Dr,Dr,we,Dr,0.05p,16ch,100,101,112,124,133,110,120,130,11,NV3,0,0,0,0,0,24,24,17,284.37054270000044,,,,,,,,,,284.2049763,284.3651931666669,284.37054270000044,288.9093474000001,288.9093474000001,288.9093474000001,288.89547100000027,288.8955050000004,288.9093474000001,289.90903130000015,289.90903130000015,289.90903130000015,289.90903130000015,289.90903130000015,289.90903130000015,289.90903130000015,289.90903130000015,289.90903130000015,289.90903130000015,289.90903130000015,289.90903130000015,289.90903130000015,0.9966642000003958,1.8624563000003036,291.84575950000044,[-0.3972222222222222],[0.33055555555555555],[1],[0],[0],[1.864025099999708],['call1'],[0.009259259259259259],[-0.09166666666666666],[1],[0],[0],[2.514167300000281],['colour3'],[0.44722222222222224],[-0.10555555555555556],[1],[0],[0],[2.9491884999997637],['number3'],False,False,False,2.5123019000002387,292.02935300000036,,,,,s003,2,2024-04-25_08h38.20.528,SentenceInNoise,2024.1.1,None,2024-04-25 08h38.41.453396 +0200,
Y:\Projects\Spinco\SINEEG\Stimuli\AudioGens\flow_Experiment2\tts-golang-selected_PsyPySEQ_NV3.csv,audio/NV_DE_Neural2-D_Kr-we-Ei_0.05p_16ch.wav,5.5064,NV,Neural2-D,Kr-we-Ei,Kr,we,Ei,0.05p,16ch,100,101,113,124,131,110,120,130,9,NV3,0,0,0,0,0,25,25,12,292.02935300000036,,,,,,,,,,291.84757560000025,292.02576023333353,292.02935300000036,297.10794840000017,297.10794840000017,297.10794840000017,297.0970301000002,297.0970532000001,297.10794840000017,298.1186885000002,298.1186885000002,298.1186885000002,298.1186885000002,298.1186885000002,298.1186885000002,298.1186885000002,298.1186885000002,298.1186885000002,298.1186885000002,298.1186885000002,298.1186885000002,298.1186885000002,1.0050962999998774,2.187228100000084,300.6025861000003,[-0.4462962962962963],[0.3148148148148148],[1],[0],[0],[2.188593100000162],['call1'],[0.03888888888888889],[0.08055555555555556],[1],[0],[0],[2.821661999999833],['colour2'],[0.425],[0.32592592592592595],[1],[0],[0],[3.5045046000000184],['number1'],False,False,False,2.8202485000001616,300.7760370000001,,,,,s003,2,2024-04-25_08h38.20.528,SentenceInNoise,2024.1.1,None,2024-04-25 08h38.41.453396 +0200,
Y:\Projects\Spinco\SINEEG\Stimuli\AudioGens\flow_Experiment2\tts-golang-selected_PsyPySEQ_NV3.csv,audio/NV_DE_Neural2-D_Kr-gr-Vi_0.15p_16ch.wav,5.4463,NV,Neural2-D,Kr-gr-Vi,Kr,gr,Vi,0.15p,16ch,100,101,113,122,134,110,120,130,8,NV3,0,0,0,0,0,26,26,22,300.7760370000001,,,,,,,,,,300.60441800000035,300.7834257333338,300.7760370000001,305.80236600000035,305.80236600000035,305.80236600000035,305.79219690000036,305.79221840000037,305.80236600000035,306.8115213000001,306.8115213000001,306.8115213000001,306.8115213000001,306.8115213000001,306.8115213000001,306.8115213000001,306.8115213000001,306.8115213000001,306.8115213000001,306.8115213000001,306.8115213000001,306.8115213000001,1.0028823000002376,2.484643000000233,309.5448425000004,[-0.42777777777777776],[0.3138888888888889],[1],[0],[0],[2.4866744000000836],['call1'],[0.027777777777777776],[0.09814814814814815],[1],[0],[0],[3.2858543999996073],['colour2'],[0.41388888888888886],[-0.28425925925925927],[1],[0],[0],[3.7514140000002953],['number4'],False,False,False,3.28422159999991,309.7301776000004,,,,,s003,2,2024-04-25_08h38.20.528,SentenceInNoise,2024.1.1,None,2024-04-25 08h38.41.453396 +0200,
Y:\Projects\Spinco\SINEEG\Stimuli\AudioGens\flow_Experiment2\tts-golang-selected_PsyPySEQ_NV3.csv,audio/NV_DE_Neural2-F_Ti-ge-Vi_0.15p_16ch.wav,5.0115,NV,Neural2-F,Ti-ge-Vi,Ti,ge,Vi,0.15p,16ch,100,101,114,121,134,110,120,130,8,NV3,0,0,0,0,0,27,27,16,309.7301776000004,,,,,,,,,,309.5465728000004,309.7258711333338,309.7301776000004,314.35732770000004,314.35732770000004,314.35732770000004,314.3426228000003,314.3426449000003,314.35732770000004,315.37252690000014,315.37252690000014,315.37252690000014,315.37252690000014,315.37252690000014,315.37252690000014,315.37252690000014,315.37252690000014,315.37252690000014,315.37252690000014,315.37252690000014,315.37252690000014,315.37252690000014,1.011971199999607,2.346187099999952,317.74096720000034,[-0.33425925925925926],[-0.33796296296296297],[1],[0],[0],[2.348186100000021],['call4'],[-0.011111111111111112],[0.09722222222222222],[1],[0],[0],[2.9960431000004064],['colour2'],[0.40370370370370373],[0.12685185185185185],[1],[0],[0],[3.3968370000002324],['number2'],True,False,False,2.993989799999781,317.91571950000025,,,,,s003,2,2024-04-25_08h38.20.528,SentenceInNoise,2024.1.1,None,2024-04-25 08h38.41.453396 +0200,
Y:\Projects\Spinco\SINEEG\Stimuli\AudioGens\flow_Experiment2\tts-golang-selected_PsyPySEQ_NV3.csv,audio/NV_DE_Neural2-F_Dr-ge-Ei_0.15p_16ch.wav,5.1509,NV,Neural2-F,Dr-ge-Ei,Dr,ge,Ei,0.15p,16ch,100,101,112,121,131,110,120,130,9,NV3,0,0,0,0,0,28,28,31,317.91571950000025,,,,,,,,,,317.7429057000004,317.92019993333355,317.91571950000025,322.67367490000015,322.67367490000015,322.67367490000015,322.66143260000035,322.6614717000002,322.67367490000015,323.68117200000006,323.68117200000006,323.68117200000006,323.68117200000006,323.68117200000006,323.68117200000006,323.68117200000006,323.68117200000006,323.68117200000006,323.68117200000006,323.68117200000006,323.68117200000006,323.68117200000006,1.0029027000000497,2.035407899999882,326.69816770000034,[-0.4074074074074074],[-0.10648148148148148],[1],[0],[0],[2.037054000000353],['call3'],[0.012037037037037037],[-0.07314814814814814],[1],[0],[0],[2.8856981999997515],['colour3'],[0.4388888888888889],[-0.1175925925925926],[1],[0],[0],[4.034897600000022],['number3'],False,False,False,2.8847209000000475,326.88184070000034,,,,,s003,2,2024-04-25_08h38.20.528,SentenceInNoise,2024.1.1,None,2024-04-25 08h38.41.453396 +0200,
Y:\Projects\Spinco\SINEEG\Stimuli\AudioGens\flow_Experiment2\tts-golang-selected_PsyPySEQ_NV3.csv,audio/NV_DE_Neural2-D_Ti-ro-Vi_0.15p_16ch.wav,5.4734,NV,Neural2-D,Ti-ro-Vi,Ti,ro,Vi,0.15p,16ch,100,101,114,123,134,110,120,130,11,NV3,0,0,0,0,0,29,29,7,326.88184070000034,,,,,,,,,,326.70009450000043,326.87855133333363,326.88184070000034,331.92802800000027,331.92802800000027,331.92802800000027,331.9169542000004,331.9169743000002,331.92802800000027,332.9399999000002,332.9399999000002,332.9399999000002,332.9399999000002,332.9399999000002,332.9399999000002,332.9399999000002,332.9399999000002,332.9399999000002,332.9399999000002,332.9399999000002,332.9399999000002,332.9399999000002,1.006297899999936,1.822309199999836,335.09177960000034,[-0.4305555555555556],[-0.3453703703703704],[1],[0],[0],[1.8239824999996017],['call4'],[0.023148148148148147],[0.10648148148148148],[1],[0],[0],[2.5235780999996678],['colour2'],[0.3824074074074074],[-0.2851851851851852],[1],[0],[0],[3.173757099999875],['number4'],True,False,False,2.5220887000000403,335.42041340000014,,,,,s003,2,2024-04-25_08h38.20.528,SentenceInNoise,2024.1.1,None,2024-04-25 08h38.41.453396 +0200,
Y:\Projects\Spinco\SINEEG\Stimuli\AudioGens\flow_Experiment2\tts-golang-selected_PsyPySEQ_NV3.csv,audio/NV_DE_Neural2-F_Ti-gr-Vi_0p_16ch.wav,4.9453,NV,Neural2-F,Ti-gr-Vi,Ti,gr,Vi,0p,16ch,100,101,114,122,134,110,120,130,10,NV3,0,0,0,0,0,30,30,18,335.42041340000014,,,,,,,,,,335.0933931000004,335.4217347333336,335.42041340000014,339.9842872000004,339.9842872000004,339.9842872000004,339.97176850000005,339.9717918000001,339.9842872000004,341.00007760000017,341.00007760000017,341.00007760000017,341.00007760000017,341.00007760000017,341.00007760000017,341.00007760000017,341.00007760000017,341.00007760000017,341.00007760000017,341.00007760000017,341.00007760000017,341.00007760000017,1.0113899000002675,2.4937543999999434,343.6667931000002,[-0.35833333333333334],[-0.2898148148148148],[1],[0],[0],[2.4954648000002635],['call4'],[-0.03333333333333333],[0.09166666666666666],[1],[0],[0],[3.0113006000001405],['colour2'],[0.38981481481481484],[-0.09074074074074075],[1],[0],[0],[3.6939173000000665],['number3'],True,False,False,3.009973700000046,343.8339740000001,,,,,s003,2,2024-04-25_08h38.20.528,SentenceInNoise,2024.1.1,None,2024-04-25 08h38.41.453396 +0200,
Y:\Projects\Spinco\SINEEG\Stimuli\AudioGens\flow_Experiment2\tts-golang-selected_PsyPySEQ_NV3.csv,audio/NV_DE_Neural2-F_Kr-ro-Ei_0.05p_16ch.wav,5.1152,NV,Neural2-F,Kr-ro-Ei,Kr,ro,Ei,0.05p,16ch,100,101,113,123,131,110,120,130,9,NV3,0,0,0,0,0,31,31,14,343.8339740000001,,,,,,,,,,343.66855280000027,343.8311074666668,343.8339740000001,348.5577067000004,348.5577067000004,348.5577067000004,348.54792540000017,348.54796190000025,348.5577067000004,349.55994320000036,349.55994320000036,349.55994320000036,349.55994320000036,349.55994320000036,349.55994320000036,349.55994320000036,349.55994320000036,349.55994320000036,349.55994320000036,349.55994320000036,349.55994320000036,349.55994320000036,0.9964036999999735,1.7949083999997129,352.79330240000036,[-0.3824074074074074],[-0.10833333333333334],[1],[0],[0],[1.7969691000002967],['call3'],[0.04351851851851852],[-0.11481481481481481],[1],[0],[0],[3.352834299999813],['colour3'],[0.3648148148148148],[0.10185185185185185],[1],[0],[0],[4.2442245000002],['number2'],True,False,False,3.3510737999999947,352.9689972000001,,,,,s003,2,2024-04-25_08h38.20.528,SentenceInNoise,2024.1.1,None,2024-04-25 08h38.41.453396 +0200,
,,,,,,,,,,,,,,,,,,,,,,,,,,,,,,,,,,,,,,,,,,,,,,,,,,,,,,,,,,,,,,,,,,,,,,,,,,,,,,,,,,,,,,,,,,352.9618138000001,352.9689972000001,352.9689972000001,441.2518401000002,s003,2,2024-04-25_08h38.20.528,SentenceInNoise,2024.1.1,None,2024-04-25 08h38.41.453396 +0200,
